timestamp,rotationVector_x,rotationVector_y,rotationVector_z,accelerometer_x,accelerometer_y,accelerometer_z,magneticField_x,magneticField_y,magneticField_z,gravity_x,gravity_y,gravity_z,linearAcceleration_x,linearAcceleration_y,linearAcceleration_z,gyroscope_x,gyroscope_y,gyroscope_z
2019-07-01T18:55:09.958Z,-7.440188e-05,-0.006635232,0.4649158,0.11198425,-0.062698364,9.806259,12.467957,11.091614,-58.666992,0.11453734,-0.061795514,9.805786,-0.0016026497,-0.0008969903,-0.00092983246,0.00015258789,3.0517578e-05,-0.00021362305
2019-07-01T18:55:10.159Z,-5.8186197e-05,-0.006633104,0.464888,0.115097046,-0.060775757,9.807938,13.021851,10.832214,-58.288574,0.11465019,-0.061490934,9.805787,-0.00028780848,0.0007245615,0.0011425018,-3.0517578e-05,-0.0001373291,0.00010681152
2019-07-01T18:55:10.357Z,-0.00010965668,-0.006625712,0.46493948,0.11341858,-0.062454224,9.805313,13.1866455,10.919189,-58.35266,0.11404891,-0.06232393,9.805789,-0.00063729286,-0.00059951097,-0.001791954,-0.0002746582,0.00015258789,-9.1552734e-05
2019-07-01T18:55:10.564Z,-0.00011855915,-0.00665141,0.4650186,0.115097046,-0.062927246,9.807465,13.291931,11.509705,-58.691406,0.11440832,-0.06272308,9.805782,0.00020264089,-0.0006852895,0.0010356903,-3.0517578e-05,-0.0001373291,4.5776367e-05
2019-07-01T18:55:10.819Z,-0.00015904556,-0.006637831,0.4650389,0.1131897,-0.06341553,9.805786,13.026428,10.983276,-58.711243,0.113801844,-0.06330481,9.805785,-0.0008658692,-0.0003342703,-0.00058078766,-0.00021362305,9.1552734e-05,4.5776367e-05
2019-07-01T18:55:11.022Z,-0.0001073336,-0.0066822525,0.46508342,0.117004395,-0.0619812,9.807709,13.7283325,10.748291,-60.221863,0.11504159,-0.06281789,9.805774,0.0021947697,0.0013316199,0.0004081726,-9.1552734e-05,-7.6293945e-05,0.00016784668
2019-07-01T18:55:11.178Z,-0.000104277104,-0.006679854,0.465073,0.114852905,-0.06460571,9.802673,13.261414,10.928345,-59.111023,0.115028575,-0.062741585,9.805775,0.00030907243,-0.00042787194,-0.0014801025,0.00015258789,9.1552734e-05,-3.0517578e-05
2019-07-01T18:55:11.380Z,-0.00011261315,-0.0066501508,0.46500716,0.11437988,-0.06149292,9.804352,12.182617,11.795044,-57.83081,0.1144415,-0.06260687,9.805782,-0.0014898479,0.0003934577,-0.0016260147,-3.0517578e-05,-7.6293945e-05,-9.1552734e-05
2019-07-01T18:55:11.578Z,-0.00010539713,-0.0066457377,0.46498576,0.11198425,-0.06149292,9.806503,12.825012,10.475159,-60.694885,0.11443219,-0.06243856,9.805783,-0.00077008456,-0.00025947392,0.0011558533,0.00015258789,-0.00019836426,-1.5258789e-05
2019-07-01T18:55:11.813Z,-0.00013717191,-0.006608791,0.46493325,0.11222839,-0.06388855,9.806259,13.395691,10.281372,-59.09729,0.11350464,-0.062646605,9.805793,-0.001031518,-0.0009981245,-0.0002002716,0.00015258789,0.00021362305,0.00010681152
2019-07-01T18:55:11.980Z,-9.4083356e-05,-0.0066096117,0.46487617,0.11605835,-0.061019897,9.80603,15.014648,10.914612,-61.221313,0.11391579,-0.06189855,9.805793,0.0009356886,0.0015965849,0.00034427643,-3.0517578e-05,3.0517578e-05,-0.00033569336
2019-07-01T18:55:12.189Z,-0.000102724516,-0.006624809,0.4649276,0.11534119,-0.06484985,9.811539,13.548279,11.967468,-59.21173,0.11409728,-0.062193796,9.805789,0.0007397756,-0.00096895173,0.002465248,9.1552734e-05,9.1552734e-05,-0.00021362305
2019-07-01T18:55:12.389Z,-0.00014115743,-0.00663437,0.4650053,0.11557007,-0.06341553,9.805557,13.583374,11.254883,-60.868835,0.1139073,-0.06295833,9.805786,-0.0004976317,0.0005090311,-0.0012407303,-9.1552734e-05,0.00015258789,4.5776367e-05
2019-07-01T18:55:12.600Z,-0.00010006171,-0.006654523,0.46500129,0.11534119,-0.061264038,9.807938,12.742615,11.761475,-58.08716,0.11463229,-0.06242805,9.805781,0.001879923,0.00045727938,0.0017232895,0.00015258789,0.00010681152,-9.1552734e-05
2019-07-01T18:55:12.805Z,-8.208025e-05,-0.006660073,0.464991,0.114852905,-0.06173706,9.804108,13.449097,11.601257,-59.58557,0.11489338,-0.06216512,9.80578,0.00044057518,0.00018782541,-0.0020456314,9.1552734e-05,-1.5258789e-05,4.5776367e-05
2019-07-01T18:55:13.000Z,-8.730147e-05,-0.006630874,0.4649222,0.11317444,-0.06149292,9.806503,13.378906,11.737061,-59.025574,0.114343606,-0.061980594,9.805788,-0.0016422644,0.00073185563,-0.0011987686,-9.1552734e-05,-0.0001373291,4.5776367e-05
2019-07-01T18:55:13.200Z,-6.073276e-05,-0.006640756,0.4649114,0.11413574,-0.060302734,9.8076935,13.13324,11.418152,-57.720947,0.114758216,-0.061607964,9.805785,0.00032567978,0.0010834076,0.002234459,-9.1552734e-05,-0.0001373291,-1.5258789e-05
2019-07-01T18:55:13.411Z,-7.2000876e-05,-0.0066372463,0.46491775,0.11628723,-0.06317139,9.806747,12.193298,10.343933,-58.732605,0.11459409,-0.061772447,9.805786,-0.00022201985,-0.00067756325,-0.0009126663,9.1552734e-05,3.0517578e-05,-3.0517578e-05
2019-07-01T18:55:13.613Z,-7.834879e-05,-0.006678252,0.46503317,0.11581421,-0.06173706,9.808899,13.311768,11.868286,-57.862854,0.11524007,-0.062271606,9.805775,0.0010268241,-0.00041576847,0.0021104813,-0.00015258789,-7.6293945e-05,0.00016784668
2019-07-01T18:55:13.810Z,-5.558945e-05,-0.0067056287,0.4650731,0.11628723,-0.062927246,9.80603,13.595581,11.09314,-58.561707,0.11592016,-0.062131364,9.805768,0.001063846,-0.00031193718,-2.7656555e-05,0.00015258789,-7.6293945e-05,-9.1552734e-05
2019-07-01T18:55:14.021Z,-4.4929136e-05,-0.0066991737,0.46504167,0.11628723,-0.06173706,9.806503,12.817383,11.46698,-57.170105,0.115907535,-0.06188328,9.80577,-0.0005761683,0.0006244816,-0.0017757416,-3.0517578e-05,-0.0001373291,-1.5258789e-05
2019-07-01T18:55:14.215Z,-4.8831884e-05,-0.006732451,0.4651336,0.11581421,-0.062698364,9.807465,13.2873535,11.512756,-59.0683,0.11644323,-0.062266655,9.805761,7.481128e-05,-0.0004245825,0.00058078766,-9.1552734e-05,-0.0002593994,-0.00015258789
2019-07-01T18:55:14.418Z,-6.76028e-05,-0.006700457,0.46507618,0.11462402,-0.062210083,9.803879,13.223267,11.491394,-56.80542,0.11572058,-0.062293172,9.805769,-0.001344867,-0.00015880913,-0.0015258789,3.0517578e-05,3.0517578e-05,4.5776367e-05
2019-07-01T18:55:14.621Z,-4.0563114e-05,-0.0066843154,0.46499702,0.11437988,-0.0619812,9.805786,12.229919,11.14502,-58.34503,0.115692504,-0.061666116,9.805774,-0.00035505742,0.0013653748,-6.0081482e-05,-3.0517578e-05,-7.6293945e-05,-0.00015258789
2019-07-01T18:55:14.828Z,-7.610297e-05,-0.006692624,0.46506748,0.11437988,-0.0619812,9.807465,12.817383,11.69281,-58.258057,0.11550767,-0.062368177,9.805772,-0.00088995695,-0.0015169643,0.00043964386,3.0517578e-05,-0.0001373291,0.00016784668
2019-07-01T18:55:15.034Z,-9.141805e-05,-0.0066799675,0.46505558,0.11462402,-0.062454224,9.805557,12.95929,11.18927,-57.98645,0.115149066,-0.06251709,9.805775,-0.00077529997,-0.00017794967,-2.193451e-05,-3.0517578e-05,-1.5258789e-05,4.5776367e-05
2019-07-01T18:55:15.231Z,-8.998625e-05,-0.006693328,0.4650884,0.11581421,-0.06341553,9.807938,13.023376,10.984802,-59.013367,0.115391776,-0.062618375,9.805772,0.0004201159,-7.8730285e-05,-0.00065517426,-3.0517578e-05,-1.5258789e-05,4.5776367e-05
2019-07-01T18:55:15.434Z,-9.773483e-05,-0.0066601974,0.46501285,0.11366272,-0.0619812,9.806747,12.069702,11.1328125,-58.187866,0.11475123,-0.062440902,9.80578,-0.0013378784,0.00046254694,0.0005197525,-3.0517578e-05,-1.5258789e-05,-0.00015258789
2019-07-01T18:55:15.640Z,-0.000136537,-0.006633817,0.46499753,0.112701416,-0.062927246,9.806503,12.632751,11.172485,-58.50525,0.113940395,-0.06287206,9.805786,-0.0014958158,-0.000765346,0.0013027191,-3.0517578e-05,3.0517578e-05,-0.0002746582
2019-07-01T18:55:15.836Z,-9.636142e-05,-0.0066123516,0.46488643,0.11341858,-0.06149292,9.807709,12.217712,10.856628,-58.554077,0.11394188,-0.061964408,9.805792,-5.2690506e-05,0.0019154251,0.0008687973,-3.0517578e-05,-1.5258789e-05,-0.0002746582
2019-07-01T18:55:16.050Z,-9.4642426e-05,-0.0066630286,0.46501595,0.11677551,-0.062454224,9.804596,12.528992,10.58197,-58.31909,0.11482837,-0.062413435,9.805779,0.0012236014,-0.0009986237,-0.0019721985,3.0517578e-05,-0.0001373291,0.00010681152
2019-07-01T18:55:16.240Z,-5.980929e-05,-0.006682426,0.46501857,0.11628723,-0.060775757,9.806992,13.194275,10.986328,-57.73468,0.11548266,-0.06198587,9.805774,0.00079363585,0.00074296445,0.0007619858,3.0517578e-05,-0.0001373291,0.00022888184
2019-07-01T18:55:16.437Z,-3.2022457e-05,-0.0067044394,0.46503764,0.1179657,-0.06173706,9.806259,13.421631,10.78949,-58.61664,0.11611697,-0.061706685,9.805769,0.0018450543,0.0006887354,-0.0012540817,-3.0517578e-05,0.00015258789,0.00010681152
2019-07-01T18:55:16.636Z,-7.3204894e-05,-0.0067169135,0.4651267,0.11437988,-0.06437683,9.807709,12.6953125,12.332153,-57.063293,0.11595163,-0.06254717,9.805765,-0.00038789213,-0.0013379678,0.00044727325,-9.1552734e-05,-1.5258789e-05,-0.00015258789
2019-07-01T18:55:16.846Z,-0.00010609863,-0.0067229783,0.46518767,0.11534119,-0.06364441,9.808655,14.082336,11.2716675,-58.84552,0.11575248,-0.06318157,9.805763,-0.000432536,-0.0014125407,0.0025262833,3.0517578e-05,-1.5258789e-05,-0.00021362305
2019-07-01T18:55:17.064Z,-7.191607e-05,-0.0066967984,0.46507257,0.117492676,-0.06173706,9.807709,12.837219,12.057495,-57.955933,0.115617976,-0.062334225,9.805771,-0.00079046935,0.0015721619,0.00072956085,3.0517578e-05,-0.0001373291,-1.5258789e-05
2019-07-01T18:55:17.255Z,-5.5058987e-05,-0.00675329,0.46519637,0.11628723,-0.062927246,9.805069,12.634277,11.170959,-58.277893,0.11674377,-0.06257316,9.805756,0.0019264743,-0.00059146434,-0.0022192001,3.0517578e-05,-7.6293945e-05,-0.00021362305
2019-07-01T18:55:17.462Z,-8.708041e-05,-0.006702708,0.4651088,0.112457275,-0.061965942,9.805069,12.481689,11.228943,-57.65686,0.11557969,-0.06265615,9.805769,-0.002637744,-0.00026913732,-0.0014791489,3.0517578e-05,-7.6293945e-05,0.00010681152
2019-07-01T18:55:17.658Z,-0.00011109238,-0.0066464017,0.4649953,0.11294556,-0.06341553,9.808426,11.921692,11.416626,-58.277893,0.11439111,-0.06254474,9.805783,-0.0028924048,-0.00014677644,0.0015687943,9.1552734e-05,-0.0001373291,-0.00015258789
2019-07-01T18:55:17.864Z,-8.0612575e-05,-0.0066365176,0.4649277,0.11294556,-0.060058594,9.806259,13.911438,10.971069,-58.825684,0.11450221,-0.06191662,9.805786,0.0003385991,0.00090325996,-7.43866e-05,9.1552734e-05,3.0517578e-05,-1.5258789e-05
2019-07-01T18:55:18.080Z,-8.910237e-05,-0.0065851207,0.4648056,0.11341858,-0.061264038,9.808182,12.367249,10.496521,-57.95288,0.11354087,-0.061579704,9.8057995,-0.0018007979,-0.00039320067,0.00058841705,0.0002746582,3.0517578e-05,-9.1552734e-05
2019-07-01T18:55:18.276Z,-7.100051e-05,-0.006611428,0.4648492,0.114852905,-0.062927246,9.805313,13.047791,11.419678,-58.39691,0.11415968,-0.06151081,9.805793,0.0011702776,2.393499e-05,-0.0007266998,3.0517578e-05,-1.5258789e-05,-1.5258789e-05
2019-07-01T18:55:18.487Z,-9.6421885e-05,-0.0066015166,0.46485832,0.114608765,-0.062454224,9.805313,12.857056,10.902405,-59.173584,0.114565834,-0.061388664,9.805789,-0.0010518953,-0.0010651946,-0.0012836456,9.1552734e-05,-0.00019836426,3.0517578e-05
2019-07-01T18:55:18.684Z,-7.405867e-05,-0.0066261645,0.46489173,0.115097046,-0.06317139,9.804825,12.588501,10.224915,-58.84857,0.11438472,-0.061703768,9.805789,0.0002470836,0.00020665303,-0.0010147095,3.0517578e-05,-0.0002593994,-1.5258789e-05
2019-07-01T18:55:18.876Z,-0.000117042386,-0.006686887,0.4651088,0.114608765,-0.06364441,9.808182,12.910461,11.917114,-58.062744,0.11503168,-0.06303203,9.805773,0.0010242015,-0.0027777702,0.0017251968,3.0517578e-05,-7.6293945e-05,0.00016784668
2019-07-01T18:55:19.078Z,-9.587991e-05,-0.0066590738,0.46500736,0.117492676,-0.060302734,9.806747,12.60376,10.514832,-58.48694,0.11474902,-0.062397737,9.80578,-0.00061766803,0.0016243607,0.00034809113,-9.1552734e-05,-1.5258789e-05,0.00010681152
2019-07-01T18:55:19.286Z,-6.0826453e-05,-0.006704661,0.4650778,0.117248535,-0.06484985,9.807938,12.586975,11.747742,-57.556152,0.11585527,-0.06221408,9.805768,0.0023438632,9.749085e-06,0.0010347366,9.1552734e-05,3.0517578e-05,4.5776367e-05
2019-07-01T18:55:19.488Z,-5.900687e-05,-0.0067122756,0.4650951,0.115097046,-0.061264038,9.808426,13.781738,11.535645,-57.724,0.11600284,-0.06225421,9.805766,-0.00020910054,-0.00043317676,0.0016469955,9.1552734e-05,-0.0001373291,0.00022888184
2019-07-01T18:55:19.689Z,-6.2550076e-05,-0.0066834795,0.46502507,0.1138916,-0.0619812,9.80603,13.191223,10.98938,-58.1131,0.1154755,-0.062043916,9.805774,-0.0013552308,0.000315167,-0.0008134842,3.0517578e-05,-7.6293945e-05,0.00015258789
2019-07-01T18:55:19.898Z,-0.00011024574,-0.0066981474,0.46512878,0.11366272,-0.06628418,9.804596,12.565613,11.31134,-57.79724,0.115287766,-0.06301935,9.80577,-0.0011577085,-0.0015832558,-0.001657486,-9.1552734e-05,-0.00019836426,9.1552734e-05
2019-07-01T18:55:20.095Z,-0.0001483731,-0.006677981,0.46512872,0.112701416,-0.062454224,9.809372,13.200378,11.1328125,-57.63092,0.114589825,-0.063497335,9.805775,-0.0019052252,-0.00085491687,0.0019292831,-3.0517578e-05,-0.0001373291,-9.1552734e-05
2019-07-01T18:55:20.292Z,-0.00014827943,-0.0066693565,0.46510616,0.114852905,-0.06436157,9.808899,13.529968,11.297607,-57.536316,0.11444258,-0.06341412,9.805778,-0.0008068904,0.00050184876,0.0017671585,-9.1552734e-05,-0.0001373291,-0.0001373291
2019-07-01T18:55:20.495Z,-0.00012370007,-0.0066850795,0.46511328,0.115097046,-0.061019897,9.806976,12.814331,11.317444,-56.8985,0.11493925,-0.06313171,9.805773,0.0013288334,0.00068800896,-0.001376152,-3.0517578e-05,9.1552734e-05,-7.6293945e-05
2019-07-01T18:55:20.699Z,-8.0757796e-05,-0.006702575,0.46509975,0.11581421,-0.0619812,9.809143,13.581848,12.391663,-57.162476,0.11563569,-0.06254398,9.805769,0.0006301552,0.00034546107,0.00035572052,0.00021362305,-0.00019836426,-9.1552734e-05
2019-07-01T18:55:20.902Z,-9.106643e-05,-0.0067258435,0.46517447,0.11581421,-0.06484985,9.806259,12.257385,11.425781,-56.626892,0.11594031,-0.062945,9.805762,-0.00015089661,-0.00045706332,0.00056648254,-9.1552734e-05,-0.00019836426,-9.1552734e-05
2019-07-01T18:55:21.109Z,-0.00013167174,-0.006704355,0.46517438,0.1138916,-0.062454224,9.80722,12.307739,11.003113,-58.14972,0.1151968,-0.06345391,9.805768,-0.0015542805,-0.00042351335,-0.00074005127,-0.00015258789,-1.5258789e-05,3.0517578e-05
2019-07-01T18:55:21.314Z,-9.201743e-05,-0.0067056,0.46512312,0.11605835,-0.062210083,9.805786,12.995911,12.145996,-58.70056,0.11558384,-0.06277011,9.805768,0.0004637465,0.0007947609,-0.0016126633,0.00015258789,-7.6293945e-05,0.00010681152
2019-07-01T18:55:21.507Z,-8.448517e-05,-0.006679523,0.46504492,0.11390686,-0.062927246,9.804108,12.348938,11.875916,-57.595825,0.11520534,-0.062391274,9.805775,-0.0013018548,0.0004118979,-0.0012369156,9.1552734e-05,-0.0001373291,-1.5258789e-05
2019-07-01T18:55:21.722Z,-9.312862e-05,-0.0066778655,0.4650525,0.11557007,-0.0619812,9.808411,12.962341,11.187744,-57.684326,0.115097195,-0.06252722,9.805776,-0.00025594234,-0.00039370358,0.0014133453,3.0517578e-05,-1.5258789e-05,0.00010681152
2019-07-01T18:55:21.921Z,-8.869252e-05,-0.0066627436,0.46500704,0.11341858,-0.0619812,9.80603,13.356018,10.997009,-57.739258,0.11487831,-0.062306367,9.805779,-0.0005043298,0.0005725026,-0.0009698868,-3.0517578e-05,-1.5258789e-05,0.00015258789
2019-07-01T18:55:22.123Z,-7.9709214e-05,-0.0066723013,0.46501955,0.11462402,-0.062210083,9.804596,13.096619,10.690308,-58.320618,0.115125306,-0.062239185,9.805777,-3.3184886e-05,0.0002606474,-0.00016593933,-3.0517578e-05,-0.0001373291,0.00016784668
2019-07-01T18:55:22.328Z,-9.190354e-05,-0.006670467,0.46503153,0.115097046,-0.0619812,9.804352,13.192749,11.138916,-58.610535,0.1149814,-0.062435746,9.805778,-0.0008386746,-2.226606e-05,-0.0020208359,-9.1552734e-05,-0.0001373291,0.00010681152
2019-07-01T18:55:22.526Z,-7.1803035e-05,-0.0066955173,0.4650691,0.11628723,-0.062698364,9.805542,13.279724,11.062622,-57.499695,0.11559701,-0.06232012,9.805771,0.0006986037,0.0003496632,-0.00023555756,-3.0517578e-05,-0.0001373291,-1.5258789e-05
2019-07-01T18:55:22.731Z,-7.489417e-05,-0.006664943,0.4649938,0.11462402,-0.062698364,9.805786,13.1362915,11.340332,-56.907654,0.11504327,-0.06208512,9.8057785,-0.0011517033,0.000103931874,0.0014390945,9.1552734e-05,-1.5258789e-05,-9.1552734e-05
2019-07-01T18:55:22.937Z,-0.00012552492,-0.0066802492,0.4651032,0.11413574,-0.06364441,9.807938,12.028503,10.26001,-58.592224,0.11483947,-0.06311803,9.805775,-0.0004615113,-0.0012424812,0.00032043457,-0.00021362305,-1.5258789e-05,4.5776367e-05
2019-07-01T18:55:23.138Z,-0.00012396509,-0.0066900575,0.46512657,0.114852905,-0.06341553,9.803162,12.719727,11.248779,-58.04138,0.11502231,-0.06318346,9.805772,-0.00016698241,-0.00023340434,-0.00074100494,3.0517578e-05,-0.0001373291,0.00022888184
2019-07-01T18:55:23.341Z,-0.00013976922,-0.006673138,0.46510428,0.11222839,-0.061965942,9.806259,13.269043,10.8428955,-57.54242,0.114585996,-0.06330062,9.805777,-0.0009235069,-0.000114776194,0.00046253204,-3.0517578e-05,-1.5258789e-05,0.00010681152
2019-07-01T18:55:23.543Z,-9.245761e-05,-0.0066262423,0.46491724,0.11366272,-0.060775757,9.805557,13.183594,10.766602,-57.704163,0.11421652,-0.062027253,9.805789,-0.0015105084,0.002439186,-0.0007982254,3.0517578e-05,-0.00019836426,0.00010681152
2019-07-01T18:55:23.748Z,-9.04608e-05,-0.006615642,0.4648869,0.11437988,-0.06149292,9.806259,11.932373,11.557007,-57.643127,0.114052795,-0.061892014,9.805792,-0.0003869757,-9.086728e-05,0.0002603531,9.1552734e-05,-1.5258789e-05,-0.00015258789
2019-07-01T18:55:23.949Z,-5.5542478e-05,-0.006636755,0.46489388,0.11581421,-0.06124878,9.80603,12.962341,11.187744,-57.684326,0.11473729,-0.06147908,9.805786,0.0013183802,0.00046061724,0.0009765625,9.1552734e-05,-1.5258789e-05,-0.0001373291
2019-07-01T18:55:24.154Z,-6.965274e-05,-0.006666303,0.46499014,0.11341858,-0.06364441,9.806503,13.722229,11.894226,-57.347107,0.11511495,-0.06200604,9.8057785,0.0006964132,-0.0014079548,9.536743e-06,9.1552734e-05,-1.5258789e-05,-1.5258789e-05
2019-07-01T18:55:24.351Z,-8.89524e-05,-0.0066166404,0.4648874,0.11341858,-0.06149292,9.80603,12.808228,11.325073,-57.80182,0.11408385,-0.061874993,9.805792,-0.002822198,0.00014089048,0.00048732758,3.0517578e-05,-0.00019836426,-1.5258789e-05
2019-07-01T18:55:24.551Z,-0.00011775103,-0.006639054,0.46498534,0.1131897,-0.06413269,9.804825,12.7960205,11.030579,-57.485962,0.11420351,-0.06259206,9.805785,-0.00053887814,-0.0015416816,-0.0012693405,3.0517578e-05,-0.00019836426,4.5776367e-05
2019-07-01T18:55:24.757Z,-9.145245e-05,-0.006628158,0.46492082,0.11653137,-0.06173706,9.8076935,13.513184,10.707092,-56.748962,0.11425869,-0.06202773,9.805788,0.0008322075,0.0007670261,0.0013780594,9.1552734e-05,0.00018310547,0.0
2019-07-01T18:55:24.966Z,-0.00011427647,-0.0066383686,0.46497878,0.11341858,-0.062210083,9.806503,13.540649,11.595154,-58.00476,0.11424542,-0.061740026,9.80579,0.0003491193,0.0007278137,0.0014152527,-3.0517578e-05,0.00012207031,-0.0002593994
2019-07-01T18:55:25.159Z,-6.31372e-05,-0.006636524,0.46490368,0.117004395,-0.05958557,9.80603,13.180542,10.769653,-58.15735,0.11466334,-0.061610125,9.805786,0.00089063495,0.00012585148,0.00030231476,3.0517578e-05,1.5258789e-05,-0.00032043457
2019-07-01T18:55:25.375Z,-2.3103676e-05,-0.0066265617,0.46482277,0.11294556,-0.05958557,9.808426,12.805176,11.326599,-57.95288,0.11486096,-0.06081363,9.805789,0.00069277734,0.0014808439,3.71933e-05,3.0517578e-05,7.6293945e-05,0.00012207031
2019-07-01T18:55:25.570Z,-3.8850976e-05,-0.006591457,0.46475306,0.114852905,-0.060775757,9.808182,12.805176,11.170959,-56.925964,0.11411261,-0.060758058,9.805798,-0.0011898503,-0.00024969503,0.0011415482,9.1552734e-05,7.6293945e-05,-1.5258789e-05
2019-07-01T18:55:25.770Z,-2.521709e-05,-0.006629607,0.46483362,0.11581421,-0.062210083,9.808182,12.956238,11.268616,-58.802795,0.11489383,-0.060879502,9.805788,0.0011435673,-0.00012928993,-0.00035572052,-3.0517578e-05,-0.00010681152,-0.0001373291
2019-07-01T18:55:25.979Z,-7.757608e-05,-0.006633992,0.46491694,0.11390686,-0.06341553,9.804825,12.245178,11.436462,-58.28705,0.1144868,-0.061839476,9.805787,0.00034932047,-0.0025130324,-0.0007209778,0.00015258789,0.00030517578,-0.00019836426
2019-07-01T18:55:26.177Z,-9.3428076e-05,-0.006579951,0.46479806,0.11294556,-0.062454224,9.808426,12.4053955,11.448669,-58.441162,0.11341219,-0.061606728,9.8058,-0.0014453828,-0.0003649965,0.00015544891,0.00021362305,0.00018310547,-0.0001373291
2019-07-01T18:55:26.385Z,-9.291455e-05,-0.006589752,0.4648229,0.11677551,-0.060775757,9.805069,13.189697,11.141968,-58.988953,0.11358534,-0.061690345,9.805799,0.0012614504,-4.339218e-05,-0.0019750595,-3.0517578e-05,0.00024414062,-0.0001373291
2019-07-01T18:55:26.584Z,-6.0187172e-05,-0.0065971753,0.46479723,0.11294556,-0.06149292,9.805069,13.134766,11.49292,-57.933044,0.11401437,-0.0611864,9.805797,0.0017957166,0.0006569959,-0.00036525726,9.1552734e-05,0.00024414062,0.0
2019-07-01T18:55:26.788Z,-8.543052e-05,-0.006565422,0.46474928,0.11317444,-0.06173706,9.807938,13.069153,11.932373,-58.520508,0.11323619,-0.061329156,9.805804,-0.0012592077,-0.0006481074,0.0005578995,9.1552734e-05,7.6293945e-05,-0.0001373291
2019-07-01T18:55:26.987Z,-7.434816e-05,-0.0065702004,0.46474648,0.11413574,-0.06173706,9.808655,14.5095825,11.657715,-57.954407,0.11342038,-0.061179902,9.805803,0.00069484115,-5.780533e-05,0.0022821426,9.1552734e-05,7.6293945e-05,0.00024414062
2019-07-01T18:55:27.189Z,-7.043765e-05,-0.0065671974,0.4647333,0.11341858,-0.0619812,9.808182,12.715149,11.175537,-58.20465,0.11340479,-0.06108293,9.805804,0.00024335831,-0.0004021339,-0.0010347366,0.00015258789,7.6293945e-05,-0.00032043457
2019-07-01T18:55:27.390Z,-9.890408e-05,-0.0066001257,0.4648581,0.11341858,-0.06317139,9.80603,12.998962,10.244751,-57.954407,0.1137084,-0.061893452,9.805796,0.0009011999,-0.00079705566,-4.863739e-05,-0.00021362305,7.6293945e-05,0.0
2019-07-01T18:55:27.601Z,-9.94218e-05,-0.0065812506,0.4648097,0.115097046,-0.06124878,9.804825,12.576294,11.528015,-57.600403,0.11337931,-0.06172415,9.8058,-0.00020980835,-1.0222197e-05,-0.0016317368,9.1552734e-05,0.00012207031,-0.0001373291
2019-07-01T18:55:27.803Z,-9.4131676e-05,-0.006611577,0.46488136,0.11534119,-0.06173706,9.807465,12.306213,10.774231,-56.835938,0.11394912,-0.061917976,9.805793,0.0018552318,0.00043041632,0.00082302094,-0.00021362305,0.00018310547,0.0
2019-07-01T18:55:28.001Z,-0.00011869687,-0.006664318,0.46505237,0.11628723,-0.06460571,9.805786,13.101196,10.687256,-57.717896,0.11462878,-0.06284757,9.8057785,0.0011758953,-0.001752913,-9.1552734e-05,-3.0517578e-05,-4.5776367e-05,-0.0002593994
2019-07-01T18:55:28.208Z,-0.00015351758,-0.0066737174,0.4651247,0.11413574,-0.065078735,9.806503,13.12561,11.196899,-57.4646,0.11446916,-0.06354724,9.805776,0.00014468282,-0.0012969673,0.0001001358,-3.0517578e-05,0.00012207031,-0.00032043457
2019-07-01T18:55:28.414Z,-0.00014337458,-0.0066576153,0.46506885,0.11557007,-0.062927246,9.80603,13.310242,11.871338,-58.241272,0.11428614,-0.06321704,9.80578,0.00032924116,0.00029456615,-0.00026226044,9.1552734e-05,0.00018310547,-0.00032043457
2019-07-01T18:55:28.608Z,-0.0001049622,-0.0066473405,0.4649893,0.11462402,-0.05909729,9.805542,12.791443,10.958862,-57.800293,0.11446374,-0.062446088,9.805783,0.0006312579,0.00048126653,-0.0011339188,0.0002746582,7.6293945e-05,-0.00019836426
2019-07-01T18:55:28.819Z,-5.5007924e-05,-0.0066177347,0.46484363,0.11437988,-0.062454224,9.806259,12.428284,11.730957,-57.025146,0.11441538,-0.061289877,9.805791,0.00019022822,0.0017059967,0.00019741058,0.00015258789,7.6293945e-05,-0.00038146973
2019-07-01T18:55:29.017Z,-4.9954022e-05,-0.006655,0.46493366,0.117004395,-0.060775757,9.803635,12.086487,11.424255,-57.75299,0.115102276,-0.061553575,9.805781,0.0016672537,-0.0004244335,0.00045681,-3.0517578e-05,7.6293945e-05,-0.0002593994
2019-07-01T18:55:29.223Z,-9.4957104e-05,-0.0066337246,0.46494013,0.11341858,-0.06388855,9.805313,11.869812,10.171509,-58.073425,0.11432204,-0.06214184,9.805787,-0.000650309,-0.0017516129,-0.0025691986,0.00015258789,0.00024414062,-6.1035156e-05
2019-07-01T18:55:29.420Z,-0.00010107184,-0.006629753,0.4649382,0.11390686,-0.062927246,9.8029175,13.549805,11.587524,-56.948853,0.114197455,-0.06221155,9.805788,0.00067254156,-0.00072500855,-0.0014028549,0.00015258789,0.00024414062,-0.0001373291
2019-07-01T18:55:29.626Z,-0.00011444706,-0.0066174916,0.46492466,0.112701416,-0.062698364,9.805542,13.079834,12.149048,-58.250427,0.11386354,-0.062330246,9.805791,-0.00019039959,-0.00037382916,0.0011377335,3.0517578e-05,0.00012207031,-0.0002593994
2019-07-01T18:55:29.832Z,-0.000104941,-0.006576469,0.46480483,0.11390686,-0.060775757,9.805542,13.189697,10.836792,-57.237244,0.11324631,-0.06177578,9.805801,-0.0005341917,0.00027702376,-4.9591064e-05,0.00021362305,0.00018310547,-0.00019836426
2019-07-01T18:55:30.033Z,-9.4136274e-05,-0.0065649967,0.46476012,0.11437988,-0.0619812,9.806976,12.469482,10.9375,-57.714844,0.11314869,-0.061477847,9.805804,0.0005175248,0.00045605376,0.0012454987,3.0517578e-05,0.00018310547,-0.00032043457
2019-07-01T18:55:30.236Z,-0.00012409907,-0.006572659,0.46482125,0.11437988,-0.06341553,9.805313,13.528442,11.300659,-57.913208,0.11300434,-0.062075827,9.805802,0.00017427653,-0.0008537136,-0.00012683868,-9.1552734e-05,0.00012207031,-0.0002593994
2019-07-01T18:55:30.438Z,-9.751528e-05,-0.0065883547,0.46482557,0.11317444,-0.060546875,9.806259,13.044739,11.268616,-57.899475,0.11351894,-0.06175784,9.805799,0.0013330579,0.0009825788,0.00087070465,-9.1552734e-05,7.6293945e-05,-1.5258789e-05
2019-07-01T18:55:30.643Z,-7.8776924e-05,-0.0065848157,0.4647906,0.11462402,-0.059829712,9.805069,12.989807,11.84845,-58.00476,0.11363074,-0.061395694,9.8057995,0.00027650595,0.00013144687,-0.00022411346,0.00015258789,1.5258789e-05,-0.0001373291
2019-07-01T18:55:30.841Z,-7.131941e-05,-0.0065808683,0.46477008,0.11341858,-0.061965942,9.806259,12.915039,12.06665,-58.259583,0.1136316,-0.06122757,9.8058,0.00027929246,0.00020550564,-0.0006284714,3.0517578e-05,7.6293945e-05,-0.00038146973
2019-07-01T18:55:31.081Z,-4.4451626e-05,-0.0065763905,0.46472153,0.1138916,-0.061019897,9.806976,12.593079,12.045288,-58.251953,0.1138021,-0.060713936,9.805802,0.0012930632,0.00090048835,0.0010118484,3.0517578e-05,0.00024414062,-6.1035156e-05
2019-07-01T18:55:31.247Z,-8.096638e-05,-0.006573525,0.46476424,0.11413574,-0.06149292,9.805313,13.456726,11.442566,-57.806396,0.11341655,-0.06132741,9.805802,-0.00047774613,-0.0018403307,0.000834465,0.00015258789,7.6293945e-05,-0.00044250488
2019-07-01T18:55:31.453Z,-4.7864163e-05,-0.0065941545,0.46477246,0.114852905,-0.061965942,9.8033905,11.935425,11.555481,-57.266235,0.114075966,-0.060941674,9.805798,0.0017457604,0.00040603802,-0.0024776459,9.1552734e-05,0.00012207031,-0.00062561035
2019-07-01T18:55:31.650Z,-6.396648e-05,-0.006535832,0.46464273,0.114852905,-0.060302734,9.805542,12.5,11.592102,-57.27997,0.11292531,-0.06067311,9.805813,0.0004967749,0.00012435392,0.00027751923,-3.0517578e-05,0.00024414062,-0.00019836426
2019-07-01T18:55:31.857Z,-5.5986195e-05,-0.0065925852,0.46477953,0.114608765,-0.06173706,9.804825,13.046265,11.26709,-57.67212,0.113974184,-0.06106932,9.805798,0.0025622323,-0.00091458485,-0.00029468536,3.0517578e-05,0.00012207031,-0.0001373291
2019-07-01T18:55:32.061Z,-8.248634e-05,-0.0065542334,0.4647161,0.11413574,-0.06149292,9.806747,13.157654,12.004089,-57.829285,0.11307104,-0.06117181,9.805808,-0.0010879487,-0.0005646199,0.0010824203,9.1552734e-05,0.00018310547,0.0
2019-07-01T18:55:32.267Z,-9.976961e-05,-0.006546017,0.46471846,0.11079407,-0.062927246,9.805557,12.895203,11.476135,-57.62329,0.112770654,-0.061397363,9.80581,-0.00054293126,-0.0005682111,-8.2969666e-05,3.0517578e-05,1.5258789e-05,0.0
2019-07-01T18:55:32.459Z,-0.00012649933,-0.0066043106,0.46490693,0.11581421,-0.0619812,9.807465,12.072754,10.978699,-56.93817,0.11352603,-0.062417056,9.805795,0.0015686005,-0.0012260303,0.00027179718,-0.00021362305,1.5258789e-05,-0.00018310547
2019-07-01T18:55:32.664Z,-0.000120106255,-0.00661238,0.46491915,0.1131897,-0.06341553,9.809616,13.076782,12.150574,-58.625793,0.11372357,-0.06238119,9.805792,0.0011166036,-6.605312e-05,0.0017652512,3.0517578e-05,0.00018310547,-0.00019836426
2019-07-01T18:55:32.867Z,-0.00013797097,-0.006559571,0.46480623,0.11294556,-0.06173706,9.80986,13.241577,12.083435,-57.740784,0.11265165,-0.06219548,9.805805,-0.0014111772,8.568168e-08,0.0024557114,9.1552734e-05,0.00018310547,-6.1035156e-05
2019-07-01T18:55:33.074Z,-7.5647105e-05,-0.0065952595,0.4648135,0.11581421,-0.060302734,9.805786,12.8967285,11.6241455,-58.120728,0.11383905,-0.0614395,9.805798,0.0019507185,0.0006769337,-0.0004377365,0.00021362305,-0.00010681152,-0.00032043457
2019-07-01T18:55:33.274Z,-6.4449814e-05,-0.006604877,0.46482313,0.115097046,-0.06149292,9.805069,13.545227,11.663818,-57.687378,0.11410746,-0.061333973,9.805795,0.0012173653,-0.00015015528,-0.001414299,9.1552734e-05,0.00018310547,-0.00038146973
2019-07-01T18:55:33.476Z,-4.8657625e-05,-0.006602109,0.46479425,0.11581421,-0.062210083,9.80722,12.652588,11.610413,-58.416748,0.11420535,-0.06103077,9.805795,0.0013547167,1.6216189e-05,-0.0011110306,0.00015258789,0.00030517578,-0.00019836426
2019-07-01T18:55:33.680Z,-7.423995e-05,-0.0065917904,0.46480253,0.11462402,-0.060546875,9.805542,12.882996,11.256409,-57.66754,0.11379239,-0.06138202,9.805798,0.00033672154,-0.00059560686,-0.000582695,-3.0517578e-05,0.00030517578,-0.00032043457
2019-07-01T18:55:33.889Z,-9.6593125e-05,-0.0065999757,0.46485454,0.112457275,-0.06484985,9.806992,12.561035,11.160278,-57.44934,0.113727115,-0.061851498,9.805796,0.00016884506,-0.00059679896,0.00072956085,-9.1552734e-05,7.6293945e-05,-0.0001373291
2019-07-01T18:55:34.089Z,-0.00012781021,-0.006634343,0.4649869,0.11628723,-0.06341553,9.807709,12.660217,11.602783,-57.362366,0.11402986,-0.06272396,9.805786,0.0010607615,-0.0016340837,-0.00079631805,-3.0517578e-05,0.00012207031,-0.0002593994
2019-07-01T18:55:34.291Z,-0.000120731194,-0.0066423034,0.4649979,0.114608765,-0.062698364,9.803162,11.689758,11.46698,-57.351685,0.11423186,-0.06267506,9.805784,0.0011030734,-0.0007370338,-4.673004e-05,0.00021362305,0.00018310547,-0.0002593994
2019-07-01T18:55:34.492Z,-0.0001201896,-0.006630837,0.46496728,0.11413574,-0.06173706,9.807938,12.487793,11.222839,-56.82831,0.114039876,-0.06255714,9.805787,0.0003302768,0.0003523901,0.0005970001,-3.0517578e-05,0.00018310547,6.1035156e-05
2019-07-01T18:55:34.694Z,-0.000100366575,-0.0066248793,0.46492454,0.11390686,-0.06317139,9.810333,13.191223,10.836792,-57.08618,0.114120215,-0.062153097,9.805789,-2.0563602e-06,0.00091389194,0.0013551712,-3.0517578e-05,-4.5776367e-05,-7.6293945e-05
2019-07-01T18:55:34.899Z,-0.00012297844,-0.006631003,0.46497157,0.115097046,-0.062683105,9.806992,11.901855,10.902405,-58.00171,0.11401703,-0.06260763,9.805787,9.768456e-05,-0.0010252297,0.0005865097,3.0517578e-05,7.6293945e-05,0.00012207031
2019-07-01T18:55:35.108Z,-8.226892e-05,-0.006637999,0.4649338,0.11534119,-0.060302734,9.806503,12.5564575,11.012268,-57.177734,0.1145124,-0.061959684,9.805786,0.0010398254,0.00070529804,-0.00056648254,0.00015258789,1.5258789e-05,-0.0001373291
2019-07-01T18:55:35.295Z,-8.685948e-05,-0.006651279,0.4649747,0.11557007,-0.06341553,9.8033905,13.2369995,11.935425,-57.543945,0.114698246,-0.062165786,9.805782,0.0006365627,-0.0005291216,-0.0019760132,3.0517578e-05,7.6293945e-05,-0.0002593994
2019-07-01T18:55:35.496Z,-0.00011361887,-0.006683604,0.46509558,0.11581421,-0.06413269,9.804108,12.892151,11.402893,-57.637024,0.115006864,-0.062940925,9.805774,0.0010583028,-0.0014243796,-0.0022745132,-3.0517578e-05,0.00012207031,-0.0001373291
2019-07-01T18:55:35.715Z,-6.6518674e-05,-0.0066646207,0.46498144,0.11557007,-0.060546875,9.808182,12.324524,11.367798,-58.000183,0.11511492,-0.061935145,9.8057785,0.0011702329,0.0014046431,0.0015096664,0.00015258789,0.00024414062,-0.00019836426
2019-07-01T18:55:35.911Z,-6.5382315e-05,-0.0066298754,0.46488947,0.11366272,-0.062210083,9.805786,12.631226,11.021423,-57.781982,0.11452842,-0.06158665,9.805788,-0.00087260455,9.744614e-05,0.00084114075,0.00015258789,7.6293945e-05,-0.0001373291
2019-07-01T18:55:36.114Z,-7.530974e-05,-0.006646549,0.4649465,0.11677551,-0.062210083,9.806747,12.142944,10.919189,-58.084106,0.11472342,-0.061918452,9.805783,0.0015600398,-0.00077787787,-0.0005636215,3.0517578e-05,0.00030517578,0.0
2019-07-01T18:55:36.317Z,-7.65129e-05,-0.0066674184,0.46500248,0.11628723,-0.06436157,9.806274,12.675476,10.224915,-58.094788,0.11507089,-0.062136933,9.8057785,0.0009829253,-0.0012761466,0.00010967255,0.00021362305,7.6293945e-05,-0.00032043457
2019-07-01T18:55:36.527Z,-7.706095e-05,-0.0066390582,0.46492943,0.11294556,-0.06149292,9.807465,13.30719,11.798096,-58.25653,0.11457858,-0.06187834,9.805785,-0.00068309903,-0.00032559782,0.0011787415,0.00021362305,7.6293945e-05,-0.0002593994
2019-07-01T18:55:36.726Z,-0.0001178496,-0.0066466304,0.4650052,0.11341858,-0.06341553,9.80722,12.060547,10.839844,-57.795715,0.11433276,-0.06266543,9.805783,-0.000678584,-0.0014625713,-0.00048542023,-3.0517578e-05,-4.5776367e-05,-0.00019836426
2019-07-01T18:55:36.927Z,-0.00012315871,-0.006599241,0.46488914,0.11222839,-0.06364441,9.805542,11.781311,11.613464,-56.721497,0.11346971,-0.06231054,9.805796,-0.0012523904,0.00035067648,0.00046730042,9.1552734e-05,0.00012207031,-7.6293945e-05
2019-07-01T18:55:37.128Z,-0.00017013021,-0.00660534,0.46496958,0.11317444,-0.06317139,9.807465,12.922668,12.210083,-58.07953,0.11314159,-0.06319207,9.805794,-0.00020159036,-0.0018835664,-0.0009622574,3.0517578e-05,0.00012207031,-0.00019836426
2019-07-01T18:55:37.330Z,-7.76051e-05,-0.0066200234,0.46488065,0.11653137,-0.060775757,9.806274,12.832642,11.758423,-57.110596,0.114246525,-0.06170792,9.805791,0.002747573,0.0023720525,0.00078964233,0.00015258789,0.0001373291,-6.1035156e-05
2019-07-01T18:55:37.530Z,-0.00010335653,-0.0066027036,0.46487093,0.11437988,-0.062927246,9.8076935,11.680603,11.3220215,-57.832336,0.11371166,-0.061995916,9.805795,-0.00077661127,-0.0006967224,4.673004e-05,3.0517578e-05,7.6293945e-05,-6.1035156e-05
2019-07-01T18:55:37.732Z,-0.000110505374,-0.006651436,0.4650076,0.11653137,-0.062927246,9.807938,13.145447,11.558533,-56.863403,0.11448301,-0.06258205,9.805782,0.0020300224,-0.0012964681,0.0013008118,3.0517578e-05,0.00012207031,4.5776367e-05
2019-07-01T18:55:37.938Z,-8.391578e-05,-0.0066623227,0.46499938,0.11437988,-0.06413269,9.806992,12.809753,11.169434,-56.700134,0.1153018,-0.0621686,9.805775,-7.985532e-05,-0.00022607297,-0.0005378723,3.0517578e-05,7.6293945e-05,-0.00044250488
2019-07-01T18:55:38.141Z,-0.00012361341,-0.006668509,0.46507004,0.115097046,-0.06364441,9.806992,12.347412,11.7248535,-57.022095,0.114655435,-0.06297345,9.805778,-4.7922134e-05,-0.0011501759,-0.00019741058,-9.1552734e-05,0.00012207031,0.00012207031
2019-07-01T18:55:38.346Z,-0.0001474347,-0.006600988,0.46492705,0.11126709,-0.06364441,9.809616,12.95929,11.18927,-57.98645,0.11327602,-0.062752865,9.805796,-0.0020362511,-0.00040338188,0.0019292831,0.00021362305,0.00018310547,-0.00019836426
2019-07-01T18:55:38.549Z,-0.00014699483,-0.006603006,0.4649317,0.11462402,-0.060058594,9.80986,12.239075,11.13739,-57.21283,0.11331473,-0.06276422,9.805795,0.0005582124,-0.00038838387,0.0011310577,9.1552734e-05,0.00012207031,-0.00012207031
2019-07-01T18:55:38.754Z,-0.00011208926,-0.006567362,0.46479094,0.112701416,-0.06173706,9.80986,12.661743,11.677551,-57.49817,0.11302399,-0.061815128,9.805805,0.00012949854,0.0022493564,0.00042629242,-9.1552734e-05,0.00018310547,0.0
2019-07-01T18:55:38.950Z,-0.000117594296,-0.006591741,0.46486196,0.11366272,-0.062454224,9.806503,12.728882,11.088562,-56.10962,0.11339214,-0.062142055,9.805799,0.0014300421,-0.0007683486,-0.0009908676,3.0517578e-05,0.00018310547,-6.1035156e-05
2019-07-01T18:55:39.157Z,-0.00010080817,-0.006595868,0.46484965,0.11581421,-0.06341553,9.806976,12.185669,11.86676,-57.89337,0.1136177,-0.061886612,9.805797,0.0007370487,-6.564334e-05,-0.0009889603,0.00015258789,7.6293945e-05,0.00012207031
2019-07-01T18:55:39.362Z,-0.00011090284,-0.006592336,0.46485433,0.11341858,-0.061965942,9.806992,12.812805,11.395264,-57.409668,0.11346401,-0.062030304,9.805798,0.00040163845,-0.00063861534,0.0001411438,9.1552734e-05,0.00018310547,6.1035156e-05
2019-07-01T18:55:39.562Z,-9.5747404e-05,-0.006614911,0.46489227,0.11462402,-0.062927246,9.807709,12.243652,11.288452,-57.78656,0.11399152,-0.061977837,9.805792,0.0013331845,-0.00046742707,-0.0016679764,0.00015258789,7.6293945e-05,0.00012207031
2019-07-01T18:55:39.768Z,-8.949014e-05,-0.0066221408,0.46490246,0.11628723,-0.060531616,9.806992,12.588501,11.819458,-57.617188,0.11417339,-0.06193642,9.80579,0.00042062253,-0.00026566163,-0.00030994415,9.1552734e-05,1.5258789e-05,6.1035156e-05
2019-07-01T18:55:39.972Z,-7.635677e-05,-0.0066173235,0.46487188,0.11390686,-0.062210083,9.807465,13.124084,11.352539,-58.641052,0.11421163,-0.061660495,9.805791,0.0003886521,0.0004245378,0.0015420914,3.0517578e-05,7.6293945e-05,0.0
2019-07-01T18:55:40.265Z,-9.251389e-05,-0.006610749,0.46487698,0.11366272,-0.060058594,9.806747,13.453674,11.671448,-59.344482,0.1139498,-0.06188177,9.805793,0.00041056424,-0.0003177151,-0.0007247925,-3.0517578e-05,0.00024414062,6.1035156e-05
2019-07-01T18:55:40.380Z,-8.5888416e-05,-0.006597329,0.46483296,0.11437988,-0.06388855,9.806992,13.427734,11.012268,-59.10034,0.11378026,-0.061638705,9.805797,0.00034623593,0.0003796704,-0.0017681122,3.0517578e-05,0.00018310547,0.0
2019-07-01T18:55:40.584Z,-0.0001286767,-0.006617185,0.46494344,0.114852905,-0.06364441,9.808426,12.715149,11.102295,-57.91931,0.113727145,-0.06257695,9.805792,0.00038665533,-0.0015436634,0.0021772385,-9.1552734e-05,0.00012207031,-0.0001373291
2019-07-01T18:55:40.775Z,-9.160394e-05,-0.006607804,0.46486807,0.11437988,-0.060302734,9.80986,12.498474,10.305786,-60.565186,0.1139076,-0.06183798,9.805795,0.00066705793,0.0013248771,0.0020914078,3.0517578e-05,7.6293945e-05,-0.00050354004
2019-07-01T18:55:41.047Z,-0.00010914989,-0.0065933443,0.46485454,0.11341858,-0.0619812,9.805069,12.911987,10.702515,-61.332703,0.11349748,-0.06200908,9.805798,-0.000567168,-0.00068095326,-0.003235817,9.1552734e-05,7.6293945e-05,-0.0001373291
2019-07-01T18:55:41.184Z,-8.8017405e-05,-0.0065932106,0.46482515,0.112457275,-0.060775757,9.806992,13.105774,9.698486,-61.619568,0.11368988,-0.061637126,9.805798,0.0004338324,0.00062375143,-0.0005607605,3.0517578e-05,1.5258789e-05,-0.0001373291
2019-07-01T18:55:41.390Z,-8.6209395e-05,-0.006553723,0.4647199,0.11222839,-0.06149292,9.805313,14.189148,11.865234,-59.184265,0.11302797,-0.06123229,9.805807,-0.0010506362,-2.8003007e-05,-0.0008649826,0.00021362305,7.6293945e-05,-0.00044250488
2019-07-01T18:55:41.590Z,-6.733159e-05,-0.0065685976,0.46473268,0.11581421,-0.06317139,9.805786,13.381958,11.734009,-58.64868,0.11345746,-0.061041676,9.805804,0.001156427,-0.00021690875,0.00053977966,0.00015258789,7.6293945e-05,-0.0001373291
2019-07-01T18:55:41.793Z,-7.919289e-05,-0.006642744,0.46494195,0.11677551,-0.06317139,9.80603,12.353516,12.023926,-57.71637,0.11462227,-0.061950594,9.805785,0.0023769885,-0.0014621653,-0.000910759,-9.1552734e-05,1.5258789e-05,-6.1035156e-05
2019-07-01T18:55:41.992Z,-0.00010925909,-0.0066259615,0.4649396,0.11413574,-0.06317139,9.80722,12.872314,11.265564,-58.950806,0.11405686,-0.062319316,9.805789,-0.00064817816,-0.001090806,0.0008249283,9.1552734e-05,0.00012207031,0.00010681152
2019-07-01T18:55:42.211Z,-0.000106877065,-0.006639076,0.46497044,0.11366272,-0.062683105,9.805786,13.058472,11.485291,-57.325745,0.11430411,-0.062401526,9.805785,0.0007843822,-4.8033893e-05,-0.00024414062,-3.0517578e-05,7.6293945e-05,-6.1035156e-05
2019-07-01T18:55:42.404Z,-0.00014380143,-0.0066281245,0.4649927,0.11413574,-0.062927246,9.804352,13.011169,12.208557,-57.25403,0.11377565,-0.06294566,9.805788,-0.0006003827,-0.0011874959,-0.0016088486,3.0517578e-05,0.00012207031,0.00018310547
2019-07-01T18:55:42.607Z,-0.00011570239,-0.006633769,0.46496877,0.11653137,-0.062454224,9.808182,11.616516,11.680603,-57.60498,0.11413161,-0.062506154,9.805787,0.0011929646,0.0007698387,0.00037002563,3.0517578e-05,0.00012207031,0.00024414062
2019-07-01T18:55:42.815Z,-8.150849e-05,-0.006623708,0.46489558,0.112701416,-0.061264038,9.805313,12.956238,11.193848,-58.514404,0.11427386,-0.061811224,9.805789,0.00010418147,0.00079232454,8.2969666e-05,0.00015258789,-4.5776367e-05,-0.00019836426
2019-07-01T18:55:43.009Z,-0.0001032296,-0.0066356612,0.46495655,0.11341858,-0.0619812,9.806747,13.789368,11.834717,-58.644104,0.11427907,-0.06230526,9.805786,-0.0001501441,-0.0013354272,0.00084877014,9.1552734e-05,-4.5776367e-05,0.00024414062
2019-07-01T18:55:43.214Z,-0.00011244187,-0.0065858457,0.46483955,0.11294556,-0.060531616,9.805313,13.331604,12.307739,-57.92694,0.113338314,-0.06199596,9.8057995,-0.0018286556,0.0012210645,-0.00086688995,-0.00015258789,1.5258789e-05,0.00018310547
2019-07-01T18:55:43.420Z,-9.73606e-05,-0.0065747933,0.46479005,0.11366272,-0.06341553,9.80722,12.962341,11.187744,-57.684326,0.113287345,-0.06162698,9.805802,0.001085043,0.00061115995,0.0010137558,3.0517578e-05,0.00030517578,-6.1035156e-05
2019-07-01T18:55:43.674Z,-0.00010532148,-0.006585304,0.46482834,0.115097046,-0.06124878,9.804596,11.671448,11.102295,-57.725525,0.11339461,-0.061865944,9.8057995,0.00049476326,-0.0008312054,-0.00092315674,9.1552734e-05,7.6293945e-05,-0.0001373291
2019-07-01T18:55:43.823Z,-0.00011530938,-0.006599335,0.4648786,0.11413574,-0.06317139,9.806259,13.276672,10.914612,-57.15027,0.11354365,-0.062173743,9.805796,0.0005906224,0.0002086088,-0.00013637543,-0.00021362305,7.6293945e-05,0.0
2019-07-01T18:55:44.020Z,-0.00011755496,-0.006616668,0.4649268,0.11366272,-0.062927246,9.806992,13.059998,11.560059,-57.53784,0.11382075,-0.062376972,9.805791,0.0010255799,-0.00054667145,0.00086307526,3.0517578e-05,0.00012207031,-0.00038146973
2019-07-01T18:55:44.227Z,-9.1026974e-05,-0.0066133565,0.46488172,0.11581421,-0.06173706,9.80722,12.809753,11.3220215,-57.348633,0.1140083,-0.061880335,9.805792,0.001078777,0.00014868379,0.0005712509,0.00021362305,0.00018310547,-0.00038146973
2019-07-01T18:55:44.426Z,-8.193651e-05,-0.006618044,0.46488142,0.11581421,-0.062454224,9.80603,12.979126,11.553955,-57.536316,0.1141726,-0.061765186,9.805791,0.000679262,-0.0006884746,0.00014972687,0.00015258789,-4.5776367e-05,0.0
2019-07-01T18:55:44.637Z,-0.00012650041,-0.0066311313,0.46497673,0.11317444,-0.06173706,9.805069,12.670898,11.898804,-57.754517,0.11398677,-0.06267062,9.805787,-0.0005642921,-0.0014642179,-0.00085544586,-9.1552734e-05,-4.5776367e-05,-0.0002593994
2019-07-01T18:55:44.836Z,-6.351995e-05,-0.006600863,0.4648114,0.11437988,-0.060058594,9.805542,12.40387,11.300659,-57.791138,0.11404704,-0.061279718,9.805796,0.0010544956,0.0026530363,-9.6321106e-05,3.0517578e-05,0.00024414062,-0.0002593994
2019-07-01T18:55:45.039Z,-7.821998e-05,-0.006559623,0.46472427,0.11222839,-0.06149292,9.805542,12.696838,10.73761,-58.143616,0.113202944,-0.061147884,9.805806,-0.0005039796,-0.00034370646,0.0012016296,0.00015258789,0.00030517578,-0.0002593994
2019-07-01T18:55:45.237Z,-0.000105841726,-0.0065416675,0.46471548,0.112472534,-0.06341553,9.806259,12.916565,11.911011,-57.232666,0.11263999,-0.061462793,9.805811,-0.0006572604,-0.00074645504,-0.00015735626,3.0517578e-05,0.00012207031,0.0
2019-07-01T18:55:45.443Z,-9.918894e-05,-0.006593823,0.4648421,0.11628723,-0.061019897,9.80603,11.737061,10.813904,-57.56073,0.113597475,-0.061838876,9.805797,0.0019733235,-0.0008598864,-0.00042057037,3.0517578e-05,1.5258789e-05,0.00016784668
2019-07-01T18:55:45.649Z,-6.646211e-05,-0.006604345,0.46482453,0.11677551,-0.060775757,9.803864,13.447571,11.221313,-57.62329,0.11407978,-0.061364245,9.805795,0.0012503713,0.0013033785,-0.00060653687,-9.1552734e-05,7.6293945e-05,-6.1035156e-05
2019-07-01T18:55:45.852Z,-7.391771e-05,-0.0066502853,0.46495432,0.11413574,-0.06317139,9.806274,13.13324,11.343384,-57.435608,0.114800446,-0.061929367,9.805782,0.0010202453,-0.0014896616,-0.00040340424,9.1552734e-05,-0.00010681152,-0.00019836426
2019-07-01T18:55:46.054Z,-5.4397828e-05,-0.0066583194,0.46494842,0.114852905,-0.060775757,9.805069,13.208008,11.428833,-58.399963,0.115118355,-0.06166292,9.80578,0.00045698136,0.0006402023,0.00020980835,-3.0517578e-05,-4.5776367e-05,-0.00019836426
2019-07-01T18:55:46.255Z,-7.691134e-05,-0.0066142757,0.46486473,0.115097046,-0.062210083,9.80603,13.313293,10.124207,-58.444214,0.11415415,-0.061641414,9.805792,-0.0009798929,0.00014859065,0.0009403229,-3.0517578e-05,0.00024414062,-0.0001373291
2019-07-01T18:55:46.459Z,-2.955312e-05,-0.006633917,0.46485078,0.11581421,-0.058624268,9.805786,12.426758,11.734009,-57.24945,0.114927955,-0.06099632,9.805787,0.0011321157,0.0014098361,-0.0003271103,-3.0517578e-05,-0.00010681152,0.0
2019-07-01T18:55:46.663Z,-5.9356986e-05,-0.0066337287,0.46489123,0.11437988,-0.06317139,9.80484,12.625122,10.877991,-57.885742,0.114650145,-0.061517384,9.805787,-0.0002682209,-0.0004649125,-5.531311e-05,-0.00015258789,7.6293945e-05,-0.0002593994
2019-07-01T18:55:46.865Z,-7.587656e-05,-0.0066316156,0.46490842,0.11294556,-0.06149292,9.806259,12.332153,11.358643,-56.944275,0.11446162,-0.06178719,9.805787,-0.0003235638,-0.00019526109,-4.673004e-05,-9.1552734e-05,1.5258789e-05,-0.00019836426
2019-07-01T18:55:47.066Z,-0.00011091766,-0.0066436334,0.46498784,0.115097046,-0.0619812,9.808182,11.84082,11.3342285,-57.987976,0.11434516,-0.0625155,9.805784,0.00049714744,-0.00065009296,0.0022058487,-0.00021362305,0.00018310547,-6.1035156e-05
2019-07-01T18:55:47.275Z,-9.8485994e-05,-0.0066178422,0.46490365,0.11222839,-0.06341553,9.807709,12.658691,11.679077,-57.87506,0.114016645,-0.062053584,9.805791,-0.0010790005,0.0005649738,-0.0004415512,9.1552734e-05,-0.00010681152,-0.00019836426
2019-07-01T18:55:47.471Z,-8.562721e-05,-0.0066256626,0.46490633,0.11605835,-0.06149292,9.806747,13.311768,12.098694,-59.251404,0.114269495,-0.061901953,9.805789,0.0008119643,-0.00029968843,0.0012998581,0.00015258789,7.6293945e-05,-0.0001373291
2019-07-01T18:55:47.673Z,-6.10628e-05,-0.006619718,0.4648571,0.114852905,-0.060302734,9.80722,13.505554,11.018372,-59.251404,0.11439368,-0.061414845,9.805791,0.0009389296,0.00015541166,-0.0012130737,0.00021362305,0.00018310547,-6.1035156e-05
2019-07-01T18:55:47.884Z,-7.1775607e-06,-0.0066165063,0.46477473,0.11557007,-0.05934143,9.808426,12.930298,10.762024,-59.35669,0.11483482,-0.060439166,9.805791,0.00071923435,0.0018233284,0.0012674332,3.0517578e-05,-4.5776367e-05,-6.1035156e-05
2019-07-01T18:55:48.095Z,-2.9550478e-05,-0.006599221,0.46476048,0.11341858,-0.06173706,9.80722,12.863159,10.971069,-58.63037,0.1143317,-0.06066828,9.805796,-0.0014069527,-0.0008136034,0.0008459091,9.1552734e-05,-0.00010681152,6.1035156e-05
2019-07-01T18:55:48.282Z,-6.017063e-05,-0.0066434327,0.4649176,0.11628723,-0.06484985,9.804108,12.712097,11.103821,-58.21991,0.11480938,-0.06162341,9.805784,0.0007513091,-0.0022601075,-0.0019893646,9.1552734e-05,-4.5776367e-05,-0.00019836426
2019-07-01T18:55:48.482Z,-8.351904e-05,-0.0066837664,0.46505463,0.11462402,-0.062698364,9.805542,12.371826,10.643005,-58.226013,0.11528714,-0.062414467,9.805774,0.0009965003,-0.0009991154,-0.0010099411,-0.00015258789,1.5258789e-05,-0.0002593994
2019-07-01T18:55:48.690Z,-0.000103714214,-0.006668074,0.46504155,0.11462402,-0.062942505,9.805542,13.20343,11.280823,-58.055115,0.11483141,-0.06262028,9.805778,-0.00045297295,-0.00030617416,-0.00035953522,-3.0517578e-05,0.00012207031,-0.00032043457
2019-07-01T18:55:48.890Z,-0.000106793974,-0.0066691143,0.4650485,0.11534119,-0.062927246,9.80603,12.27417,10.195923,-57.78351,0.1148209,-0.06268415,9.805778,3.284961e-05,-0.00024355203,-0.00039291382,3.0517578e-05,1.5258789e-05,-1.5258789e-05
2019-07-01T18:55:49.090Z,-0.00012670412,-0.0066618924,0.46505708,0.11413574,-0.06413269,9.806992,13.298035,11.502075,-57.635498,0.11451329,-0.06296508,9.805779,-0.0001366213,-0.0004486814,0.0006933212,-3.0517578e-05,0.00012207031,0.0
2019-07-01T18:55:49.295Z,-0.00012031587,-0.006668539,0.46506557,0.11653137,-0.06317139,9.806274,12.492371,11.447144,-57.53784,0.114686355,-0.06291589,9.805778,0.0006488785,-0.00025223196,0.0004606247,9.1552734e-05,7.6293945e-05,0.00012207031
2019-07-01T18:55:49.502Z,-0.00013320637,-0.0066741793,0.46509796,0.11581421,-0.062210083,9.806747,12.1521,11.213684,-58.403015,0.1146644,-0.063195355,9.805777,0.0008988306,2.7731061e-05,0.00014209747,-0.00015258789,0.00024414062,-1.5258789e-05
2019-07-01T18:55:49.701Z,-9.22747e-05,-0.006651658,0.4649831,0.1138916,-0.059814453,9.804825,13.226318,11.639404,-57.225037,0.114654854,-0.062264364,9.805782,0.0011529475,0.0022092536,-7.1525574e-05,-9.1552734e-05,0.00030517578,-0.0001373291
2019-07-01T18:55:49.928Z,-9.607924e-05,-0.006637773,0.4649522,0.11581421,-0.0619812,9.807709,13.250732,12.3046875,-57.847595,0.114381246,-0.0621998,9.805786,-0.00025443733,0.00046759844,0.00043964386,-9.1552734e-05,7.6293945e-05,-0.0002593994
2019-07-01T18:55:50.110Z,-0.000109039414,-0.006643382,0.46498463,0.11294556,-0.06317139,9.809143,12.4938965,11.672974,-58.473206,0.11435816,-0.062480174,9.805784,1.0147691e-05,-0.0014020465,0.00044345856,0.00021362305,1.5258789e-05,-0.00032043457
2019-07-01T18:55:50.315Z,-0.000113775764,-0.006636639,0.46497357,0.11557007,-0.06341553,9.808655,12.759399,12.124634,-57.86438,0.11419867,-0.062499497,9.805786,0.00040274858,-0.00041538477,0.0018892288,9.1552734e-05,0.00018310547,-0.0002593994
2019-07-01T18:55:50.512Z,-8.373808e-05,-0.0066267233,0.46490648,0.11366272,-0.06149292,9.808655,12.564087,11.309814,-57.946777,0.11430513,-0.061878845,9.805789,0.00027743727,0.0011172742,0.00061798096,3.0517578e-05,1.5258789e-05,-6.1035156e-05
2019-07-01T18:55:50.725Z,-5.7528716e-05,-0.006623313,0.4648616,0.11628723,-0.060546875,9.805069,13.645935,12.110901,-57.676697,0.11448801,-0.061386835,9.80579,0.00083010644,0.001340609,-0.0005455017,-9.1552734e-05,0.00012207031,0.0
2019-07-01T18:55:51.024Z,-0.00015107027,-0.0066240863,0.46499217,0.11317444,-0.06652832,9.806747,13.371277,11.515808,-58.618164,0.11363928,-0.063034974,9.805789,-0.00094319135,-0.0027732253,-0.0009355545,3.0517578e-05,0.00018310547,-6.1035156e-05
2019-07-01T18:55:51.138Z,-0.0001519615,-0.006648194,0.46505615,0.11628723,-0.061965942,9.805313,13.874817,10.470581,-60.51178,0.11404514,-0.06327855,9.805782,0.001518473,-0.0010794476,0.00016593933,0.00015258789,0.00018310547,-6.1035156e-05
2019-07-01T18:55:51.319Z,-0.00013181147,-0.006634528,0.46499288,0.1138916,-0.06173706,9.808426,12.953186,11.044312,-58.016968,0.11399616,-0.06279589,9.805786,0.00060456246,0.0008343756,0.00026988983,3.0517578e-05,0.00018310547,-0.0002593994
2019-07-01T18:55:51.520Z,-0.000112214984,-0.0066108117,0.46490422,0.11413574,-0.0619812,9.808899,12.879944,11.413574,-59.144592,0.11376936,-0.062227953,9.805794,-0.0006034523,0.0009921826,0.0027341843,3.0517578e-05,-4.5776367e-05,-0.00019836426
2019-07-01T18:55:51.727Z,-0.00012434447,-0.006642168,0.4650025,0.114852905,-0.062698364,9.804825,13.020325,11.140442,-60.264587,0.11419623,-0.06273716,9.805784,0.0011289492,-0.00089845806,-0.0013723373,-3.0517578e-05,7.6293945e-05,-0.0001373291
2019-07-01T18:55:51.930Z,-7.516718e-05,-0.006610781,0.46485323,0.112701416,-0.061019897,9.803879,13.35907,11.297607,-58.96454,0.11411017,-0.061577782,9.805793,0.00027024,0.0019919276,-0.0028295517,9.1552734e-05,0.00012207031,0.00018310547
2019-07-01T18:55:52.134Z,-0.00011563923,-0.0065957042,0.4648696,0.11413574,-0.06341553,9.806503,13.68866,11.77063,-60.691833,0.113478236,-0.062145215,9.805797,-0.00078193843,-0.0010233708,0.0009813309,-3.0517578e-05,0.00012207031,0.0
2019-07-01T18:55:52.339Z,-0.000107867825,-0.0066170804,0.46491456,0.11534119,-0.06173706,9.805542,12.820435,11.921692,-59.49402,0.113917105,-0.06221095,9.805791,0.0007016286,-0.00048452616,1.335144e-05,9.1552734e-05,-4.5776367e-05,0.0
2019-07-01T18:55:52.541Z,-0.000103553924,-0.006596049,0.46485388,0.11294556,-0.062927246,9.807465,13.139343,11.717224,-58.56781,0.11359551,-0.061936483,9.805797,-0.00017853826,0.00067332014,-0.0006227493,-3.0517578e-05,0.00012207031,6.1035156e-05
2019-07-01T18:55:52.747Z,-9.093429e-05,-0.006608117,0.46486795,0.115097046,-0.0619812,9.806259,13.371277,11.286926,-57.380676,0.11391914,-0.061829187,9.805794,0.0009336099,-0.00038081035,-0.00026512146,0.00015258789,7.6293945e-05,-0.00019836426
2019-07-01T18:55:52.944Z,-0.000103739556,-0.006617929,0.4649111,0.11413574,-0.061965942,9.806992,13.139343,11.639404,-58.128357,0.11396972,-0.062146556,9.805791,0.0004035458,-0.00053294376,0.0011043549,-3.0517578e-05,7.6293945e-05,-0.00019836426
2019-07-01T18:55:53.154Z,-8.243031e-05,-0.00661327,0.46486968,0.11366272,-0.060058594,9.804596,13.35907,11.148071,-58.31299,0.11408602,-0.061728716,9.805792,4.5329332e-05,0.00023817271,-0.00038337708,0.00015258789,-4.5776367e-05,-0.0002593994
2019-07-01T18:55:53.351Z,-6.73536e-05,-0.006637273,0.46491143,0.11581421,-0.062698364,9.806992,13.594055,10.865784,-57.551575,0.11463736,-0.061691172,9.805786,0.0006971061,-4.2274594e-05,0.0003862381,3.0517578e-05,-0.00010681152,6.1035156e-05
2019-07-01T18:55:53.554Z,-9.412468e-05,-0.0066187275,0.46489996,0.11294556,-0.062927246,9.806259,13.018799,10.609436,-57.50122,0.11407205,-0.06198545,9.805791,-0.00041749328,-0.00046433508,0.00025463104,-3.0517578e-05,0.00018310547,0.00018310547
2019-07-01T18:55:53.762Z,-0.00012898869,-0.006591367,0.46487665,0.112701416,-0.062210083,9.80603,12.875366,10.960388,-57.199097,0.11328071,-0.062338382,9.805798,-0.0013008341,-0.00035757571,-0.0006341934,-9.1552734e-05,7.6293945e-05,-0.00019836426
2019-07-01T18:55:53.966Z,-6.139278e-05,-0.006598573,0.46480253,0.11677551,-0.05909729,9.80603,12.397766,10.923767,-56.507874,0.114027284,-0.061220758,9.805796,0.0017840117,0.0023539178,-0.0002603531,-3.0517578e-05,7.6293945e-05,-1.5258789e-05
2019-07-01T18:55:54.164Z,-7.0808244e-05,-0.0066462806,0.46493962,0.1138916,-0.06149292,9.803879,13.787842,11.531067,-57.044983,0.1147603,-0.061836954,9.805784,0.0008123964,-0.0013358444,-0.00096416473,3.0517578e-05,-0.00016784668,0.00018310547
2019-07-01T18:55:54.367Z,-3.866751e-05,-0.006639631,0.46487817,0.11677551,-0.06341553,9.805313,13.267517,12.591553,-57.336426,0.11494218,-0.06121024,9.805785,0.00063801557,0.00042909384,-0.0012865067,0.00021362305,7.6293945e-05,-0.00019836426
2019-07-01T18:55:54.570Z,-4.008966e-05,-0.006650815,0.46490923,0.114608765,-0.060531616,9.806992,13.09967,12.434387,-57.28607,0.11512125,-0.061340947,9.805782,-2.7798116e-05,-0.0008672215,0.0023374557,0.00015258789,-0.00010681152,-6.1035156e-05
2019-07-01T18:55:54.769Z,-4.9871727e-05,-0.006599619,0.46478942,0.11198425,-0.059814453,9.808426,13.131714,11.346436,-57.585144,0.11415138,-0.061028536,9.805796,-0.0014587343,0.0005016066,0.00091552734,3.0517578e-05,0.00012207031,0.0
2019-07-01T18:55:54.975Z,-3.1702548e-05,-0.0065950495,0.46475258,0.11677551,-0.062454224,9.8022,13.444519,11.224365,-58.076477,0.1142402,-0.060666613,9.805798,0.0008593723,0.0008508153,-0.0019454956,-3.0517578e-05,0.00018310547,-6.1035156e-05
2019-07-01T18:55:55.177Z,-4.8847614e-05,-0.006647479,0.46491256,0.11534119,-0.062698364,9.804581,11.952209,12.072754,-58.06732,0.11498324,-0.06146304,9.805783,0.0013074353,-0.0017101802,-0.00017738342,3.0517578e-05,-4.5776367e-05,-1.5258789e-05
2019-07-01T18:55:55.381Z,-7.052146e-05,-0.006646673,0.46494025,0.11317444,-0.060775757,9.80603,11.975098,10.762024,-58.184814,0.11476968,-0.06183563,9.805783,-0.0003819391,-0.00086696446,-0.00076007843,3.0517578e-05,1.5258789e-05,-0.00019836426
2019-07-01T18:55:55.578Z,-5.5464156e-05,-0.0066248076,0.46486267,0.11462402,-0.06173706,9.806992,12.767029,12.042236,-56.52008,0.11453271,-0.061364744,9.805789,-0.00039727986,0.0008180402,0.0014047623,3.0517578e-05,1.5258789e-05,6.1035156e-05
2019-07-01T18:55:55.790Z,-7.670645e-05,-0.0066270684,0.46489772,0.11677551,-0.06149292,9.807465,11.669922,10.951233,-56.92749,0.11437585,-0.06175876,9.805789,-4.5374036e-06,-0.00044669956,0.001414299,-9.1552734e-05,7.6293945e-05,-6.1035156e-05
2019-07-01T18:55:55.989Z,-6.5975175e-05,-0.0066758734,0.46501,0.117004395,-0.06388855,9.807465,12.857056,12.191772,-56.344604,0.115313254,-0.062032048,9.805776,0.0021706894,-0.000661619,-1.4305115e-05,3.0517578e-05,7.6293945e-05,6.1035156e-05
2019-07-01T18:55:56.186Z,-6.946258e-05,-0.006705025,0.4650906,0.11581421,-0.06173706,9.804352,13.314819,11.86676,-57.485962,0.11578191,-0.062369023,9.805768,0.00074632466,-0.00055652857,-0.0009651184,-3.0517578e-05,-4.5776367e-05,-0.0001373291
2019-07-01T18:55:56.394Z,-7.1291826e-05,-0.006691012,0.4650567,0.114852905,-0.062210083,9.810333,13.092041,12.214661,-57.17926,0.11552432,-0.062268525,9.805772,-0.00019844621,6.66976e-05,0.0020713806,3.0517578e-05,7.6293945e-05,-7.6293945e-05
2019-07-01T18:55:56.597Z,-5.731125e-05,-0.006659657,0.4649559,0.112457275,-0.061019897,9.809143,12.771606,10.671997,-58.613586,0.11511449,-0.06172668,9.805779,-0.00051184744,0.00096238405,0.0010538101,3.0517578e-05,7.6293945e-05,6.1035156e-05
2019-07-01T18:55:56.797Z,-6.779211e-05,-0.0065941024,0.4647997,0.112701416,-0.06124878,9.805069,13.618469,11.451721,-57.733154,0.11389152,-0.061290767,9.805798,-0.0021662936,0.0005230233,-0.0010490417,9.1552734e-05,7.6293945e-05,-6.1035156e-05
2019-07-01T18:55:57.011Z,-7.840949e-05,-0.00659405,0.46481413,0.114608765,-0.06149292,9.807465,13.059998,11.560059,-57.61261,0.11379281,-0.061476517,9.805797,8.7060034e-05,-0.0007272251,-0.00054836273,9.1552734e-05,7.6293945e-05,-0.0001373291
2019-07-01T18:55:57.205Z,-9.502915e-05,-0.006626837,0.4649223,0.11413574,-0.06317139,9.806747,12.4053955,11.297607,-57.640076,0.11420303,-0.062077977,9.805788,0.0013487265,-0.0020447597,-0.00014019012,0.00015258789,0.00030517578,-0.0002593994
2019-07-01T18:55:57.409Z,-7.7231634e-05,-0.0066100974,0.4648543,0.114608765,-0.06364441,9.806503,13.446045,11.222839,-57.84912,0.11407941,-0.061607536,9.805793,-0.00067296624,0.00012117252,-0.0010499954,0.00021362305,-0.00010681152,-6.1035156e-05
2019-07-01T18:55:57.611Z,-8.577355e-05,-0.006669857,0.46502155,0.11557007,-0.062927246,9.80722,12.571716,11.532593,-58.20465,0.11502742,-0.062322445,9.805778,0.0014882013,-0.00155757,0.00057315826,3.0517578e-05,-0.00010681152,-0.0001373291
2019-07-01T18:55:57.818Z,-9.207405e-05,-0.006650378,0.4649795,0.11534119,-0.062698364,9.804825,13.052368,11.489868,-58.155823,0.11463471,-0.062248737,9.805782,-0.00073643774,0.00051634386,-0.0012044907,-9.1552734e-05,1.5258789e-05,0.00018310547
2019-07-01T18:55:58.020Z,-8.978407e-05,-0.0066490695,0.46497294,0.115097046,-0.060531616,9.805313,12.110901,11.933899,-57.4234,0.114633344,-0.0621962,9.805783,0.000458844,-1.1246651e-05,-0.0006418228,3.0517578e-05,0.00012207031,-6.1035156e-05
2019-07-01T18:55:58.221Z,-7.800269e-05,-0.006650744,0.4649611,0.11534119,-0.06317139,9.806747,12.167358,11.352539,-57.315063,0.11477068,-0.062005363,9.805782,0.000566259,2.6453286e-05,-0.00011444092,9.1552734e-05,7.6293945e-05,-6.1035156e-05
2019-07-01T18:55:58.424Z,-0.00010831752,-0.0066396673,0.46497396,0.11413574,-0.06149292,9.806747,12.715149,11.100769,-57.76825,0.114300996,-0.062432386,9.805785,-0.00064291805,-0.00026344508,7.6293945e-05,-0.00015258789,7.6293945e-05,6.1035156e-05
2019-07-01T18:55:58.627Z,-8.823281e-05,-0.0066396384,0.46494627,0.11557007,-0.06341553,9.804108,12.626648,11.026001,-58.384705,0.1144856,-0.0620798,9.805785,0.0010775849,0.00034647062,0.00037288666,9.1552734e-05,0.00018310547,-7.6293945e-05
2019-07-01T18:55:58.830Z,-0.00010383318,-0.0066450057,0.46498168,0.11341858,-0.06149292,9.808655,13.162231,12.001038,-57.302856,0.11443404,-0.062404208,9.805784,-5.596131e-05,-0.0002931729,-0.000869751,-9.1552734e-05,1.5258789e-05,-6.1035156e-05
2019-07-01T18:55:59.034Z,-8.577572e-05,-0.0066338885,0.46492794,0.114852905,-0.062210083,9.806503,12.733459,11.61499,-58.268738,0.11440946,-0.061982334,9.805787,0.00043474883,-0.00022303686,0.0011758804,0.0002746582,0.00012207031,-1.5258789e-05
2019-07-01T18:55:59.239Z,-6.1033155e-05,-0.0066422895,0.4649158,0.11628723,-0.06124878,9.804352,12.887573,11.251831,-57.141113,0.1147818,-0.061627734,9.805785,0.0010302886,0.00013595447,-0.0011415482,0.00015258789,7.6293945e-05,0.00018310547
2019-07-01T18:55:59.435Z,-5.101456e-05,-0.0066426545,0.464903,0.114852905,-0.062927246,9.809143,13.478088,12.031555,-58.366394,0.11488037,-0.06145543,9.805784,0.00067888945,0.00044130906,0.0014753342,-3.0517578e-05,0.00012207031,-0.0002593994
2019-07-01T18:55:59.656Z,-9.1665344e-05,-0.0066902097,0.4650826,0.11581421,-0.06317139,9.805786,12.4435425,10.427856,-58.04596,0.115322724,-0.06261832,9.805772,0.00023532659,-0.002453886,0.0001821518,3.0517578e-05,-0.00016784668,-0.00019836426
2019-07-01T18:55:59.844Z,-9.1597496e-05,-0.0066304193,0.46492693,0.11341858,-0.060531616,9.804108,12.306213,11.079407,-58.58612,0.11429621,-0.062051658,9.805788,-0.0011250079,0.0010335147,-0.0014696121,3.0517578e-05,0.00024414062,0.00018310547
2019-07-01T18:56:00.046Z,-8.091054e-05,-0.006602349,0.4648392,0.11294556,-0.062698364,9.804825,12.242126,11.288452,-57.788086,0.113912374,-0.06159883,9.805795,-0.0007289052,0.00057405233,-0.0020999908,9.1552734e-05,1.5258789e-05,0.00018310547
2019-07-01T18:56:00.247Z,-0.000103770406,-0.006593723,0.46484813,0.11294556,-0.062210083,9.809372,12.321472,11.29303,-57.713318,0.113553554,-0.0619183,9.805798,-0.00038690865,-0.0010046959,0.0029010773,9.1552734e-05,7.6293945e-05,0.00012207031
2019-07-01T18:56:00.444Z,-8.7145425e-05,-0.0065709464,0.464766,0.11294556,-0.05958557,9.806992,12.57782,11.526489,-57.29828,0.11331534,-0.06141144,9.805803,-0.00087329,0.0008880757,0.0013046265,3.0517578e-05,-0.00010681152,0.0
2019-07-01T18:56:00.650Z,-9.241784e-05,-0.0065929214,0.46483046,0.11437988,-0.062454224,9.808655,12.882996,11.106873,-57.019043,0.11364437,-0.061711583,9.805798,0.0009602159,-0.00048794225,0.00070667267,-3.0517578e-05,7.6293945e-05,-1.5258789e-05
2019-07-01T18:56:00.857Z,-9.29039e-05,-0.006538063,0.4646883,0.10958862,-0.060058594,9.805069,12.532043,12.322998,-57.435608,0.11269719,-0.061201796,9.805812,-0.001198627,0.0011500865,-0.0011281967,-3.0517578e-05,0.00018310547,0.00012207031
2019-07-01T18:56:01.057Z,-8.652232e-05,-0.0065477933,0.46470487,0.11413574,-0.06413269,9.804825,12.669373,11.669922,-56.443787,0.11292318,-0.061181765,9.805809,0.00024929643,-0.0003100969,-0.001871109,9.1552734e-05,-4.5776367e-05,-0.00019836426
2019-07-01T18:56:01.261Z,-0.000102174396,-0.006559444,0.4647567,0.112701416,-0.061019897,9.808426,13.449097,11.3723755,-58.348083,0.11297925,-0.061566394,9.805806,-0.00075758994,-0.0013571829,0.00082969666,0.00015258789,-0.00022888184,0.00012207031
2019-07-01T18:56:01.467Z,-0.00010723165,-0.006610143,0.46489564,0.11557007,-0.06341553,9.808899,12.371826,12.387085,-57.341003,0.113803774,-0.06213421,9.805793,0.0012701377,-0.001741711,0.0027914047,0.00015258789,-0.00010681152,0.0
2019-07-01T18:56:01.666Z,-0.00011075991,-0.0065942365,0.46485907,0.112472534,-0.061264038,9.805069,12.651062,11.3845825,-57.406616,0.11349797,-0.062045753,9.805797,-0.000808157,-0.00015798956,-0.0019741058,9.1552734e-05,-4.5776367e-05,0.00012207031
2019-07-01T18:56:01.870Z,-5.364535e-05,-0.006634696,0.4648859,0.11653137,-0.062210083,9.807938,13.1866455,10.839844,-57.69043,0.11471939,-0.061426334,9.805787,0.0022715256,0.0008866787,0.00028133392,9.1552734e-05,-4.5776367e-05,6.1035156e-05
2019-07-01T18:56:02.071Z,-9.895214e-05,-0.006624476,0.46492156,0.11437988,-0.06388855,9.806992,12.4938965,11.521912,-57.673645,0.114126325,-0.062124476,9.805789,-0.0007204041,-0.001284156,-0.0001296997,-3.0517578e-05,0.00012207031,-0.0001373291
2019-07-01T18:56:02.276Z,-8.4193074e-05,-0.0066336812,0.46492523,0.114852905,-0.059814453,9.80722,13.201904,11.282349,-58.27942,0.11442048,-0.06195261,9.805787,0.00065781176,-1.8436462e-05,0.0010309219,9.1552734e-05,1.5258789e-05,-6.1035156e-05
2019-07-01T18:56:02.478Z,-6.102637e-05,-0.0065977983,0.4648,0.11390686,-0.061965942,9.804825,13.227844,11.637878,-56.92444,0.11401735,-0.06120701,9.805797,-0.0003624186,0.00043543428,-0.0018701553,0.0002746582,0.00012207031,-0.00019836426
2019-07-01T18:56:02.680Z,-6.091433e-05,-0.0065955394,0.46479398,0.11581421,-0.062454224,9.805069,13.192749,10.986328,-57.810974,0.11397956,-0.061183695,9.805797,0.0006240085,-0.00030643865,-0.00045681,9.1552734e-05,0.00018310547,-6.1035156e-05
2019-07-01T18:56:02.885Z,-5.6035435e-05,-0.006636906,0.46489492,0.11462402,-0.05958557,9.8029175,12.892151,11.477661,-57.850647,0.11473534,-0.061489157,9.805786,0.001081869,-0.00072253495,-0.0014219284,3.0517578e-05,-0.00010681152,-6.1035156e-05
2019-07-01T18:56:03.087Z,-2.9967396e-05,-0.0065982365,0.4647585,0.114608765,-0.06124878,9.805542,14.183044,11.489868,-57.824707,0.11431095,-0.060666293,9.805797,-0.00016200542,0.00060068816,-0.0017461777,0.0002746582,0.00018310547,6.1035156e-05
2019-07-01T18:56:03.291Z,-2.6050086e-05,-0.0065962374,0.4647479,0.11151123,-0.060775757,9.804825,12.554932,11.090088,-57.765198,0.11431266,-0.060578674,9.805797,7.326901e-05,4.3850392e-05,0.0012254715,3.0517578e-05,1.5258789e-05,-0.0001373291
2019-07-01T18:56:03.487Z,-0.0001140058,-0.006570901,0.4648028,0.11366272,-0.065322876,9.807938,12.350464,12.025452,-58.016968,0.11306712,-0.06188217,9.805803,-0.0010778904,-0.002726268,0.0001707077,3.0517578e-05,0.00036621094,-1.5258789e-05
2019-07-01T18:56:03.691Z,-8.7301836e-05,-0.0065845847,0.46480173,0.1138916,-0.06124878,9.805069,12.886047,11.407471,-58.239746,0.11354825,-0.061543055,9.8057995,0.0017780885,-0.00019422919,2.193451e-05,9.1552734e-05,1.5258789e-05,-0.0002593994
2019-07-01T18:56:03.898Z,-0.0001272487,-0.00657108,0.46482146,0.115097046,-0.065093994,9.810806,12.966919,11.33728,-58.10852,0.11294819,-0.06211615,9.805802,-1.1533499e-05,-0.0010503456,0.0016069412,-3.0517578e-05,0.00030517578,-0.0002593994
2019-07-01T18:56:04.100Z,-0.000104886036,-0.0065947985,0.46485245,0.114852905,-0.06149292,9.804596,11.767578,11.474609,-57.65381,0.11356175,-0.06194803,9.805797,0.0015246645,0.00021677464,0.00027656555,3.0517578e-05,7.6293945e-05,0.0
2019-07-01T18:56:04.307Z,-0.00011849589,-0.0066167316,0.46492827,0.114608765,-0.062454224,9.806274,11.924744,11.184692,-56.58722,0.11381317,-0.06239408,9.805791,0.0007884577,-0.00077339634,-0.0006198883,-3.0517578e-05,7.6293945e-05,-6.1035156e-05
2019-07-01T18:56:04.510Z,-8.390668e-05,-0.006603271,0.4648457,0.11222839,-0.060775757,9.806976,11.878967,10.388184,-57.87964,0.11390061,-0.0616601,9.805795,0.00023040175,0.00041388348,-0.000415802,0.0002746582,1.5258789e-05,6.1035156e-05
2019-07-01T18:56:04.709Z,-0.000111109686,-0.0065846844,0.4648347,0.11390686,-0.062927246,9.808655,12.852478,10.447693,-57.151794,0.11333063,-0.061961617,9.8057995,-0.0006452352,-0.001201015,0.0019578934,0.00015258789,0.00012207031,6.1035156e-05
2019-07-01T18:56:04.915Z,-8.265481e-05,-0.0065750903,0.46477062,0.11390686,-0.06173706,9.8033905,13.389587,11.575317,-56.793213,0.11342791,-0.061371822,9.805802,0.00047299266,0.0013164505,-0.0017366409,-3.0517578e-05,7.6293945e-05,0.00018310547
2019-07-01T18:56:05.117Z,-0.000104903906,-0.006617659,0.464912,0.11557007,-0.062927246,9.809372,13.487244,12.020874,-57.009888,0.11395435,-0.062164426,9.805791,0.0011293739,-0.0009996966,0.001244545,-0.00015258789,1.5258789e-05,0.00012207031
2019-07-01T18:56:05.318Z,-8.358562e-05,-0.0066373716,0.464934,0.11534119,-0.060058594,9.806992,13.372803,11.436462,-58.029175,0.11448949,-0.06197685,9.805786,0.0015515089,0.00049332157,0.0006656647,-3.0517578e-05,0.00012207031,0.00010681152
2019-07-01T18:56:05.525Z,-0.00010618295,-0.006624519,0.4649316,0.11294556,-0.06317139,9.806503,12.561035,11.160278,-57.44934,0.114060424,-0.062251717,9.805789,-0.00040738285,-0.00019722804,-0.0013074875,-9.1552734e-05,0.00012207031,-0.00019836426
2019-07-01T18:56:05.724Z,-9.946467e-05,-0.0065971995,0.46485126,0.11413574,-0.060775757,9.807938,12.675476,12.045288,-57.800293,0.11365296,-0.06187563,9.805797,-0.0009717867,0.00014959276,0.0018434525,0.00015258789,-4.5776367e-05,-6.1035156e-05
2019-07-01T18:56:05.927Z,-8.5737964e-05,-0.0066216732,0.4648961,0.11413574,-0.060775757,9.803879,13.171387,10.627747,-58.563232,0.11419993,-0.06186618,9.80579,0.0013621226,0.0013236441,-0.0021266937,-0.00033569336,7.6293945e-05,-6.1035156e-05
2019-07-01T18:56:06.128Z,-6.134547e-05,-0.00660727,0.4648251,0.11677551,-0.060302734,9.807938,12.797546,11.257935,-58.647156,0.11417717,-0.06130213,9.805794,0.0006657317,0.0007758811,0.00033855438,9.1552734e-05,0.00018310547,6.1035156e-05
2019-07-01T18:56:06.330Z,-4.6055895e-05,-0.006612837,0.4648186,0.11437988,-0.06124878,9.804108,12.628174,11.253357,-59.47113,0.11441367,-0.06108653,9.805792,0.0011552647,0.00031138211,-0.001537323,3.0517578e-05,0.00018310547,-0.0002593994
2019-07-01T18:56:06.541Z,-5.5155342e-05,-0.006607026,0.46481597,0.114852905,-0.060546875,9.804596,13.529968,11.299133,-57.611084,0.11423,-0.061191235,9.805794,-8.8483095e-05,-0.0007930584,-0.0011901855,0.00015258789,7.6293945e-05,-6.1035156e-05
2019-07-01T18:56:06.740Z,-4.133251e-05,-0.0065967524,0.46477023,0.11366272,-0.062454224,9.80603,13.270569,11.071777,-58.70514,0.114180766,-0.06085164,9.805797,0.00020117313,0.00031892583,0.0006389618,9.1552734e-05,7.6293945e-05,-7.6293945e-05
2019-07-01T18:56:06.938Z,-4.9083308e-05,-0.006617941,0.46483603,0.11557007,-0.059814453,9.80484,13.198853,10.9817505,-57.05719,0.1144735,-0.061187893,9.805791,0.0006323159,-0.0003097169,-0.0011606216,-9.1552734e-05,1.5258789e-05,6.1035156e-05
2019-07-01T18:56:07.154Z,-5.7449834e-05,-0.0066331774,0.46488717,0.11462402,-0.062927246,9.805313,12.898254,11.547852,-57.458496,0.114658244,-0.061478715,9.805787,0.00043906271,-1.4342368e-05,0.001455307,-0.00015258789,1.5258789e-05,-0.0002593994
2019-07-01T18:56:07.347Z,-8.7147324e-05,-0.0066330824,0.46492773,0.1138916,-0.06317139,9.808426,13.320923,12.0147705,-57.684326,0.114382975,-0.061998773,9.805787,-0.0002526641,-0.001413811,0.00096797943,9.1552734e-05,7.6293945e-05,-0.00032043457
2019-07-01T18:56:07.548Z,-9.1157235e-05,-0.00660311,0.46485522,0.11366272,-0.060058594,9.805542,13.17749,10.847473,-58.895874,0.11383105,-0.06178577,9.805795,5.7920814e-05,0.00029427186,-0.0004787445,3.0517578e-05,0.00030517578,-0.00038146973
2019-07-01T18:56:07.756Z,-7.989712e-05,-0.006575324,0.46476743,0.11341858,-0.06149292,9.805542,12.559509,11.390686,-58.91266,0.11345732,-0.061325654,9.805802,-0.00027298182,0.0007969327,0.0004825592,3.0517578e-05,0.00012207031,-6.1035156e-05
2019-07-01T18:56:07.955Z,-7.1216076e-05,-0.006542754,0.46467072,0.112701416,-0.060302734,9.807938,13.33313,10.638428,-58.56781,0.11297752,-0.06086566,9.80581,-3.2663345e-05,0.0005633049,-0.0008020401,9.1552734e-05,0.00024414062,-0.00019836426
2019-07-01T18:56:08.155Z,-6.5197164e-05,-0.0065465523,0.46467236,0.115097046,-0.061264038,9.807465,12.716675,11.251831,-58.418274,0.11309823,-0.060795955,9.805809,0.0005539283,-0.00046240166,0.0017004013,0.00015258789,7.6293945e-05,-6.1035156e-05
2019-07-01T18:56:08.364Z,-8.0681326e-05,-0.006580065,0.46478087,0.115097046,-0.06413269,9.806259,13.230896,10.195923,-58.955383,0.11353156,-0.061384205,9.8058,0.002272725,-0.0015376769,-0.00015449524,9.1552734e-05,0.00036621094,-0.00019836426
2019-07-01T18:56:08.561Z,-0.00011862588,-0.0066352105,0.46497652,0.117004395,-0.06484985,9.806976,12.815857,11.5448,-57.90863,0.114129424,-0.06257106,9.805786,0.001671508,-0.00202737,0.00053691864,-9.1552734e-05,0.00012207031,-6.1035156e-05
2019-07-01T18:56:08.766Z,-0.00016524454,-0.0066499044,0.46507886,0.112457275,-0.06436157,9.80722,12.7456665,11.756897,-57.635498,0.11395206,-0.06352771,9.805782,-0.0003010109,-0.0020328015,-0.00028324127,3.0517578e-05,1.5258789e-05,-7.6293945e-05
2019-07-01T18:56:08.970Z,-0.00012775947,-0.006618118,0.4649446,0.11341858,-0.06317139,9.806992,11.758423,11.253357,-57.621765,0.11375162,-0.06256968,9.805791,-0.000103093684,0.0015575886,0.00045013428,9.1552734e-05,7.6293945e-05,-6.1035156e-05
2019-07-01T18:56:09.204Z,-0.00012905979,-0.006598347,0.46489492,0.11294556,-0.061019897,9.806747,13.456726,11.517334,-58.16803,0.113399975,-0.062405597,9.805796,-0.00024046749,-0.0005134307,0.0001335144,0.00021362305,0.00012207031,-0.00038146973
2019-07-01T18:56:09.385Z,-0.00012614009,-0.0066004936,0.4648965,0.114852905,-0.06149292,9.807938,13.032532,11.129761,-58.75702,0.11346376,-0.062374674,9.805796,0.00041420758,0.00017208979,-0.00022697449,-3.0517578e-05,7.6293945e-05,-0.00019836426
2019-07-01T18:56:09.575Z,-0.00011020309,-0.0066030356,0.4648812,0.11366272,-0.062927246,9.807938,13.61084,11.383057,-58.35266,0.113654286,-0.062119152,9.805795,0.00045850128,-0.00032252446,0.0015964508,0.00021362305,1.5258789e-05,0.0
2019-07-01T18:56:09.785Z,-0.000113371236,-0.006612327,0.46490976,0.11317444,-0.06341553,9.80986,12.295532,10.784912,-58.343506,0.113784716,-0.062262546,9.805792,-0.00038974732,-0.00017875805,0.00011062622,-3.0517578e-05,-0.00016784668,-0.00019836426
2019-07-01T18:56:09.983Z,-9.981988e-05,-0.0065677585,0.46477512,0.11366272,-0.062210083,9.80603,12.942505,11.054993,-59.449768,0.113143794,-0.06160364,9.805803,-0.00021837652,0.0005947016,-0.0012741089,-9.1552734e-05,7.6293945e-05,0.0
2019-07-01T18:56:10.191Z,-0.00011091491,-0.006563682,0.46477976,0.112472534,-0.061264038,9.806992,12.976074,11.555481,-57.913208,0.11297156,-0.06175975,9.805805,-4.8533082e-05,-0.00043801218,0.00042057037,3.0517578e-05,7.6293945e-05,-0.00012207031
2019-07-01T18:56:10.395Z,-0.00010173014,-0.006558034,0.46475244,0.11341858,-0.06317139,9.809387,12.342834,11.882019,-58.424377,0.1129591,-0.061545275,9.805806,0.00067944825,6.5520406e-05,0.00027751923,9.1552734e-05,0.00018310547,-0.00019836426
2019-07-01T18:56:10.599Z,-0.00010300929,-0.0065655303,0.46477368,0.1138916,-0.05934143,9.808182,12.90741,11.767578,-57.640076,0.11307614,-0.06163854,9.805805,6.8455935e-05,-0.00031113252,0.0009794235,3.0517578e-05,-4.5776367e-05,-1.5258789e-05
2019-07-01T18:56:10.793Z,-8.801446e-05,-0.006583332,0.46479943,0.11462402,-0.06124878,9.804825,12.696838,10.81543,-58.50525,0.11352015,-0.061543714,9.8057995,0.0015596747,0.00030427054,-0.0022182465,-3.0517578e-05,0.00018310547,-0.00038146973
2019-07-01T18:56:10.995Z,-9.491139e-05,-0.006581368,0.4648038,0.11390686,-0.06341553,9.805313,13.209534,11.427307,-58.2489,0.11342288,-0.06164614,9.8058,0.00047902763,-8.82186e-05,-0.0021219254,-3.0517578e-05,0.00018310547,-0.00032043457
2019-07-01T18:56:11.196Z,-0.00012256035,-0.006604374,0.4649017,0.11413574,-0.06436157,9.805786,12.625122,11.178589,-59.410095,0.11356342,-0.062348563,9.805795,0.0003266856,-0.0012950227,-0.00061130524,-3.0517578e-05,1.5258789e-05,-0.0002593994
2019-07-01T18:56:11.401Z,-0.00010039732,-0.006643908,0.4649741,0.11605835,-0.060058594,9.808182,13.371277,11.44104,-58.406067,0.11444685,-0.062333558,9.805784,0.0020741,0.00012915209,0.0015039444,-3.0517578e-05,7.6293945e-05,-0.00019836426
2019-07-01T18:56:11.609Z,-6.772602e-05,-0.006619203,0.46486494,0.115097046,-0.0619812,9.80603,13.388062,11.805725,-58.332825,0.114323445,-0.061526865,9.805791,-0.00019736588,0.0017176084,-0.00011634827,-3.0517578e-05,1.5258789e-05,-0.00032043457
2019-07-01T18:56:11.809Z,-3.869588e-05,-0.00660878,0.4647979,0.11437988,-0.05934143,9.803162,13.619995,11.677551,-58.668518,0.11441176,-0.060919072,9.805794,0.0009248331,0.0010918081,-0.00087451935,3.0517578e-05,0.00019836426,-0.0002593994
2019-07-01T18:56:12.014Z,-8.401489e-05,-0.006600165,0.46483776,0.11317444,-0.062927246,9.807465,13.299561,11.651611,-58.285522,0.11384624,-0.06163264,9.805796,-0.0006711036,-0.0015391223,-0.000910759,3.0517578e-05,0.00012207031,0.0
2019-07-01T18:56:12.215Z,-0.000116249386,-0.0065816385,0.46483383,0.11366272,-0.0619812,9.804596,13.528442,11.300659,-57.911682,0.11323094,-0.062022988,9.8058,-5.7905912e-05,-0.001620654,0.0003528595,0.00021362305,0.00030517578,-0.00032043457
2019-07-01T18:56:12.441Z,-0.00010717017,-0.0065250997,0.46467414,0.11054993,-0.0619812,9.804596,13.127136,11.270142,-57.525635,0.112343036,-0.06132961,9.805815,-0.0013180822,0.0010257848,-0.0005712509,9.1552734e-05,0.00012207031,-0.0002593994
2019-07-01T18:56:12.750Z,-0.00012016119,-0.006570014,0.46480894,0.11366272,-0.062927246,9.809143,13.08136,10.5529785,-59.55658,0.11299518,-0.061981764,9.805803,0.0016093776,-0.0014314577,0.0010519028,3.0517578e-05,7.6293945e-05,-6.1035156e-05
2019-07-01T18:56:12.865Z,-6.0399958e-05,-0.0065496475,0.46467382,0.115097046,-0.05934143,9.80603,13.981628,10.829163,-59.085083,0.113195606,-0.060741045,9.805809,0.0004607141,0.002120208,0.00038433075,9.1552734e-05,1.5258789e-05,-0.0001373291
2019-07-01T18:56:13.025Z,-9.264547e-05,-0.0065626847,0.46475205,0.11413574,-0.060302734,9.805542,13.179016,10.845947,-58.670044,0.113122694,-0.061429854,9.805805,0.00054130703,-0.0005520433,-0.0013418198,-0.00021362305,0.00018310547,-0.0001373291
2019-07-01T18:56:13.264Z,-7.0438655e-05,-0.0066015953,0.46482283,0.115097046,-0.062454224,9.80722,12.68158,10.601807,-59.454346,0.11399589,-0.061408006,9.805795,0.0020549297,-0.00032499805,0.0014944077,9.1552734e-05,7.6293945e-05,-0.0001373291
2019-07-01T18:56:13.426Z,-5.6750814e-05,-0.006600519,0.46480122,0.11413574,-0.061019897,9.805786,13.973999,10.914612,-60.653687,0.11410349,-0.061157722,9.805796,2.631545e-05,-0.00010313466,-0.00027561188,0.00015258789,-4.5776367e-05,-0.00038146973
2019-07-01T18:56:13.651Z,-3.828584e-05,-0.0066084457,0.46479648,0.11677551,-0.062927246,9.809143,14.141846,10.919189,-59.828186,0.11440979,-0.06090872,9.805794,0.0009180978,-0.00010409951,0.0012483597,0.00015258789,7.6293945e-05,-0.0001373291
2019-07-01T18:56:13.841Z,-8.762363e-05,-0.006633794,0.46493024,0.11294556,-0.062927246,9.805786,13.088989,10.850525,-60.10132,0.114390805,-0.062013853,9.805787,0.0004429072,-0.0023373105,0.000992775,3.0517578e-05,0.00012207031,-6.1035156e-05
2019-07-01T18:56:14.048Z,-0.000111603455,-0.0066001737,0.4648757,0.11317444,-0.06149292,9.807709,12.982178,10.188293,-59.92737,0.113592215,-0.062116668,9.805796,-0.0011475608,-0.00033065304,-0.0010995865,3.0517578e-05,0.00012207031,-0.00032043457
2019-07-01T18:56:14.240Z,-0.00010411205,-0.006578159,0.46480808,0.11294556,-0.06149292,9.809616,14.064026,10.682678,-58.059692,0.11328298,-0.061777208,9.805801,-0.0001315996,0.0005410053,0.0018186569,3.0517578e-05,0.00012207031,-0.00019836426
2019-07-01T18:56:14.446Z,-9.169057e-05,-0.00657015,0.46477017,0.114608765,-0.06364441,9.805542,13.174438,12.294006,-57.39441,0.113259785,-0.061483644,9.805803,0.0011065751,0.00047108904,-0.0016613007,3.0517578e-05,0.00030517578,-0.00019836426
2019-07-01T18:56:14.650Z,-0.0001275693,-0.006592382,0.46487734,0.11557007,-0.062698364,9.80603,12.251282,11.581421,-58.103943,0.11331124,-0.062323082,9.805798,0.0012829229,-0.002030462,0.00015926361,9.1552734e-05,0.00030517578,6.1035156e-05
2019-07-01T18:56:14.849Z,-0.00011933929,-0.006649103,0.46501365,0.11653137,-0.06484985,9.81105,13.034058,11.128235,-58.45642,0.114361495,-0.06271494,9.805782,0.002395697,-0.0004463941,0.0005836487,-9.1552734e-05,7.6293945e-05,-0.0002593994
2019-07-01T18:56:15.051Z,-0.00014774218,-0.0066410443,0.46503174,0.112701416,-0.06341553,9.806503,12.666321,11.750793,-57.408142,0.11396124,-0.063136935,9.805784,-0.00032373518,-0.0014548078,0.0011892319,0.00015258789,0.00012207031,-0.00032043457
2019-07-01T18:56:15.259Z,-0.00015781524,-0.0066361264,0.4650328,0.114852905,-0.062927246,9.806747,12.892151,11.476135,-57.699585,0.1137839,-0.06326711,9.805785,0.000574477,-0.0008536279,-0.0006465912,0.00015258789,0.00024414062,-0.00019836426
2019-07-01T18:56:15.459Z,-0.0001727754,-0.0066516153,0.46509364,0.11462402,-0.06604004,9.806274,12.950134,11.048889,-58.54492,0.113911994,-0.06367597,9.805781,0.0011743084,-0.0013967678,-0.0018806458,0.00015258789,0.00024414062,-6.1035156e-05
2019-07-01T18:56:15.782Z,-0.0001758056,-0.0066483254,0.46508926,0.11534119,-0.065322876,9.806259,12.652588,11.610413,-58.416748,0.11382756,-0.06369801,9.805782,0.00077905506,-0.00018079579,0.0011434555,3.0517578e-05,0.00024414062,-0.0002593994
2019-07-01T18:56:15.863Z,-0.00017517911,-0.006677668,0.46516475,0.11581421,-0.062927246,9.804352,13.256836,10.855103,-59.20105,0.11433725,-0.063964546,9.805775,0.0014697835,-0.0011101812,-0.0017938614,0.00015258789,0.00012207031,0.0
2019-07-01T18:56:16.069Z,-0.00013022205,-0.006677983,0.46510378,0.114852905,-0.06149292,9.804352,12.6953125,10.81543,-58.732605,0.11475724,-0.06317899,9.805776,0.001528874,0.0016866773,-0.0010461807,-3.0517578e-05,0.00018310547,-0.00019836426
2019-07-01T18:56:16.275Z,-0.00012920002,-0.0066336053,0.4649869,0.114852905,-0.062210083,9.805313,12.968445,11.56311,-58.969116,0.114004396,-0.06274137,9.805787,-0.0008116588,0.00028547645,-0.0007009506,0.00015258789,0.00018310547,-0.0001373291
2019-07-01T18:56:16.474Z,-0.00011425779,-0.00661398,0.46491528,0.11462402,-0.06556702,9.811539,12.872314,9.597778,-60.121155,0.11380496,-0.06229373,9.805792,0.00031207502,-0.0008674115,0.00436306,9.1552734e-05,7.6293945e-05,0.0
2019-07-01T18:56:16.676Z,-0.00012540189,-0.0066452264,0.4650119,0.11581421,-0.06317139,9.804596,13.433838,11.083984,-58.784485,0.11423902,-0.06278463,9.805783,0.0013212189,-0.0008543804,-0.0015583038,-3.0517578e-05,0.00012207031,0.0
2019-07-01T18:56:16.893Z,-0.00012559284,-0.0066283895,0.46496835,0.11462402,-0.062210083,9.808655,13.209534,11.427307,-58.174133,0.11394803,-0.062628776,9.805788,0.0001784116,0.00042380393,-8.4877014e-05,-3.0517578e-05,0.00019836426,-0.0001373291
2019-07-01T18:56:17.081Z,-0.00012717284,-0.0066651776,0.46506625,0.11413574,-0.061965942,9.806259,13.023376,10.984802,-59.013367,0.1145654,-0.063004375,9.8057785,0.001707986,-0.0011207014,0.00074481964,9.1552734e-05,0.00012207031,-0.0002593994
2019-07-01T18:56:17.301Z,-7.2101895e-05,-0.0066084336,0.46484292,0.11341858,-0.06173706,9.809143,13.221741,11.71875,-58.11615,0.11409807,-0.06150182,9.805793,-0.00045467168,0.002643831,0.0009717941,9.1552734e-05,0.00012207031,-6.1035156e-05
2019-07-01T18:56:17.488Z,-0.000117112824,-0.0066042766,0.46489394,0.11413574,-0.062698364,9.80603,13.685608,11.164856,-57.795715,0.113611944,-0.06225209,9.805795,-0.00068472326,-0.0016264096,-0.00015735626,3.0517578e-05,7.6293945e-05,-0.00019836426
2019-07-01T18:56:17.687Z,-0.00012493387,-0.0066003785,0.46489453,0.1138916,-0.062927246,9.805542,13.009644,10.618591,-58.784485,0.1134729,-0.06235243,9.805796,0.00040745735,0.00014852732,-0.0012254715,-9.1552734e-05,0.00018310547,-0.0002593994
2019-07-01T18:56:17.894Z,-0.00015418066,-0.0065956493,0.46492243,0.11366272,-0.062210083,9.803879,12.902832,11.618042,-57.21588,0.11312213,-0.062820725,9.805797,-0.00066859275,-0.001065746,-0.0012960434,3.0517578e-05,1.5258789e-05,-0.00044250488
2019-07-01T18:56:18.097Z,-0.00014254826,-0.006659008,0.46507135,0.11557007,-0.065078735,9.806503,13.218689,11.647034,-58.20465,0.114317685,-0.06321572,9.80578,0.0022110194,-0.0011443794,-0.00022315979,9.1552734e-05,-4.5776367e-05,-6.1035156e-05
2019-07-01T18:56:18.304Z,-0.0001415585,-0.0066553275,0.4650604,0.11413574,-0.06436157,9.806503,13.449097,11.219788,-57.473755,0.114263594,-0.06316355,9.805781,0.0005893037,-0.00025197864,-0.0004682541,9.1552734e-05,0.00018310547,-0.0001373291
2019-07-01T18:56:18.516Z,-0.00017520261,-0.006647237,0.4650856,0.1131897,-0.06413269,9.807709,13.2751465,11.065674,-58.026123,0.113814436,-0.06367715,9.805783,-0.00040697306,-0.0013953671,0.0019130707,9.1552734e-05,0.00012207031,-6.1035156e-05
2019-07-01T18:56:18.708Z,-0.00017044976,-0.006659076,0.46510988,0.115097046,-0.065078735,9.807465,13.354492,10.923767,-57.60498,0.11406158,-0.06370574,9.805779,0.0005502701,-0.0004201457,0.00016498566,9.1552734e-05,1.5258789e-05,-0.00019836426
2019-07-01T18:56:18.908Z,-0.00018054563,-0.006650573,0.46510163,0.11437988,-0.06460571,9.807709,13.641357,10.520935,-59.73816,0.11382246,-0.063802406,9.805782,-0.00017713755,-0.00079356134,0.0009012222,0.00015258789,7.6293945e-05,-0.0001373291
2019-07-01T18:56:19.129Z,-0.00014872062,-0.006675241,0.46512207,0.114852905,-0.065322876,9.805542,13.1073,10.83374,-57.688904,0.11453957,-0.063477516,9.805776,0.0014889389,-0.00040294975,-0.0005207062,0.0002746582,1.5258789e-05,6.1035156e-05
2019-07-01T18:56:19.334Z,-0.00018799736,-0.0066552632,0.46512407,0.11294556,-0.062683105,9.805069,13.1866455,10.9939575,-58.79059,0.11383428,-0.06397745,9.80578,-0.0011360347,-0.0010995045,-0.0019454956,3.0517578e-05,7.6293945e-05,0.00012207031
2019-07-01T18:56:19.522Z,-0.00019581424,-0.006649902,0.46512088,0.11341858,-0.06436157,9.80603,13.246155,10.560608,-59.033203,0.11367013,-0.064063855,9.805782,-0.00026015192,-6.399304e-05,0.00094127655,-3.0517578e-05,1.5258789e-05,-6.1035156e-05
2019-07-01T18:56:19.756Z,-0.00019535328,-0.006640667,0.4650962,0.11366272,-0.06484985,9.807465,12.992859,11.997986,-58.35266,0.11351578,-0.063968435,9.805784,0.00038620085,-0.0006345287,-0.00064849854,0.00021362305,0.00018310547,-0.0001373291
2019-07-01T18:56:19.925Z,-0.00014540645,-0.0066249063,0.46498653,0.115097046,-0.061019897,9.805786,13.606262,11.2335205,-58.003235,0.113705575,-0.062943384,9.805789,0.0011403486,0.0012101904,0.0003566742,0.00021362305,0.00019836426,-0.00032043457
2019-07-01T18:56:20.150Z,-0.00015774957,-0.006639383,0.46504116,0.11462402,-0.06364441,9.804352,11.192322,11.37085,-58.70819,0.11384045,-0.06329676,9.805785,0.0005402714,-0.001065284,-0.0013608932,9.1552734e-05,7.6293945e-05,-0.00032043457
2019-07-01T18:56:20.330Z,-0.00011680048,-0.0066216653,0.46493876,0.11366272,-0.06173706,9.809616,13.113403,10.9817505,-57.885742,0.11391356,-0.062410984,9.80579,0.00045764446,0.0016399771,0.0016450882,3.0517578e-05,7.6293945e-05,-7.6293945e-05
2019-07-01T18:56:20.535Z,-0.00014987262,-0.0066158203,0.464969,0.11390686,-0.06413269,9.806976,12.774658,10.594177,-57.873535,0.11350833,-0.06293582,9.805791,0.00014127791,-0.00022829324,0.0007696152,-0.00021362305,0.00024414062,6.1035156e-05
2019-07-01T18:56:20.743Z,-0.00015678573,-0.006648461,0.46506345,0.115097046,-0.06413269,9.808899,13.212585,11.424255,-57.873535,0.11400525,-0.06336569,9.805782,0.00082769245,-0.00075589865,0.0011548996,-3.0517578e-05,-4.5776367e-05,-0.0001373291
2019-07-01T18:56:20.937Z,-0.00014041323,-0.006691793,0.46515372,0.11677551,-0.062210083,9.807709,12.469482,11.164856,-58.877563,0.11490045,-0.06348839,9.805772,0.0020819977,0.00032913685,0.00029182434,-0.00015258789,7.6293945e-05,-0.0002593994
2019-07-01T18:56:21.136Z,-0.00012129809,-0.0066529117,0.46502626,0.11390686,-0.06364441,9.804825,13.815308,10.519409,-58.084106,0.114408866,-0.06278532,9.805781,-0.0002886355,0.0008278936,-0.001080513,0.00015258789,0.00018310547,6.1035156e-05
2019-07-01T18:56:21.351Z,-0.00014587614,-0.0066498322,0.46505204,0.112457275,-0.062927246,9.809143,12.82959,11.836243,-57.69806,0.114129394,-0.06318731,9.805782,-0.0009717792,-0.0011649504,0.00023651123,9.1552734e-05,-0.00010681152,-0.0001373291
2019-07-01T18:56:21.552Z,-0.00013047128,-0.00664041,0.46500635,0.1138916,-0.06341553,9.805069,13.822937,10.891724,-59.066772,0.11410956,-0.062828004,9.805785,-0.0007003322,-9.408593e-05,-0.0012760162,0.00021362305,-0.00016784668,6.1035156e-05
2019-07-01T18:56:21.754Z,-0.000120355,-0.0066252663,0.46495304,0.11317444,-0.06317139,9.805786,12.420654,11.8927,-58.955383,0.11394266,-0.062507376,9.805789,-0.000286147,-0.00018758327,-0.00053691864,0.00021362305,1.5258789e-05,-0.00019836426
2019-07-01T18:56:21.959Z,-0.00014738702,-0.006653102,0.46506262,0.11653137,-0.06436157,9.805542,12.437439,12.101746,-57.780457,0.114171624,-0.06324473,9.805781,0.00092116743,-0.0018316507,-0.0003604889,9.1552734e-05,0.00012207031,-0.0001373291
2019-07-01T18:56:22.153Z,-0.00010766711,-0.006635352,0.46496183,0.115097046,-0.061264038,9.808655,12.138367,10.922241,-58.610535,0.11423286,-0.062380176,9.805786,0.0006060526,0.0001777336,0.0016670227,0.00039672852,0.00012207031,-0.0002593994
2019-07-01T18:56:22.352Z,-8.878688e-05,-0.00665161,0.4649782,0.11653137,-0.0619812,9.806503,13.212585,11.729431,-59.39789,0.114686176,-0.06220273,9.805782,0.0015925616,0.0002261363,-0.00096702576,3.0517578e-05,0.00018310547,-0.00038146973
2019-07-01T18:56:22.553Z,-0.00010769863,-0.00664633,0.46499044,0.11341858,-0.06341553,9.80603,12.225342,10.998535,-58.22296,0.11442116,-0.062484533,9.805783,-0.00029578805,-0.001398351,0.0003194809,0.00021362305,6.1035156e-05,-0.00019836426
2019-07-01T18:56:22.758Z,-0.000109013956,-0.006621764,0.46492833,0.112457275,-0.06364441,9.806503,12.973022,11.560059,-58.441162,0.11398701,-0.062275335,9.80579,-0.0005752668,0.0007861443,-0.0005912781,-9.1552734e-05,7.6293945e-05,0.00024414062
2019-07-01T18:56:22.973Z,-0.00016099369,-0.006639913,0.465047,0.11317444,-0.06364441,9.809372,13.444519,11.224365,-58.076477,0.11381965,-0.06335867,9.805785,0.00077809393,-0.0017054304,0.0018110275,9.1552734e-05,1.5258789e-05,6.1035156e-05
2019-07-01T18:56:23.167Z,-0.0001537969,-0.006641913,0.46504232,0.11413574,-0.06388855,9.80603,12.67395,10.455322,-59.40857,0.11392035,-0.063251354,9.805784,0.000664331,9.333342e-05,-0.00039196014,3.0517578e-05,0.00012207031,-0.0001373291
2019-07-01T18:56:23.368Z,-0.00016921868,-0.0066315783,0.46503663,0.11462402,-0.062698364,9.806259,12.878418,11.184692,-57.9834,0.113600664,-0.063424125,9.805787,4.698336e-05,-0.00045601279,-0.0015459061,3.0517578e-05,0.00018310547,-6.1035156e-05
2019-07-01T18:56:23.572Z,-0.000112023015,-0.006606631,0.46489307,0.11317444,-0.06173706,9.805786,11.967468,10.844421,-59.451294,0.1136993,-0.062185068,9.805795,0.0008966699,0.0018893331,-0.0003938675,0.00015258789,0.00018310547,-7.6293945e-05
2019-07-01T18:56:23.784Z,-0.0001460404,-0.006624634,0.46498668,0.11628723,-0.06556702,9.805542,12.568665,11.535645,-58.65631,0.113695055,-0.06295193,9.805789,0.0006790012,-0.0021235794,-0.0012226105,0.00015258789,0.00018310547,-0.00019836426
2019-07-01T18:56:24.051Z,-0.00015266553,-0.0065811547,0.4648826,0.112701416,-0.061019897,9.806976,12.973022,11.483765,-58.07953,0.11288709,-0.06265717,9.8058,-0.0006688908,0.0006968826,0.0007791519,-3.0517578e-05,0.00024414062,-0.00012207031
2019-07-01T18:56:24.180Z,-0.00015451542,-0.0065913987,0.46491182,0.11317444,-0.06413269,9.806747,12.142944,10.765076,-57.058716,0.11304602,-0.06278642,9.805798,0.00060619414,-0.00062327087,3.9100647e-05,9.1552734e-05,7.6293945e-05,-0.0002593994
2019-07-01T18:56:24.387Z,-0.00015687743,-0.0066127437,0.46497062,0.11341858,-0.06341553,9.805786,13.052368,11.64093,-58.955383,0.113390915,-0.0630296,9.805792,0.0009791404,-0.00060934573,-0.00013828278,3.0517578e-05,7.6293945e-05,-0.0001373291
2019-07-01T18:56:24.581Z,-0.00017497913,-0.00663116,0.46504346,0.11413574,-0.06484985,9.806747,12.922668,12.211609,-58.23059,0.113540374,-0.06352121,9.805787,-0.00012656301,-0.0020431355,-0.00088596344,0.0002746582,-0.00010681152,-0.0001373291
2019-07-01T18:56:24.878Z,-0.00015511116,-0.006654913,0.46507797,0.11390686,-0.06317139,9.806503,13.352966,11.152649,-58.99353,0.11413152,-0.06339734,9.805781,0.0009557754,0.0004755184,0.00084495544,-6.1035156e-05,-6.1035156e-05,-4.5776367e-05
2019-07-01T18:56:24.982Z,-0.00016859292,-0.006639052,0.4650552,0.11437988,-0.06411743,9.805069,12.628174,11.253357,-59.47113,0.113734804,-0.06348382,9.805785,-0.0012687072,-0.00040113926,-0.0005540848,6.1035156e-05,-0.00012207031,7.6293945e-05
2019-07-01T18:56:25.212Z,-0.00014057221,-0.0066796476,0.46512234,0.11462402,-0.06436157,9.808899,12.90741,11.769104,-57.791138,0.11469039,-0.06337628,9.805775,0.0020787492,-3.5725534e-05,-4.4822693e-05,6.1035156e-05,4.5776367e-05,-0.00035095215
2019-07-01T18:56:25.388Z,-0.00019065695,-0.006655252,0.4651277,0.11390686,-0.06460571,9.80603,13.082886,10.78186,-60.643005,0.11380956,-0.064023994,9.80578,-0.0015881583,-0.0015390888,0.00012111664,6.1035156e-05,4.5776367e-05,-0.00016784668
2019-07-01T18:58:50.575Z,0.10783072,0.121576026,-0.024323702,-2.2782135,1.8685608,8.676376,10.827637,16.993713,-44.485474,-2.4035387,2.0281696,9.288698,0.098517895,-0.11787605,0.031208992,-0.17236328,-0.14805603,-0.07098389
2019-07-01T18:58:50.605Z,0.085954025,0.1036932,-0.031838357,-1.7560883,1.3043213,9.586838,7.432556,19.05365,-47.628784,-2.0678687,1.6048669,9.450857,0.27329183,-0.26949298,0.5393362,-0.09844971,-0.10736084,-0.14079285
2019-07-01T18:58:50.798Z,0.07796328,0.090731606,-0.050703496,-1.6780853,1.2007141,9.624649,5.6365967,19.940186,-45.93811,-1.8419933,1.4259263,9.525974,0.12502074,-0.19308889,0.36213398,-0.015975952,-0.115737915,-0.17286682
2019-07-01T18:58:50.995Z,0.07317749,0.077416696,-0.06478336,-1.5510254,1.1394653,9.440643,4.193115,19.91272,-44.978333,-1.5995293,1.325686,9.584073,0.005473852,-0.15153837,0.09023094,-0.013168335,-0.14157104,-0.10017395
2019-07-01T18:58:51.197Z,0.06534148,0.07293873,-0.07054904,-1.3581696,1.1645966,9.557419,3.7277222,20.317078,-44.80133,-1.5105247,1.1712685,9.618567,0.14790809,0.0063353777,0.17453384,-0.06576538,-0.04058838,-0.09120178
2019-07-01T18:58:51.399Z,0.04904742,0.061686378,-0.07999571,-1.384491,1.0057068,9.670349,3.6331177,21.769714,-44.87915,-1.2791753,0.8591125,9.6848345,-0.19876814,0.12796962,0.1679697,-0.16038513,-0.14750671,-0.096450806
2019-07-01T18:58:51.598Z,0.055106446,0.041324276,-0.107338116,-2.083664,0.32255554,9.728256,-0.9765625,21.31958,-45.08362,-0.9198997,0.9849948,9.713596,-1.2433451,-0.7209393,0.19050217,0.12548828,-0.28372192,-0.024673462
2019-07-01T18:58:51.799Z,0.047174707,0.033813074,-0.1162226,-1.5117798,-0.12658691,10.078812,-2.0080566,21.690369,-45.64514,-0.7651012,0.8403338,9.740578,-0.65630907,-1.008954,0.45740795,-0.0076141357,-0.1207428,0.016677856
2019-07-01T18:58:51.999Z,0.04960328,0.017960548,-0.15631972,-1.4574738,0.09906006,9.629196,-3.7094116,21.659851,-46.865845,-0.49951935,0.9044861,9.752065,-0.8830243,-0.61858535,-0.027022362,0.08554077,-0.21640015,-0.279953
2019-07-01T18:58:52.210Z,0.017924396,0.039416853,-0.11107549,-0.79034424,1.4971924,9.740219,-0.91552734,24.911499,-47.299194,-0.8066303,0.26317748,9.769876,0.13436818,1.2108668,-0.12501907,-0.41952515,0.18255615,0.32894897
2019-07-01T18:58:52.401Z,-0.0062558115,0.023556372,-0.023369472,1.0911255,1.0758209,9.390152,7.116699,27.757263,-44.555664,-0.4588873,-0.13342425,9.794998,1.6397922,1.2264444,-0.25152588,-0.31243896,-0.10522461,0.62901306
2019-07-01T18:58:52.600Z,-0.006169841,-0.017116673,0.027562832,0.73747253,1.228241,9.386566,9.202576,25.32196,-41.89148,0.3321959,-0.13019818,9.800158,0.42415935,1.3903509,-0.13669586,-0.06588745,-0.40026855,0.38337708
2019-07-01T18:58:52.797Z,0.011145997,0.0062085474,0.043581653,0.9559326,0.31536865,11.112747,11.224365,23.632812,-41.33911,-0.112117104,0.22369121,9.803457,1.0304488,-0.19490805,1.716918,0.19415283,0.27168274,-0.048568726
2019-07-01T18:58:52.997Z,0.10379154,0.041233867,0.027499728,1.3674927,-0.49842834,10.143417,10.38208,11.991882,-42.46521,-0.74738395,2.0444245,9.562016,2.175527,-2.3952167,0.46107197,1.0659943,0.3612976,-0.41122437
2019-07-01T18:58:53.200Z,0.07343098,0.025822299,-0.002428238,1.5445709,0.4764099,8.381348,10.217285,13.65509,-41.967773,-0.5084196,1.43462,9.687815,1.8575981,-0.8972678,-1.463809,-0.26649475,-0.14767456,-0.40908813
2019-07-01T18:58:53.401Z,0.038008917,0.02213929,0.007134403,0.14524841,0.18424988,9.946487,9.211731,18.25409,-42.048645,-0.42847463,0.74783766,9.768702,0.4232641,-0.5037118,0.3672514,-0.33485413,-0.044448853,-0.13542175
2019-07-01T18:58:53.622Z,-0.02312109,-0.006015113,0.08652097,-0.3890686,0.70588684,10.301102,13.601685,22.766113,-41.082764,0.07826441,-0.46185786,9.795456,-0.3630082,1.0338101,0.8342619,-0.67063904,-0.27168274,0.6764221
2019-07-01T18:58:53.797Z,-0.035623107,-0.023800988,0.24528289,-0.28881836,-1.0207825,10.32312,15.962219,21.766663,-42.437744,0.28073737,-0.7911831,9.77065,-0.48604187,-0.3400954,0.5525942,-0.12385559,-0.23986816,1.6482544
2019-07-01T18:58:54.000Z,-0.023164399,-0.0017420683,0.4018016,-0.010284424,-0.604187,10.482712,19.863892,17.597961,-44.656372,-0.15127245,-0.42963722,9.796067,0.09857917,-0.07912797,0.47025394,0.20649719,0.12806702,1.4363403
2019-07-01T18:58:54.201Z,-0.02882564,0.025773166,0.4414959,-0.20219421,-0.12992859,9.558136,23.120117,12.927246,-44.38324,-0.7027492,-0.28363606,9.777326,0.46727216,0.22938669,-0.21003628,0.059951782,0.285614,0.3514862
2019-07-01T18:58:54.402Z,-0.028255697,0.033655416,0.44836295,-0.7362671,0.24909973,9.159958,24.943542,12.245178,-44.218445,-0.8377895,-0.19880076,9.768775,0.07591331,0.40125293,-0.42295742,0.025863647,0.068862915,0.09437561
2019-07-01T18:58:54.607Z,-0.023837619,0.04245442,0.44555297,-1.2351837,0.3103485,9.512192,26.411438,12.783813,-44.54651,-0.95266175,-0.046944086,9.760155,-0.37249422,0.39902908,-0.20244026,0.077301025,0.05029297,-0.09938049
2019-07-01T18:58:54.799Z,-0.021398162,0.045014895,0.4394752,-1.3244324,0.11294556,9.887146,26.261902,12.911987,-43.759155,-0.9762816,0.01160209,9.757926,-0.3398673,0.10716149,0.17031288,0.03288269,0.0035705566,-0.053878784
2019-07-01T18:58:54.999Z,-0.011796936,0.046460822,0.4264546,-1.1916199,0.7905884,8.860626,25.135803,11.010742,-43.344116,-0.92174745,0.17961846,9.761584,-0.29246426,0.69334453,-0.7957163,0.08242798,-0.039627075,-0.14935303
2019-07-01T18:58:55.201Z,0.0054064854,0.034228902,0.38438046,-0.7429657,1.5787811,10.13768,24.88861,10.467529,-41.331482,-0.57856965,0.3558742,9.783097,-0.057224274,1.2272451,0.6148186,0.09996033,-0.1924591,-0.54086304
2019-07-01T18:58:55.398Z,0.02821045,0.05237995,0.25767416,-0.08088684,0.36108398,10.320251,21.029663,12.399292,-41.082764,-0.8481976,0.7983216,9.737228,0.8636066,-0.5898079,0.43909836,0.34687805,0.07962036,-1.4034729
2019-07-01T18:58:55.590Z,0.008634396,0.049587447,0.1916655,0.30293274,0.46946716,9.644745,17.131042,14.665222,-38.043213,-0.92082787,0.3523994,9.756961,1.2968268,0.19963005,0.058730125,-0.15647888,0.01499939,-0.8544769
2019-07-01T18:58:55.795Z,-0.017010238,0.0060868026,0.14223997,0.49172974,0.9633484,8.577789,11.691284,18.814087,-36.59973,-0.16560383,-0.31319872,9.800248,0.58103776,1.3144464,-1.1709614,-0.33973694,-0.37895203,-0.62179565
2019-07-01T18:58:55.992Z,0.0059559704,0.023410987,0.09346384,0.4225769,2.046112,11.689896,10.125732,19.805908,-37.01172,-0.44610408,0.15918612,9.795204,0.8235575,1.9684895,2.1354895,0.20613098,0.1842041,-0.60084534
2019-07-01T18:58:56.197Z,0.003815152,0.013813272,0.08659755,0.0854187,0.6915283,10.000809,8.372498,16.630554,-37.435913,-0.26339826,0.09800024,9.802622,0.25491026,0.47952443,0.008000374,-0.038406372,-0.09037781,-0.13981628
2019-07-01T18:58:56.409Z,0.027775632,0.05973769,0.07649576,-0.2577057,0.42018127,9.460983,7.633972,15.985107,-35.650635,-1.1239947,0.63161516,9.721527,0.9176041,-0.23410004,-0.28402328,0.29696655,0.46513367,-0.2016449
2019-07-01T18:58:56.601Z,0.023705915,0.011757297,0.10618397,-0.29216003,0.53671265,10.165909,2.1774292,16.278076,-35.668945,-0.17984413,0.48664483,9.792916,-0.070181,0.045611143,0.43650055,-0.09729004,-0.47480774,0.3070221
2019-07-01T18:58:56.800Z,0.018615905,0.017652383,0.096572176,0.8475342,0.27851868,9.637817,-0.09460449,19.40155,-34.939575,-0.3092284,0.39672738,9.793741,0.92125684,-0.15771315,-0.06933403,-0.039871216,0.087631226,-0.11129761
2019-07-01T18:58:57.006Z,0.015083705,-0.058120858,0.07240638,0.63194275,-0.09906006,9.553818,-4.853821,20.907593,-34.739685,1.1563082,0.21199043,9.735933,-0.1309501,-0.18315168,-0.39793873,-0.09637451,-0.76911926,-0.15504456
2019-07-01T18:58:57.199Z,0.10503845,-0.0024557451,0.15238577,0.6006012,0.3431244,9.770859,0.24719238,18.119812,-35.742188,0.36127067,2.0172126,9.5901375,0.11625269,-1.8134181,0.17523956,1.063858,0.5152283,0.7684784
2019-07-01T18:58:57.399Z,0.08977241,0.043397892,0.21815296,-1.2378082,0.83628845,10.386047,4.6585083,14.717102,-38.65509,-0.4422186,1.8950193,9.611646,-0.929816,-1.1217198,0.8422756,-0.030029297,0.56489563,0.7243042
2019-07-01T18:58:57.591Z,0.052162144,0.052734796,0.23970017,-1.2949982,1.1724854,8.675415,5.256653,15.638733,-39.549255,-0.7559848,1.2382658,9.698741,-0.5317931,0.28582942,-0.9550657,-0.3769989,0.2058258,0.32565308
2019-07-01T18:58:57.794Z,0.06926753,0.0029715777,0.23341757,-0.060302734,2.153305,9.287979,-1.7883301,14.96582,-41.436768,0.26058468,1.3312787,9.712373,-0.18523109,0.8335303,0.055265427,0.020309448,-0.52397156,0.10580444
2019-07-01T18:58:57.991Z,0.06765463,-0.02299091,0.21746051,-0.4532013,1.3983612,8.517487,-8.332825,14.387512,-41.662598,0.72751063,1.1936419,9.706511,-0.742033,0.38133,0.76334476,-0.07774353,-0.26057434,0.047409058
2019-07-01T18:58:58.223Z,0.052940935,0.00484308,0.270404,-0.60873413,1.672821,9.844559,-6.201172,13.43689,-41.641235,0.18946241,1.0238249,9.751219,-0.48382223,0.28425395,-1.1410275,-0.058807373,0.35383606,0.77012634
2019-07-01T18:58:58.419Z,0.062256083,0.036195002,0.32427567,-1.8534851,1.0533142,10.410446,-2.6046753,14.846802,-42.33246,-0.27363753,1.3819177,9.704938,-0.5947093,0.47282755,0.3232746,0.17222595,0.3226776,0.820755
2019-07-01T18:58:58.614Z,0.03376245,0.026530001,0.41642556,-0.34983826,0.5680542,9.095352,4.7286987,18.301392,-39.437866,-0.19679618,0.81805736,9.770488,-1.548074,0.02821654,0.47746944,-0.3213501,0.073028564,1.2946777
2019-07-01T18:58:58.811Z,0.0069407974,0.010111823,0.45243746,-0.04258728,0.88272095,9.553589,8.131409,17.225647,-40.85388,-0.115258634,0.21112067,9.8036995,-0.18252173,0.52095354,-0.4841566,-0.3403473,-0.0098724365,0.65882874
2019-07-01T18:58:59.007Z,0.025926594,0.02018218,0.47412142,-0.4675598,0.55441284,10.683716,10.78186,13.388062,-40.309143,-0.10718394,0.63508296,9.785478,0.010689586,0.14032966,-0.014445305,0.21150208,0.009796143,0.4293213
2019-07-01T18:58:59.202Z,0.024442285,0.04727517,0.47507533,-0.4572754,0.9633484,8.9192505,15.638733,10.279846,-39.78119,-0.58666277,0.86156845,9.751099,0.12832832,-0.32997662,0.80667686,0.12641907,0.26263428,0.11416626
2019-07-01T18:58:59.401Z,0.018663038,0.03072515,0.4796705,-0.5400696,1.1248627,9.422226,17.41333,10.324097,-39.61792,-0.35274515,0.6099747,9.781302,-0.077893406,0.46465212,-0.9460325,-0.15464783,-0.11413574,0.15063477
2019-07-01T18:58:59.603Z,0.027291562,0.017795186,0.58971614,-1.1021271,0.7336426,10.264969,18.432617,6.0928345,-39.694214,0.03401716,0.63776803,9.7858305,-0.973562,0.06561297,0.5245056,-0.1516571,-0.04133606,0.7639618
2019-07-01T18:58:59.807Z,0.026996069,0.0347778,0.63042796,-0.20481873,1.0906525,8.791718,18.377686,3.2531738,-40.872192,-0.19483185,0.8403673,9.768635,0.07112801,0.40567154,-1.1944752,0.09013367,0.16001892,0.5539398
2019-07-01T18:59:00.010Z,0.050243013,0.02398946,0.64743525,0.36180115,1.8742981,9.297073,19.369507,2.0828247,-41.30249,0.28037393,1.053637,9.745852,0.05167356,0.76607955,-0.11431599,0.087677,-0.2149353,0.3106842
2019-07-01T18:59:00.212Z,0.058855943,0.009439891,0.65075886,-0.39074707,0.6491699,9.639008,15.759277,1.0665894,-44.53125,0.61106384,0.9942683,9.736961,-1.1025203,-0.43800306,-0.07881069,-0.015304565,-0.19215393,0.09681702
2019-07-01T18:59:00.505Z,0.052120272,-0.0022984995,0.6578231,-0.61782837,-1.236618,10.4231415,11.289978,0.1953125,-45.50934,0.7063323,0.7384262,9.753266,-1.2579153,-2.2475893,0.8274946,-0.06869507,-0.083847046,0.019973755
2019-07-01T18:59:00.623Z,0.0032258322,-0.0041899993,0.640484,-0.16319275,-1.602478,10.465485,9.034729,2.7755737,-49.874878,0.103633106,-0.00404699,9.806102,-0.3436571,-1.4560595,1.1382437,-0.35617065,0.29397583,-0.23799133
2019-07-01T18:59:00.848Z,-0.012091099,0.0059882714,0.6257763,0.052642822,0.01675415,9.887146,9.268188,9.477234,-47.3114,-0.23999798,-0.111449815,9.80308,0.42950112,0.09600935,0.5715399,-0.05935669,0.19299316,-0.046966553
2019-07-01T18:59:01.060Z,-0.011179145,0.004905893,0.61344165,0.0382843,-0.0023956299,9.810577,12.081909,11.34491,-47.799683,-0.21048348,-0.11411185,9.803727,0.32288468,0.09745138,-0.019630432,-0.0040130615,-0.006515503,-0.0004119873
2019-07-01T18:59:01.285Z,-0.010501799,0.004601248,0.6023545,0.14356995,-0.04307556,9.815353,11.486816,10.650635,-47.91565,-0.19609916,-0.11003826,9.804071,0.29053104,0.0904984,-0.005432129,-0.00035095215,0.00045776367,-4.5776367e-05
2019-07-01T18:59:01.485Z,-0.009798356,0.0043095043,0.5921034,0.07896423,0.007171631,9.812973,11.148071,10.186768,-47.54486,-0.18189767,-0.104808666,9.804403,0.28251934,0.096749075,-0.0035552979,7.6293945e-05,0.00033569336,0.0
2019-07-01T18:59:01.691Z,-0.009192069,0.0039771437,0.58488226,0.114852905,-0.028717041,9.808182,12.350464,8.834839,-50.74005,-0.16871296,-0.100599095,9.804684,0.25640497,0.082001135,-0.007241249,-4.5776367e-05,0.00015258789,-0.00022888184
2019-07-01T18:59:01.895Z,-0.005228922,0.0013696905,0.56639576,0.090927124,-0.021530151,9.817749,11.289978,9.913635,-48.588562,-0.08022668,-0.0693026,9.806077,0.1774113,0.06214328,-0.0017957687,0.0001373291,7.6293945e-05,-0.00012207031
2019-07-01T18:59:02.093Z,-0.002884632,-0.00050969445,0.5507367,0.105285645,-0.01675415,9.8033905,11.531067,9.8526,-48.007202,-0.022815056,-0.05272907,9.806481,0.11493744,0.03311799,-0.0026311874,1.5258789e-05,1.5258789e-05,6.1035156e-05
2019-07-01T18:59:02.308Z,-0.0012531568,-0.0017336463,0.5358955,0.06939697,-0.0143585205,9.8033905,10.794067,9.661865,-48.695374,0.015536176,-0.03897301,9.8065605,0.07659433,0.026527014,-0.0016031265,0.0002593994,-3.0517578e-05,-0.00022888184
2019-07-01T18:59:02.502Z,-0.0002710162,-0.0025961709,0.52279663,0.098098755,-0.0047912598,9.812973,12.104797,10.261536,-48.854065,0.04062755,-0.031151768,9.806517,0.05076889,0.0146446,-0.00090789795,0.0002593994,0.00015258789,-0.00036621094
2019-07-01T18:59:02.704Z,0.0004603758,-0.0030754698,0.50982475,0.06939697,-0.021530151,9.810577,11.224365,10.194397,-47.77527,0.056495197,-0.022984864,9.80646,0.032031618,0.015570998,-0.00028133392,0.00019836426,7.6293945e-05,1.5258789e-05
2019-07-01T18:59:02.899Z,0.0008214854,-0.003588681,0.49857718,0.098098755,-0.011962891,9.812973,12.039185,10.548401,-48.866272,0.069046214,-0.021126274,9.806384,0.025227763,0.0034139026,0.001083374,7.6293945e-05,3.0517578e-05,-0.00030517578
2019-07-01T18:59:03.110Z,0.0011129393,-0.0037803908,0.48853812,0.07896423,-0.03111267,9.808182,11.149597,10.339355,-48.268127,0.07535884,-0.017177094,9.806345,0.0126873925,0.00689546,0.00024318695,0.0002593994,1.5258789e-05,-0.00012207031
2019-07-01T18:59:03.306Z,0.001184999,-0.0040246462,0.47904703,0.100494385,-0.011962891,9.808182,11.59668,9.490967,-47.781372,0.08042279,-0.017413223,9.806305,0.009775072,-0.0005284939,-0.0003156662,1.5258789e-05,-9.1552734e-05,7.6293945e-05
2019-07-01T18:59:03.518Z,0.0013450406,-0.0041422243,0.47384828,0.07896423,-0.028717041,9.8033905,12.524414,10.426331,-47.779846,0.08404241,-0.015265991,9.806278,0.007831976,0.0030615097,0.00026512146,0.00032043457,0.00015258789,7.6293945e-05
2019-07-01T18:59:03.716Z,0.001439607,-0.004270674,0.46188238,0.095718384,0.007171631,9.810577,11.38916,10.205078,-47.703552,0.08733247,-0.013645343,9.806252,0.004545018,0.0035915095,0.00022888184,0.00032043457,-9.1552734e-05,-0.00012207031
2019-07-01T18:59:03.922Z,0.0013668995,-0.0043157623,0.4560406,0.08135986,-0.028717041,9.7986145,11.805725,10.600281,-48.09265,0.08755698,-0.014743202,9.806249,0.0012098178,-0.0022535995,-0.0004911423,1.5258789e-05,0.00019836426,1.5258789e-05
2019-07-01T18:59:04.119Z,0.0014148592,-0.0043389285,0.456084,0.08375549,-0.0047912598,9.815353,13.468933,10.06012,-48.573303,0.08838961,-0.014117605,9.806242,0.0015608147,0.0002498245,0.0014219284,0.0002593994,-3.0517578e-05,1.5258789e-05
2019-07-01T18:59:04.329Z,0.0013694955,-0.004362688,0.45619404,0.08375549,-0.021530151,9.805786,12.176514,9.819031,-47.587585,0.088396646,-0.015132863,9.80624,-0.000107981265,-0.002091921,-0.0003232956,1.5258789e-05,-3.0517578e-05,-6.1035156e-05
2019-07-01T18:59:04.530Z,0.0014222001,-0.004355158,0.4561131,0.095718384,0.0,9.805786,11.297607,9.828186,-46.868896,0.088738084,-0.014137555,9.806238,0.0012132451,0.0012156684,9.8228455e-05,0.00019836426,0.0001373291,-0.00024414062
2019-07-01T18:59:04.740Z,0.0014183687,-0.0043790927,0.45617363,0.088531494,-0.0143585205,9.810577,10.972595,9.962463,-48.114014,0.08912057,-0.014424604,9.806234,0.0010694191,-0.00040370505,0.0011835098,-4.5776367e-05,7.6293945e-05,-0.00012207031
2019-07-01T18:59:04.934Z,0.0014544373,-0.004374375,0.45611924,0.086135864,-0.009567261,9.810577,11.157227,10.559082,-48.524475,0.08936178,-0.0137474155,9.806233,0.000116840005,-0.000120642595,-0.001285553,0.00038146973,-9.1552734e-05,-0.00018310547
2019-07-01T18:59:05.145Z,0.0014397562,-0.0043922896,0.45617872,0.086135864,-0.026321411,9.812973,11.331177,10.787964,-48.184204,0.089542165,-0.014169909,9.806231,0.0008935705,-0.0011470094,0.0009012222,7.6293945e-05,0.0001373291,-0.00024414062
2019-07-01T18:59:05.349Z,0.0014381857,-0.0044028517,0.45620528,0.088531494,-0.007171631,9.808182,11.836243,9.434509,-47.87903,0.08971203,-0.014294498,9.80623,-0.00048158318,-0.0012513073,-3.8146973e-05,0.0002593994,-0.00021362305,-0.00018310547
2019-07-01T18:59:05.570Z,0.0014516002,-0.0044116955,0.4562098,0.090927124,-0.01675415,9.793823,12.306213,10.923767,-47.746277,0.08998633,-0.014139964,9.806227,-0.00027049333,-0.00093240384,0.0006170273,0.00032043457,-0.00021362305,-0.00012207031
2019-07-01T18:59:05.786Z,0.0014770998,-0.0044232677,0.45620617,0.090927124,-0.0143585205,9.8033905,12.054443,10.762024,-48.069763,0.09041652,-0.013798097,9.806224,0.00049560517,0.00015902985,-0.0013475418,0.0001373291,-9.1552734e-05,7.6293945e-05
2019-07-01T18:59:06.005Z,0.0014811431,-0.0044468716,0.45625642,0.086135864,-0.0023956299,9.7986145,12.030029,10.0997925,-47.599792,0.09086386,-0.013943867,9.806219,0.0007694736,-0.00016883295,-0.00089740753,-3.0517578e-05,-3.0517578e-05,0.00010681152
2019-07-01T18:59:06.201Z,0.0014758051,-0.004439062,0.4562446,0.093322754,-0.011962891,9.812973,11.87439,10.237122,-47.564697,0.09067998,-0.013965935,9.806221,-0.00072380155,-0.00063524116,-0.00027179718,0.00015258789,-9.1552734e-05,-9.1552734e-05
2019-07-01T18:59:06.407Z,0.0014889055,-0.004456912,0.45627052,0.086135864,-0.0143585205,9.817749,11.073303,10.404968,-47.950745,0.09110833,-0.013899685,9.806217,4.670769e-05,1.666136e-05,0.001408577,3.0517578e-05,-0.00021362305,0.00010681152
2019-07-01T18:59:06.608Z,0.001479432,-0.0044423584,0.45624793,0.090927124,-0.009567261,9.820145,12.271118,10.118103,-47.756958,0.09076992,-0.013932476,9.80622,-0.0010431483,-0.00042448286,-0.001288414,9.1552734e-05,-9.1552734e-05,-0.00021362305
2019-07-01T18:59:06.812Z,0.0014663427,-0.0044279764,0.4562301,0.08135986,-0.01914978,9.810577,11.978149,11.058044,-49.214172,0.09040207,-0.014030404,9.806223,-0.0004445985,0.00016146246,-0.00038146973,-9.1552734e-05,7.6293945e-05,0.00010681152
2019-07-01T18:59:07.015Z,0.0014252267,-0.0043570665,0.45611393,0.090927124,-0.007171631,9.793823,11.550903,10.368347,-48.431396,0.088798456,-0.0141018815,9.806238,-0.002432622,-0.0012156926,0.0013399124,0.0002746582,0.00019836426,-0.00033569336
2019-07-01T18:59:07.219Z,0.0014822703,-0.0043842094,0.45610875,0.088531494,-0.028717041,9.805786,11.56311,10.507202,-47.64862,0.08978257,-0.013348541,9.806231,0.0016071573,0.0013872003,-0.0008649826,3.0517578e-05,-9.1552734e-05,-9.1552734e-05
2019-07-01T18:59:07.421Z,0.0014371516,-0.0043824962,0.456159,0.093322754,-0.009567261,9.793823,11.631775,10.447693,-48.794556,0.08934825,-0.014125762,9.806232,-0.0005803481,-0.0019100029,-0.00057792664,9.1552734e-05,7.6293945e-05,-9.1552734e-05
2019-07-01T18:59:07.627Z,0.0014398838,-0.0044007325,0.45619828,0.095718384,-0.0143585205,9.815353,11.756897,11.401367,-48.381042,0.08969035,-0.014245193,9.80623,0.0009822175,-0.0010729758,0.00056934357,0.00021362305,7.6293945e-05,-0.0002746582
2019-07-01T18:59:07.824Z,0.0014009726,-0.0044476762,0.45635468,0.093322754,-0.01675415,9.815353,11.87439,10.389709,-48.442078,0.0901588,-0.0153602045,9.806224,0.0012312755,-0.0016363701,-9.918213e-05,-0.00015258789,7.6293945e-05,0.00015258789
2019-07-01T18:59:08.030Z,0.0014209022,-0.0044278093,0.45628434,0.088531494,-0.026321411,9.812973,12.205505,10.551453,-47.966003,0.089991644,-0.014827461,9.806226,-0.0002681315,0.0007152939,0.00073719025,9.1552734e-05,1.5258789e-05,0.00010681152
2019-07-01T18:59:08.238Z,0.001436625,-0.0044711344,0.45636657,0.095718384,-0.011962891,9.808182,11.820984,10.966492,-48.094177,0.09088707,-0.014949192,9.806217,0.00073987246,-0.0005966602,0.0008096695,9.1552734e-05,-0.0002746582,3.0517578e-05
2019-07-01T18:59:08.440Z,0.0014198051,-0.0044654314,0.45637348,0.093322754,-0.01914978,9.8033905,11.228943,10.346985,-48.423767,0.0904677,-0.015830971,9.80622,0.00019631535,-0.0011640005,0.0006227493,3.0517578e-05,1.5258789e-05,0.00016784668
2019-07-01T18:59:08.632Z,0.0014331795,-0.004459786,0.45634422,0.102890015,-0.0143585205,9.805786,12.5564575,9.411621,-48.213196,0.090658575,-0.014905471,9.80622,0.00025501102,0.0015104814,-0.0011816025,-3.0517578e-05,0.0001373291,-9.1552734e-05
2019-07-01T18:59:08.843Z,0.001410427,-0.0044619795,0.4563767,0.090927124,-0.011962891,9.805786,11.604309,9.786987,-48.475647,0.09049264,-0.015325473,9.80622,-4.5478344e-05,-0.0007103402,-0.0014295578,-3.0517578e-05,7.6293945e-05,0.00022888184
2019-07-01T18:59:09.049Z,0.0014182848,-0.0044635627,0.45637095,0.086135864,-0.011962891,9.8033905,11.880493,10.534668,-48.487854,0.090590715,-0.015201932,9.80622,8.305162e-05,0.00012779515,0.0004911423,3.0517578e-05,-3.0517578e-05,-3.0517578e-05
2019-07-01T18:59:09.249Z,0.0014288549,-0.004465882,0.45636365,0.095718384,-0.023925781,9.815353,12.260437,9.976196,-48.164368,0.09072592,-0.015037485,9.806219,-0.0005347803,0.0004379442,0.0020799637,-3.0517578e-05,-0.00021362305,-0.00015258789
2019-07-01T18:59:09.451Z,0.0014666757,-0.0044397996,0.45625728,0.093322754,-0.007171631,9.810577,11.546326,10.218811,-48.086548,0.09061096,-0.014133161,9.806221,5.6423247e-05,0.0012114001,-0.00068950653,0.00015258789,7.6293945e-05,-0.0002746582
2019-07-01T18:59:09.659Z,0.0014642704,-0.004412788,0.4561971,0.086135864,-0.01914978,9.8033905,11.5448,10.372925,-49.261475,0.09011897,-0.013927323,9.806226,-0.0011103526,0.00053183176,-0.00093746185,-3.0517578e-05,-3.0517578e-05,3.0517578e-05
2019-07-01T18:59:09.861Z,0.0014846139,-0.004419714,0.45618886,0.086135864,-0.007171631,9.805786,10.861206,10.969543,-47.525024,0.090422,-0.0136333965,9.806224,2.0079315e-05,0.00023799296,0.00018024445,9.1552734e-05,-0.00015258789,9.1552734e-05
2019-07-01T18:59:10.052Z,0.001436999,-0.004402194,0.45620516,0.086135864,-0.01914978,9.805786,12.086487,9.747314,-48.428345,0.08968994,-0.014309317,9.80623,-0.0011715814,-0.0012372928,0.00027179718,-3.0517578e-05,7.6293945e-05,-3.0517578e-05
2019-07-01T18:59:10.268Z,0.0014251339,-0.0044292584,0.45628262,0.08375549,-0.009567261,9.805786,12.162781,9.680176,-48.67096,0.09005484,-0.014766407,9.806226,-0.00033267587,-0.00055099465,0.00034713745,-9.1552734e-05,-0.0002746582,0.00022888184
2019-07-01T18:59:10.471Z,0.0014821299,-0.0044415845,0.4562429,0.095718384,-0.007171631,9.808182,10.813904,10.177612,-49.119568,0.09078063,-0.013877949,9.80622,0.00037907064,0.0014285445,-0.00072193146,9.1552734e-05,-0.0002746582,0.00016784668
2019-07-01T18:59:10.670Z,0.0014378931,-0.0044226176,0.45625177,0.08375549,-0.0047912598,9.810577,11.982727,9.155273,-48.39325,0.090053625,-0.014481174,9.806226,-0.0017872006,-0.0017965883,0.0020723343,0.00015258789,-9.1552734e-05,-1.5258789e-05
2019-07-01T18:59:10.876Z,0.0014437392,-0.004416305,0.45623,0.08375549,-0.01914978,9.8033905,10.971069,9.962463,-48.26355,0.08999612,-0.0143204555,9.806227,-5.2414834e-05,0.00068261754,0.00026226044,-9.1552734e-05,1.5258789e-05,0.00021362305
2019-07-01T18:59:11.072Z,0.0014247529,-0.004428773,0.45628196,0.093322754,-0.0143585205,9.805786,11.158752,10.482788,-48.01483,0.09004297,-0.014768644,9.806226,0.0001469925,-0.0010209214,-0.00046634674,3.0517578e-05,1.5258789e-05,-0.00021362305
2019-07-01T18:59:11.276Z,0.0014096501,-0.0043977886,0.45622775,0.090927124,-0.01914978,9.7986145,11.5448,10.220337,-48.23456,0.08936796,-0.014749485,9.8062315,-0.001316987,-8.0821104e-05,-0.0027017593,3.0517578e-05,1.5258789e-05,-0.00015258789
2019-07-01T18:59:11.478Z,0.0013996868,-0.0044214013,0.45629486,0.090927124,-0.0143585205,9.800995,12.278748,10.264587,-47.57538,0.089689784,-0.015141436,9.806229,0.00027599186,-0.0013685664,-0.0016374588,0.00015258789,-9.1552734e-05,3.0517578e-05
2019-07-01T18:59:11.686Z,0.0014649485,-0.0044094096,0.4561884,0.095718384,-0.011962891,9.808182,12.046814,10.693359,-48.687744,0.09006621,-0.013884378,9.806227,0.00062247366,0.0019206079,-0.0012540817,0.00015258789,-3.0517578e-05,-0.00015258789
2019-07-01T18:59:11.883Z,0.0014222241,-0.00441004,0.45624125,0.08135986,-0.0143585205,9.8033905,11.71875,10.371399,-47.758484,0.089694075,-0.014641024,9.806229,-0.0006742701,-0.0018689893,0.0012388229,9.1552734e-05,1.5258789e-05,-3.0517578e-05
2019-07-01T18:59:12.088Z,0.0014531778,-0.0044029932,0.45618758,0.093322754,-0.009567261,9.793823,12.310791,10.919189,-47.218323,0.08984892,-0.01403232,9.806229,0.00060504675,0.0006351238,3.1471252e-05,0.00015258789,7.6293945e-05,0.00016784668
2019-07-01T18:59:12.296Z,0.0014674976,-0.0043952377,0.45615226,0.08375549,-0.01675415,9.812973,11.962891,10.388184,-47.538757,0.08984224,-0.013709437,9.80623,-0.0005959794,6.844383e-05,0.000500679,0.00015258789,-0.00015258789,0.00035095215
2019-07-01T18:59:12.612Z,0.00146587,-0.0043681334,0.45609093,0.093322754,-0.0143585205,9.796219,12.329102,9.684753,-47.77069,0.08935554,-0.01348919,9.806233,-0.0017898902,0.00032154005,0.0004892349,3.0517578e-05,-0.00021362305,-3.0517578e-05
2019-07-01T18:59:12.699Z,0.0014395807,-0.0044063637,0.4562118,0.090927124,-0.0143585205,9.8033905,11.576843,9.281921,-49.258423,0.0897857,-0.014302237,9.806229,0.0009013787,-0.001979543,-0.0019025803,9.1552734e-05,1.5258789e-05,-9.1552734e-05
2019-07-01T18:59:12.904Z,0.0014447229,-0.0043875454,0.45616168,0.093322754,-0.01675415,9.8033905,12.22229,10.995483,-48.406982,0.08950407,-0.014039061,9.8062315,-0.0004882291,0.0006424617,0.0017633438,-3.0517578e-05,1.5258789e-05,3.0517578e-05
2019-07-01T18:59:13.106Z,0.0014698403,-0.0043998146,0.45616013,0.088531494,-0.01675415,9.805786,11.842346,9.579468,-47.924805,0.08994296,-0.013710293,9.806229,0.0002715513,0.0005412642,-0.0018539429,3.0517578e-05,-0.00015258789,-3.0517578e-05
2019-07-01T18:59:13.303Z,0.0014674286,-0.0044142106,0.45619664,0.088531494,-0.011962891,9.815353,12.536621,10.797119,-48.309326,0.09017206,-0.013884882,9.806226,0.0005160421,-0.00023028627,-0.00012683868,-3.0517578e-05,1.5258789e-05,3.0517578e-05
2019-07-01T18:59:13.506Z,0.0014464128,-0.0043784617,0.45613843,0.07896423,-0.0143585205,9.808182,11.7752075,9.945679,-48.37494,0.08936102,-0.013925962,9.806233,-0.0015484393,-0.00043228455,0.0015115738,9.1552734e-05,1.5258789e-05,0.00016784668
2019-07-01T18:59:13.696Z,0.0014074263,-0.0043846113,0.45619965,0.098098755,-0.0143585205,9.8033905,13.018799,10.906982,-49.061584,0.08911856,-0.014667573,9.806234,-0.0005933866,-0.0013683746,0.0010080338,-3.0517578e-05,-3.0517578e-05,-3.0517578e-05
2019-07-01T18:59:13.917Z,0.001397545,-0.0043850224,0.4562125,0.095718384,-0.01914978,9.805786,11.541748,10.070801,-47.888184,0.089037105,-0.014844995,9.806234,-0.0005127862,-0.00022949185,0.00019550323,-3.0517578e-05,-9.1552734e-05,0.00022888184
2019-07-01T18:59:14.119Z,0.0014318336,-0.004341625,0.45606992,0.086135864,-0.007171631,9.8033905,11.7630005,9.646606,-47.90802,0.08858873,-0.013844044,9.80624,-0.001011692,0.0023554899,0.0002937317,-9.1552734e-05,-3.0517578e-05,3.0517578e-05
2019-07-01T18:59:14.329Z,0.0014445856,-0.004354268,0.45608413,0.090927124,-0.01675415,9.808182,11.212158,10.133362,-49.371338,0.088923246,-0.013735974,9.806237,-0.00015477091,0.00033986382,-0.00027942657,-3.0517578e-05,-0.00021362305,0.00016784668
2019-07-01T18:59:14.518Z,0.0014371717,-0.004349518,0.45608193,0.090927124,-0.0143585205,9.805786,10.890198,9.883118,-48.0484,0.08877406,-0.013822674,9.806239,-0.00024669617,-6.2181614e-05,-0.000664711,-3.0517578e-05,1.5258789e-05,-0.00021362305
2019-07-01T18:59:14.722Z,0.0013781716,-0.004356229,0.45616853,0.086135864,-0.01914978,9.815353,11.779785,10.240173,-48.99597,0.08836198,-0.014921111,9.806241,-0.0005447045,-0.002550698,-0.0015630722,9.1552734e-05,7.6293945e-05,-9.1552734e-05
2019-07-01T18:59:14.959Z,0.0014402106,-0.0043964162,0.4561878,0.086135864,-0.0143585205,9.786652,12.466431,10.934448,-47.825623,0.08961811,-0.014199816,9.806231,-0.0008338019,0.0015183873,-0.0011739731,0.00015258789,-0.00015258789,0.00010681152
2019-07-01T18:59:15.187Z,0.0014168466,-0.0044043832,0.4562345,0.088531494,-0.021530151,9.817749,10.852051,10.444641,-45.820618,0.08954735,-0.014683578,9.806231,0.000655137,-0.00039088074,0.003528595,-0.00015258789,0.00019836426,-0.00019836426
2019-07-01T18:59:15.387Z,0.0013785592,-0.0043668333,0.45619285,0.086135864,-0.0143585205,9.817749,9.780884,9.788513,-45.381165,0.08855011,-0.015011643,9.806239,-0.0012209639,-0.00030612014,0.0010690689,-9.1552734e-05,0.00019836426,-3.0517578e-05
