rotationVector.y,rotationVector.x,magneticField.y,rotationVector.z,gravity.y,magneticField.z,linearAcceleration.y,gyroscope.y,gravity.x,gyroscope.z,gyroscope.x,magneticField.x,linearAcceleration.z,accelerometer.z,accelerometer.x,accelerometer.y,gravity.z,linearAcceleration.x
-0.012300191,0.010910796,-16.09497,0.99384874,-0.2163267,-39.07013,0.0014765114,0.0,0.23910154,6.1035156e-05,-9.1552734e-05,3.0807495,-0.0021619797,9.803162,0.23760986,-0.21487427,9.801349,0.00038905442
-0.012294808,0.010891077,-15.997314,0.99385375,-0.21627457,-38.241577,0.0011781603,0.00016784668,0.23869617,-0.0001373291,-0.00015258789,3.5720825,-0.00015544891,9.805069,0.24072266,-0.2182312,9.801358,-0.00039343536
-0.012321434,0.010901538,-16.914368,0.9938515,-0.21676698,-37.64801,-0.0011704713,4.5776367e-05,0.23896083,-1.5258789e-05,3.0517578e-05,2.9754639,0.002445221,9.804108,0.23951721,-0.21679688,9.801341,0.0009899586
-0.01233175,0.010906,-15.330505,0.99385047,-0.21695668,-38.29193,-0.0002629906,0.00010681152,0.23907158,-6.1035156e-05,9.1552734e-05,2.6382446,3.0517578e-05,9.806747,0.23928833,-0.21583557,9.801335,0.00063443184
-0.012302009,0.010919435,-15.266418,0.9938465,-0.2163389,-36.99646,0.000824064,-6.1035156e-05,0.23927796,6.1035156e-05,-3.0517578e-05,2.6504517,0.002407074,9.804108,0.23976135,-0.2163086,9.801343,0.0006428212
-0.0123505,0.010878056,-15.531921,0.9938581,-0.2173986,-38.165283,-0.0019584447,0.0,0.2385522,0.00024414062,9.1552734e-05,3.9962769,-0.00035953522,9.805313,0.23976135,-0.21702576,9.801338,-0.001257062
-0.012330657,0.010890262,-16.304016,0.9938546,-0.21697772,-38.215637,0.00049877167,0.00010681152,0.23875475,6.1035156e-05,-9.1552734e-05,3.3172607,0.00086688995,9.801239,0.23808289,-0.21368408,9.801342,0.00045238435
-0.012276662,0.010893696,-15.863037,0.9938528,-0.21591273,-39.257812,0.0027663112,0.0,0.23871064,-0.0001373291,-9.1552734e-05,3.2485962,-0.0021247864,9.802673,0.24072266,-0.21559143,9.801367,3.4809113e-05
-0.012284435,0.010918154,-16.464233,0.99384654,-0.21599875,-38.798523,-2.9817224e-05,-6.1035156e-05,0.23921566,-1.5258789e-05,-3.0517578e-05,1.9393921,-0.001253128,9.8033905,0.23928833,-0.21511841,9.8013525,0.0009789914
-0.012280236,0.010927646,-16.400146,0.993844,-0.215891,-38.6734,0.0005720258,0.00016784668,0.23939656,-0.00018310547,-3.0517578e-05,2.9067993,-0.0006799698,9.805557,0.23664856,-0.2163086,9.80135,0.00033339858
-0.012276872,0.0108782705,-15.898132,0.99385685,-0.2159584,-38.11493,-7.3716044e-05,0.00016784668,0.2384028,-0.00019836426,-9.1552734e-05,2.8533936,0.00178051,9.800278,0.2400055,-0.21751404,9.801373,-0.0013184845
-0.012314696,0.010893575,-15.591431,0.99385345,-0.21665671,-37.65564,-0.0008136481,0.00016784668,0.23878764,0.00036621094,-3.0517578e-05,4.2404175,-0.00040721893,9.801956,0.24023438,-0.21678162,9.801349,0.0009255856
-0.012317778,0.010885679,-15.457153,0.99385554,-0.21673824,-37.54883,-0.00024661422,4.5776367e-05,0.23863624,6.1035156e-05,-9.1552734e-05,4.083252,-0.00028133392,9.805313,0.23808289,-0.21606445,9.80135,0.00083594024
-0.012296422,0.010890103,-15.602112,0.99385405,-0.21630877,-37.4115,0.0009981841,-0.00018310547,0.23868008,0.00024414062,-3.0517578e-05,1.9073486,-0.00034809113,9.803879,0.24047852,-0.21798706,9.801358,-0.00014939904
-0.012358323,0.010919526,-14.146423,0.99384737,-0.21743974,-37.23755,-0.0019252598,0.00010681152,0.2393974,-6.1035156e-05,-0.00015258789,3.0166626,0.0016851425,9.8022,0.24191284,-0.21751404,9.801316,0.0012631863
-0.0123555,0.010938713,-14.520264,0.9938423,-0.21733275,-38.05847,0.0008224249,0.00010681152,0.23977499,0.00018310547,-9.1552734e-05,2.7542114,-0.0012655258,9.803162,0.24072266,-0.21463013,9.801309,0.0011297464
-0.012308251,0.010947284,-15.141296,0.9938393,-0.21638575,-37.979126,0.0020275712,0.00010681152,0.23984756,0.00012207031,3.0517578e-05,3.289795,0.000111579895,9.801483,0.23904419,-0.21534729,9.801328,0.00033907592
-0.012305322,0.010950948,-15.7196045,0.9938383,-0.21631862,-39.07776,0.00028403103,0.00010681152,0.23991469,6.1035156e-05,-9.1552734e-05,3.2577515,-0.0011978149,9.803162,0.24072266,-0.2182312,9.801329,0.00028657913
-0.012339771,0.010957189,-14.929199,0.99383724,-0.21697533,-38.038635,-0.0007355213,-0.00012207031,0.24011141,-0.0001373291,-0.00015258789,2.0950317,0.00015926361,9.800522,0.23951721,-0.21487427,9.80131,0.0008046329
-0.012310642,0.010958663,-15.406799,0.99383634,-0.21640177,-38.801575,0.0012985617,4.5776367e-05,0.24007997,6.1035156e-05,-3.0517578e-05,3.5934448,-0.0014886856,9.804825,0.23808289,-0.21655273,9.801322,-0.00033548474
-0.012310081,0.010928372,-14.743042,0.9938443,-0.21647261,-38.22174,-0.00028032064,0.0,0.23947343,-0.0001373291,3.0517578e-05,3.7902832,0.001244545,9.803162,0.24263,-0.21798706,9.801335,-0.0011781454
-0.012340904,0.010957166,-15.478516,0.99383724,-0.21699755,-40.049744,-0.001196906,0.0,0.2401133,6.1035156e-05,3.0517578e-05,2.3727417,0.00066661835,9.803146,0.24072266,-0.21870422,9.801309,0.0012858659
-0.012357034,0.010969552,-15.6311035,0.99383426,-0.21727945,-40.345764,-0.00019621849,0.00016784668,0.24039459,0.00010681152,-0.00015258789,3.3309937,0.000120162964,9.8033905,0.24238586,-0.21702576,9.801295,0.0007586181
-0.012383843,0.010983535,-15.99884,0.99383104,-0.21776584,-39.69879,-0.00039967895,-6.1035156e-05,0.2407301,0.00018310547,-3.0517578e-05,2.2750854,0.0010499954,9.804596,0.23976135,-0.21679688,9.801276,0.0008828491
-0.012355405,0.010977405,-15.505981,0.9938322,-0.21722636,-38.459778,0.0012089908,-6.1035156e-05,0.24054813,0.00012207031,-9.1552734e-05,2.1438599,-0.00025558472,9.805557,0.24095154,-0.21463013,9.801292,-0.0003659129
-0.012320612,0.010985316,-15.333557,0.99382955,-0.21652468,-38.3667,0.0019655824,0.00016784668,0.24063347,0.00024414062,-0.00021362305,2.5558472,0.0022268295,9.8029175,0.23951721,-0.21870422,9.801306,1.0251999e-05
-0.012360057,0.01095921,-15.892029,0.99383706,-0.21736652,-38.945007,-0.0010392368,0.00010681152,0.24019422,6.1035156e-05,3.0517578e-05,2.84729,-0.0015478134,9.804108,0.24023438,-0.21487427,9.801299,-0.00024875998
-0.0123112025,0.01093377,-15.458679,0.9938429,-0.21647999,-38.974,0.0016566068,0.00010681152,0.23958367,0.00018310547,-3.0517578e-05,3.9123535,-0.00024700165,9.804596,0.23976135,-0.2163086,9.801333,-0.0003516823
-0.012311601,0.01095161,-15.969849,0.99383825,-0.21643957,-38.357544,-4.801154e-05,-0.00012207031,0.239941,0.00018310547,-9.1552734e-05,2.848816,0.0012674332,9.804825,0.2416687,-0.2163086,9.801324,0.0009383112
-0.012325972,0.010976771,-15.483093,0.9938319,-0.21665259,-38.363647,0.00017291307,0.000289917,0.24047391,6.1035156e-05,-0.00015258789,3.5949707,0.0007009506,9.8029175,0.24095154,-0.21607971,9.801307,0.0006406605
-0.0123351645,0.010984326,-15.263367,0.99383,-0.2168119,-38.127136,0.00031653047,0.00022888184,0.24064413,0.00010681152,-9.1552734e-05,2.5619507,-0.0014486313,9.800522,0.24023438,-0.2182312,9.801299,0.001205042
-0.012344139,0.01094661,-16.317749,0.99384004,-0.2170893,-39.414978,-0.00015166402,0.00016784668,0.2399091,0.0,-9.1552734e-05,2.9846191,-0.0025691986,9.801956,0.24095154,-0.21870422,9.8013115,-0.00042386353
-0.012390904,0.010955872,-16.54663,0.9938384,-0.21797867,-38.35907,-0.0014180094,-0.00018310547,0.24019195,0.00012207031,-9.1552734e-05,1.8585205,-0.00043964386,9.804352,0.24072266,-0.21774292,9.801285,0.00073234737
-0.012382749,0.010947929,-15.992737,0.99384034,-0.21784064,-38.5437,0.00036925077,0.00022888184,0.24001612,0.0,9.1552734e-05,3.5705566,0.0016298294,9.80722,0.23904419,-0.21678162,9.801291,-0.0003017485
-0.012349254,0.010953944,-15.852356,0.99383825,-0.21716951,-38.659668,0.0011752695,0.00016784668,0.24006636,0.0,-3.0517578e-05,3.4942627,0.0025167465,9.804825,0.24215698,-0.21583557,9.801306,0.0005786568
-0.012326382,0.010950619,-15.78064,0.9938387,-0.21673128,-39.0213,0.0009753555,0.00010681152,0.23995212,-6.1035156e-05,-9.1552734e-05,3.414917,0.0008659363,9.8029175,0.23951721,-0.21679688,9.801318,0.0009112358
-0.012339566,0.010939072,-16.497803,0.99384195,-0.21702024,-38.528442,-0.00043585896,0.00016784668,0.2397489,6.1035156e-05,-3.0517578e-05,2.5848389,-0.0019769669,9.8029175,0.23808289,-0.2163086,9.801317,-0.00029568374
-0.012315457,0.010877287,-15.846252,0.99385774,-0.21671548,-38.16986,0.000689283,-6.1035156e-05,0.23846368,-0.00019836426,0.00015258789,2.5344849,-0.0006132126,9.8033905,0.23928833,-0.21678162,9.801354,-0.00043967366
-0.012298526,0.010880301,-16.326904,0.99385667,-0.21637633,-37.983704,-0.00012934208,0.00010681152,0.2384886,0.0,-3.0517578e-05,2.9968262,-0.00057697296,9.802444,0.23760986,-0.21751404,9.801362,3.068149e-05
-0.012321206,0.010860081,-16.369629,0.99386233,-0.21687424,-38.461304,-0.00083623827,0.00016784668,0.23813179,-1.5258789e-05,3.0517578e-05,3.3935547,-0.0013418198,9.804596,0.2400055,-0.21679688,9.801359,-0.00055754185
-0.012331576,0.010885703,-15.41748,0.9938558,-0.21700796,-38.645935,-0.00020717084,0.00022888184,0.23866552,-0.0001373291,-0.00015258789,3.4332275,0.0019693375,9.805542,0.23976135,-0.21798706,9.801343,0.0017527491
-0.012364108,0.010880727,-15.170288,0.9938576,-0.21765748,-38.313293,-0.0007415563,0.0,0.23863398,-0.00018310547,-9.1552734e-05,3.930664,0.0005168915,9.804825,0.24023438,-0.21846008,9.80133,0.0008163005
-0.012370019,0.010910821,-15.965271,0.9938499,-0.21769193,-38.780212,-0.00022633374,0.00010681152,0.23924783,-0.0001373291,3.0517578e-05,3.9718628,0.0006570816,9.804108,0.23951721,-0.21679688,9.801314,0.001399219
-0.012346706,0.010905976,-16.33606,0.9938507,-0.21724917,-38.17444,0.0010067523,4.5776367e-05,0.23910233,-0.0001373291,3.0517578e-05,3.9611816,-0.00020503998,9.8033905,0.24072266,-0.21774292,9.801328,0.00011315942
-0.012367892,0.010933704,-15.667725,0.99384385,-0.21758859,-38.37738,-0.00080628693,0.00010681152,0.23970076,-6.1035156e-05,0.00015258789,3.022766,-0.00013542175,9.801956,0.23904419,-0.2182312,9.801306,0.00095005333
-0.012377525,0.01091441,-15.324402,0.99384904,-0.21782899,-38.490295,-0.0008214712,0.00010681152,0.23933524,-0.00019836426,-3.0517578e-05,3.7612915,-0.0010547638,9.805786,0.23976135,-0.21870422,9.801309,-0.00010599196
-0.012383363,0.010908661,-15.597534,0.99385065,-0.21795866,-38.015747,-0.00043220818,4.5776367e-05,0.23923251,-0.00019836426,9.1552734e-05,1.9012451,0.0013656616,9.807709,0.24119568,-0.21846008,9.801309,0.0004528761
-0.012372043,0.010940836,-15.591431,0.99384207,-0.21765049,-37.56714,0.0004618019,0.00010681152,0.23985198,-0.00019836426,-3.0517578e-05,2.0690918,0.0010728836,9.8022,0.23976135,-0.21487427,9.8013,0.0012542158
-0.0123405745,0.010927775,-15.617371,0.9938449,-0.21707045,-38.53302,0.0012951642,0.00010681152,0.2395252,-0.00019836426,-0.00015258789,1.5762329,-0.0018424988,9.804108,0.2400055,-0.21870422,9.801321,-7.452071e-05
-0.012368916,0.010928643,-15.716553,0.99384516,-0.21762227,-38.356018,-0.0005424768,-6.1035156e-05,0.23960176,-7.6293945e-05,-9.1552734e-05,2.2979736,0.0005245209,9.805313,0.23976135,-0.22038269,9.801308,0.00033058226
-0.012420702,0.010932133,-15.219116,0.9938451,-0.21862538,-37.64801,-0.0016807616,0.00010681152,0.23977964,-6.1035156e-05,9.1552734e-05,2.1636963,0.00083065033,9.806274,0.24072266,-0.2163086,9.80128,0.0003708005
-0.01237291,0.010928595,-15.162659,0.9938452,-0.21770048,-36.5448,0.0014721155,0.00016784668,0.23960914,-6.1035156e-05,-9.1552734e-05,3.1417847,0.00039577484,9.804108,0.24072266,-0.21583557,9.801305,6.389618e-05
-0.012351456,0.010968848,-15.222168,0.9938344,-0.21717228,-37.916565,0.0014161766,-6.1035156e-05,0.24036886,0.0,9.1552734e-05,3.2089233,-6.0081482e-05,9.805313,0.23951721,-0.21583557,9.801298,0.0017001778
-0.012308234,0.010933876,-14.764404,0.9938428,-0.21642166,-38.137817,0.0009100437,0.0,0.23957959,6.1035156e-05,-3.0517578e-05,3.4667969,0.000120162964,9.805313,0.23857117,-0.21678162,9.801334,-0.0018139333
-0.012318798,0.010931065,-14.898682,0.99384373,-0.21663578,-38.57727,0.00016565621,0.00022888184,0.23954545,-7.6293945e-05,-0.00015258789,2.4917603,0.00024604797,9.804108,0.24095154,-0.21534729,9.80133,0.0001245439
-0.012310557,0.010935551,-16.111755,0.9938424,-0.21646255,-38.01117,0.0007042736,0.00010681152,0.2396179,0.00012207031,-3.0517578e-05,2.9251099,-0.00047969818,9.803635,0.24191284,-0.21846008,9.801332,0.000775069
-0.012341915,0.010963143,-15.045166,0.9938357,-0.21700116,-37.854004,-0.0009236634,4.5776367e-05,0.2402349,-1.5258789e-05,-9.1552734e-05,2.5726318,-0.0014429092,9.803162,0.24191284,-0.21606445,9.801306,0.0018531829
-0.012334386,0.0109866,-14.865112,0.9938294,-0.21679054,-37.721252,0.0005441755,4.5776367e-05,0.24068795,-0.0001373291,3.0517578e-05,2.017212,-4.7683716e-06,9.805542,0.23976135,-0.21798706,9.801299,0.00091166794
-0.012370681,0.010954948,-15.753174,0.9938383,-0.21758576,-38.163757,-0.001287654,0.00016784668,0.24013123,-0.00032043457,3.0517578e-05,2.861023,0.0011148453,9.804352,0.23808289,-0.22013855,9.801295,-0.0006967336
-0.012379959,0.010908174,-15.242004,0.9938507,-0.21789342,-38.13629,-0.0009805113,0.00022888184,0.23921567,6.1035156e-05,-9.1552734e-05,2.8839111,-6.198883e-05,9.804108,0.2400055,-0.21655273,9.801311,-0.0007262081
-0.012379161,0.010917389,-15.377808,0.99384826,-0.21785295,-38.5437,0.00042821467,0.00016784668,0.23939818,0.0,-3.0517578e-05,2.9525757,-4.196167e-05,9.802444,0.24263,-0.21917725,9.801307,0.0007700771
-0.012398988,0.010942271,-15.026855,0.9938421,-0.21817347,-38.087463,-0.0007200241,0.00022888184,0.23993698,-6.1035156e-05,-0.00015258789,2.8121948,-0.0017957687,9.804108,0.23951721,-0.21798706,9.801288,0.0019155294
-0.0123994555,0.010931872,-14.152527,0.9938448,-0.21821068,-37.428284,0.0009911507,0.00016784668,0.23973008,6.1035156e-05,-3.0517578e-05,3.981018,-0.00039100647,9.804352,0.24095154,-0.21702576,9.801291,0.00022010505
-0.012386559,0.010949055,-14.582825,0.9938401,-0.2179121,-38.752747,-1.1429191e-05,0.0,0.24004656,-6.1035156e-05,0.00015258789,2.8259277,0.0011663437,9.806747,0.24143982,-0.21798706,9.801289,0.0010791272
-0.012373781,0.010964619,-15.376282,0.99383587,-0.21762022,-38.093567,0.0004312843,0.000289917,0.240331,-6.1035156e-05,-3.0517578e-05,3.036499,0.0015668869,9.806747,0.2416687,-0.21894836,9.80129,0.0010193884
-0.012409504,0.0109709455,-14.700317,0.9938348,-0.2183016,-38.82599,-0.0010336041,0.00012207031,0.24053209,-6.1035156e-05,-9.1552734e-05,2.1774292,0.00040340424,9.805069,0.24287415,-0.21870422,9.801269,0.00081278384
-0.01241357,0.010981218,-15.435791,0.9938322,-0.21835332,-39.164734,-0.0002541691,0.00022888184,0.24074592,6.1035156e-05,3.0517578e-05,3.1066895,0.0008993149,9.804825,0.23904419,-0.21942139,9.801262,0.0015485585
-0.012424625,0.010951502,-15.519714,0.9938401,-0.21864979,-39.100647,-0.00044186413,0.00016784668,0.24017502,0.0,-3.0517578e-05,2.9418945,-0.000998497,9.80603,0.23976135,-0.2163086,9.80127,-0.0009806901
-0.012377167,0.010924839,-15.122986,0.9938463,-0.21723802,-37.417603,0.0014864355,0.00010681152,0.23889388,0.0,-9.1552734e-05,2.5726318,-0.0007696152,9.803635,0.24287415,-0.21870422,9.801332,-0.0009033531
-0.012385387,0.01094195,-15.766907,0.99384195,-0.21790838,-37.78076,-0.00096583366,0.00016784668,0.23990212,0.00018310547,-3.0517578e-05,2.7023315,-0.0009937286,9.803635,0.24143982,-0.2182312,9.801293,0.0026462525
-0.012379871,0.010968235,-15.597534,0.993835,-0.21772951,-38.43689,0.00027897954,0.00010681152,0.24041598,6.1035156e-05,3.0517578e-05,2.9449463,-0.0009965897,9.801712,0.23928833,-0.21440125,9.801284,0.0018997788
-0.012323205,0.010955076,-15.409851,0.99383754,-0.21665713,-38.604736,0.0023003668,-6.1035156e-05,0.24003455,-0.00019836426,-0.00015258789,2.4673462,-0.0016183853,9.803635,0.23832703,-0.21798706,9.801318,-0.0010396391
-0.012356488,0.0109099895,-14.953613,0.9938499,-0.2174296,-37.74109,-0.0007496625,-0.00012207031,0.23920295,-1.5258789e-05,-3.0517578e-05,3.944397,0.00068950653,9.8029175,0.24023438,-0.21655273,9.801321,-0.0018943697
-0.012322264,0.010935697,-16.82434,0.99384254,-0.21669105,-39.294434,0.0011405647,4.5776367e-05,0.23964527,0.00018310547,-3.0517578e-05,3.0456543,-0.0009784698,9.8033905,0.23928833,-0.21679688,9.801327,0.0010320991
-0.012340076,0.010923736,-16.653442,0.993846,-0.21707161,-37.953186,-0.0003979802,0.00022888184,0.23944344,0.0,3.0517578e-05,2.4993896,0.00030517578,9.8033905,0.23928833,-0.21534729,9.801323,-0.000204131
-0.012297725,0.010937391,-16.148376,0.9938417,-0.21620667,-38.34381,0.0013786852,-0.00012207031,0.23962785,0.0,3.0517578e-05,3.4851074,0.00019931793,9.8029175,0.23951721,-0.21655273,9.801337,0.00055523217
-0.0123358285,0.010923305,-17.01355,0.993846,-0.21698971,-38.104248,-0.0019174963,0.00010681152,0.23942593,-1.5258789e-05,3.0517578e-05,2.5665283,-0.00051021576,9.805542,0.23857117,-0.21942139,9.801325,-0.0004271418
-0.0123325465,0.010892618,-15.464783,0.993854,-0.21700832,-37.5,0.0002849251,0.00010681152,0.23880579,-6.1035156e-05,-0.00015258789,2.8778076,0.0015716553,9.804108,0.2368927,-0.21343994,9.80134,-0.0007869601
-0.012296163,0.010856667,-16.305542,0.9938628,-0.21639377,-37.72278,0.0018202811,0.00016784668,0.2380113,-0.00019836426,-9.1552734e-05,2.2766113,-6.0081482e-05,9.801239,0.24143982,-0.21702576,9.801373,-0.0011809021
-0.01231235,0.010913268,-15.585327,0.99384826,-0.21655774,-38.667297,-0.00019796193,0.0,0.23917632,6.1035156e-05,9.1552734e-05,3.1051636,-0.0014772415,9.804596,0.23832703,-0.2141571,9.801341,0.0026910603
-0.012250177,0.010896556,-15.95459,0.9938516,-0.21538717,-38.964844,0.0019922405,0.0,0.2387125,-0.0001373291,3.0517578e-05,3.0044556,0.00043678284,9.805069,0.24023438,-0.21583557,9.801378,-0.0009083897
-0.012282195,0.010926249,-15.789795,0.9938444,-0.2159331,-37.815857,-0.0010313541,0.00010681152,0.23937277,-1.5258789e-05,-9.1552734e-05,3.4240723,0.0014095306,9.802673,0.23928833,-0.21487427,9.801351,0.0015108138
-0.012258882,0.010907911,-15.811157,0.9938488,-0.21552676,-38.28888,0.0011792034,0.00022888184,0.2389576,-0.0001373291,9.1552734e-05,1.9729614,-0.0006494522,9.803635,0.24143982,-0.21559143,9.80137,-0.00020183623
-0.012246187,0.010943244,-15.144348,0.9938393,-0.21518317,-38.2782,0.0003528595,0.00010681152,0.23963712,-1.5258789e-05,-0.00021362305,3.2089233,-0.00091838837,9.802444,0.24072266,-0.21559143,9.80136,0.0019826144
-0.012284116,0.010957321,-14.9887085,0.9938363,-0.21588674,-37.757874,-0.0003735423,4.5776367e-05,0.23999768,-6.1035156e-05,-0.00021362305,2.3345947,0.00034999847,9.804825,0.24215698,-0.21655273,9.801335,0.00090014935
-0.012300383,0.01098773,-15.003967,0.9938286,-0.21612263,-37.07733,0.0001077652,0.0,0.2406394,-1.5258789e-05,0.00015258789,2.178955,7.1525574e-05,9.8029175,0.23976135,-0.21846008,9.801314,0.0016912669
-0.012337113,0.0109524755,-15.969849,0.9938384,-0.21693608,-37.9364,-0.0024385005,0.0,0.24001165,0.0,-3.0517578e-05,1.8051147,-0.00028133392,9.804108,0.23928833,-0.21846008,9.801312,-0.0014922768
-0.012349435,0.010935133,-16.088867,0.99384314,-0.21722384,-39.149475,-0.00023835897,0.0,0.23969078,-0.0002593994,-9.1552734e-05,3.161621,0.00045490265,9.803879,0.23832703,-0.21559143,9.801313,-0.00045965612
-0.012328623,0.0109219905,-15.934753,0.99384624,-0.21685237,-38.822937,0.0010680109,0.00022888184,0.2393846,-0.0002593994,-9.1552734e-05,3.3294678,-9.536743e-06,9.806503,0.2400055,-0.21798706,9.801329,-0.00064112246
-0.012354847,0.010916899,-16.212463,0.993848,-0.21737887,-38.58795,-0.00100483,0.00010681152,0.23933764,-0.0001373291,-3.0517578e-05,3.5614014,0.002213478,9.801956,0.23904419,-0.21774292,9.801319,0.0010567755
-0.01234364,0.010898576,-16.159058,0.9938526,-0.21720916,-38.339233,0.00095403194,0.00016784668,0.23894799,-0.00019836426,-9.1552734e-05,3.3248901,-0.00203228,9.801483,0.23880005,-0.2131958,9.8013315,-0.00043563545
-0.012297232,0.01089816,-15.774536,0.99385196,-0.21630287,-38.154602,0.0017142594,0.00016784668,0.2388428,-0.0001373291,0.00015258789,2.5390625,-0.0010356903,9.805069,0.24047852,-0.21607971,9.801354,0.00039969385
-0.012278419,0.010903598,-15.518188,0.99385023,-0.21592037,-39.401245,0.00037679076,0.00016784668,0.23891218,-6.1035156e-05,3.0517578e-05,2.9403687,0.0005750656,9.801483,0.23928833,-0.21655273,9.801361,0.0005521029
-0.012286952,0.010905571,-16.386414,0.9938499,-0.21608189,-38.453674,-0.00043076277,0.00010681152,0.23896945,-0.00032043457,3.0517578e-05,3.1524658,-0.00072956085,9.804352,0.23808289,-0.2131958,9.801356,0.00050345063
-0.01223542,0.010881415,-16.622925,0.9938553,-0.21513945,-38.189697,0.001736939,0.00016784668,0.23837912,-0.0001373291,-0.00015258789,2.9006958,-0.00017929077,9.801956,0.24119568,-0.21751404,9.801392,-0.00033770502
-0.012311974,0.010929197,-16.763306,0.9938441,-0.21650739,-38.70392,-0.002159223,0.00010681152,0.23949388,-7.6293945e-05,-9.1552734e-05,1.8463135,-0.000120162964,9.801483,0.24072266,-0.21798706,9.801334,0.0028656274
-0.012317049,0.0109143,-16.325378,0.9938481,-0.21664685,-38.090515,0.000114917755,0.000289917,0.23920678,-7.6293945e-05,-9.1552734e-05,1.9500732,-0.0015134811,9.802673,0.23904419,-0.21798706,9.801339,-0.00042968988
-0.012343954,0.010905926,-16.395569,0.9938507,-0.21719548,-38.676453,-0.0007674247,0.00022888184,0.23909557,6.1035156e-05,-3.0517578e-05,2.987671,0.00025463104,9.805069,0.2400055,-0.21942139,9.801329,0.0011122227
-0.012327808,0.010882587,-16.967773,0.99385655,-0.21694271,-38.528442,0.0018450469,0.000289917,0.2385954,-0.0002593994,9.1552734e-05,2.079773,-0.002234459,9.801239,0.237854,-0.21463013,9.801347,0.0004259944
-0.012327138,0.010914435,-15.7196045,0.9938482,-0.21684372,-39.07776,0.00031495094,0.00022888184,0.2392305,-0.00032043457,-9.1552734e-05,3.2577515,0.00025749207,9.801239,0.23951721,-0.21559143,9.801332,0.0016946048
-0.012304241,0.010929972,-16.27655,0.99384373,-0.21635412,-38.86261,0.0010449439,0.00010681152,0.23949322,-0.0001373291,-9.1552734e-05,2.5909424,0.0012865067,9.807709,0.24072266,-0.21534729,9.801338,0.00118725
-0.012262464,0.010912357,-16.395569,0.99384767,-0.2155848,-37.77466,0.0019194782,0.000289917,0.23905392,-0.0001373291,3.0517578e-05,3.0761719,-0.0016965866,9.801956,0.24215698,-0.21655273,9.801366,-0.00051881373
-0.012316631,0.010973676,-16.35437,0.9938325,-0.21647832,-36.392212,-0.0017188191,4.5776367e-05,0.24039254,-0.00019836426,-9.1552734e-05,2.7664185,0.0012521744,9.803635,0.24143982,-0.21917725,9.801313,0.003633961
-0.012372115,0.0109528825,-14.86969,0.9938389,-0.21761936,-37.911987,-0.0017474741,0.00022888184,0.24009292,0.0,-9.1552734e-05,2.9800415,0.0017900467,9.805786,0.23976135,-0.21702576,9.801295,8.125603e-05
-0.0123607665,0.010940246,-16.137695,0.993842,-0.21743159,-38.874817,0.00071400404,0.000289917,0.23981664,-7.6293945e-05,-0.00015258789,3.5614014,0.000875473,9.800293,0.23760986,-0.21798706,9.801306,0.00011821091
-0.012371581,0.010876035,-15.12146,0.99385893,-0.21781625,-41.415405,-0.0003747195,0.00010681152,0.23855579,0.0,-3.0517578e-05,4.312134,-0.002128601,9.800049,0.24047852,-0.21487427,9.801329,-0.0014630109
-0.012327845,0.01090659,-15.376282,0.9938503,-0.21687873,-40.766907,0.0020216256,4.5776367e-05,0.2390752,-0.00032043457,-9.1552734e-05,3.8208008,-0.0020627975,9.803162,0.237854,-0.21679688,9.801336,0.0013844073
-0.012323058,0.01089896,-15.536499,0.9938522,-0.21680573,-41.51306,0.000261724,0.0,0.23891275,-0.0001373291,3.0517578e-05,4.612732,-0.0007419586,9.805069,0.24047852,-0.21942139,9.801343,-0.0005953461
-0.012371314,0.010927114,-16.531372,0.99384564,-0.21767326,-41.882324,-0.0017032623,-6.1035156e-05,0.23957618,-6.1035156e-05,3.0517578e-05,4.9682617,0.0031766891,9.805069,0.24191284,-0.2172699,9.801306,0.0015701056
-0.012338327,0.010936588,-15.727234,0.9938426,-0.21700272,-39.375305,0.00097329915,0.00010681152,0.23969665,-0.00019836426,-3.0517578e-05,3.0929565,0.00051784515,9.801483,0.23904419,-0.21702576,9.801318,0.00025327504
-0.012373576,0.010946364,-15.538025,0.99384063,-0.21766552,-38.838196,-0.0017044991,0.00022888184,0.23996569,-6.1035156e-05,0.00015258789,3.829956,2.3841858e-05,9.8029175,0.24215698,-0.21870422,9.801297,0.0009292066
-0.012379977,0.0109433085,-16.114807,0.9938415,-0.21779893,-38.537598,-0.00014518201,0.00016784668,0.23991798,-0.0001373291,-3.0517578e-05,2.8427124,-0.0007839203,9.804825,0.24263,-0.21894836,9.801295,0.0007573664
-0.012392287,0.010999585,-15.501404,0.993827,-0.21788755,-38.206482,-0.00029870868,-6.1035156e-05,0.24106857,-6.1035156e-05,3.0517578e-05,3.3538818,0.0001039505,9.805069,0.24047852,-0.21798706,9.801266,0.0027171671
-0.0123902,0.010972084,-15.908813,0.99383414,-0.2179211,-38.937378,7.8976154e-07,-6.1035156e-05,0.24051452,0.0,-3.0517578e-05,2.6062012,0.001994133,9.80484,0.23904419,-0.21751404,9.801278,-0.001299873
-0.012382218,0.010959059,-15.795898,0.9938374,-0.21780021,-39.315796,0.00035315752,0.00016784668,0.24023749,-6.1035156e-05,9.1552734e-05,3.1707764,5.054474e-05,9.807465,0.237854,-0.21702576,9.801288,-0.0007941425
-0.012355082,0.010885601,-16.455078,0.9938562,-0.21746784,-37.98828,0.00027869642,0.00016784668,0.23871253,6.1035156e-05,-3.0517578e-05,4.359436,0.0013036728,9.803635,0.23976135,-0.21655273,9.8013315,-0.0019084811
-0.012356325,0.010914789,-15.167236,0.99384856,-0.21741346,-38.87024,0.00046412647,4.5776367e-05,0.23929854,-0.0001373291,-0.00015258789,2.7999878,-0.00041294098,9.805786,0.23951721,-0.21606445,9.801319,0.0015688837
-0.012313971,0.010918398,-16.159058,0.99384695,-0.21657561,-38.339233,0.0017810911,0.0,0.23928224,-0.00019836426,-0.00015258789,3.3248901,0.00036525726,9.8029175,0.23904419,-0.21487427,9.801338,0.00014685094
-0.012322235,0.010917854,-16.099548,0.99384725,-0.21673864,-38.243103,2.7239323e-05,0.00022888184,0.23928861,0.0,9.1552734e-05,3.086853,-0.00087451935,9.803879,0.2400055,-0.21917725,9.801334,0.00015108287
-0.012329685,0.010893532,-15.209961,0.9938537,-0.21694991,-38.56659,-0.0005055368,0.00035095215,0.23881808,0.00018310547,0.00021362305,4.40979,-0.0010709763,9.8033905,0.23951721,-0.21487427,9.801342,0.000161618
-0.012298607,0.01091625,-14.77356,0.99384725,-0.216281,-38.35907,0.00075253844,0.0,0.23920721,-6.1035156e-05,9.1552734e-05,3.3035278,0.00039577484,9.804352,0.24143982,-0.21702576,9.801347,0.0014458001
-0.012293682,0.010929311,-15.884399,0.99384373,-0.21614945,-38.99231,-0.00010021031,0.00010681152,0.23945794,-0.0002593994,-3.0517578e-05,4.0527344,-0.00038146973,9.805542,0.23808289,-0.21343994,9.801343,0.0007111281
-0.012232816,0.010911909,-15.911865,0.9938473,-0.2150063,-39.582825,0.0018866211,4.5776367e-05,0.23898304,6.1035156e-05,3.0517578e-05,3.5644531,0.0016527176,9.805313,0.24191284,-0.21343994,9.80138,-0.0005117506
-0.012235532,0.010940111,-16.856384,0.99384,-0.2149833,-39.100647,0.00018180907,0.00010681152,0.23955224,-0.0001373291,0.00015258789,3.691101,-0.00033283234,9.803879,0.23951721,-0.21894836,9.801367,0.0013181865
-0.012275705,0.01097332,-16.207886,0.99383193,-0.21567906,-37.913513,-0.0005736202,-0.00012207031,0.24029984,-0.00019836426,-9.1552734e-05,3.7277222,-0.00095558167,9.805313,0.23904419,-0.21559143,9.801332,0.0013065934
-0.012287225,0.010974357,-16.487122,0.9938319,-0.2159015,-38.050842,-0.000108763576,0.00010681152,0.24034463,6.1035156e-05,-3.0517578e-05,3.8757324,-0.00015258789,9.802673,0.24143982,-0.21511841,9.801327,-0.00039947033
-0.012242811,0.010973885,-16.37268,0.9938313,-0.21503438,-39.512634,0.00092466176,-6.1035156e-05,0.24024232,-6.1035156e-05,0.0002746582,3.2241821,-0.0005912781,9.803879,0.23808289,-0.21679688,9.801349,0.0004273951
-0.012264938,0.010938781,-14.881897,0.9938408,-0.21556184,-37.756348,-0.001415506,0.00022888184,0.23958711,-6.1035156e-05,-9.1552734e-05,2.82135,8.106232e-05,9.803635,0.2416687,-0.21487427,9.8013525,-0.0013138801
-0.012273761,0.010961431,-15.705872,0.99383503,-0.2156732,-38.031006,0.0001258403,0.00010681152,0.24005818,-0.0002593994,-3.0517578e-05,3.5888672,-0.00042438507,9.800766,0.24024963,-0.21774292,9.801339,0.001332596
-0.012293611,0.010955416,-15.049744,0.99383694,-0.21607755,-37.672424,-0.0009139329,0.00010681152,0.23997946,-7.6293945e-05,-3.0517578e-05,3.6193848,-0.00092983246,9.805069,0.23928833,-0.21487427,9.8013315,0.00046099722
-0.012277613,0.010950398,-14.959717,0.99383795,-0.21577832,-37.81433,0.0009364933,0.00010681152,0.23984575,-0.00019836426,-9.1552734e-05,3.8619995,-0.00014209747,9.800049,0.24119568,-0.21606445,9.801342,0.00012367964
-0.01230468,0.010954898,-15.785217,0.99383724,-0.21629538,-37.66632,-0.00069861114,4.5776367e-05,0.23999225,-0.0001373291,-3.0517578e-05,3.5049438,-9.346008e-05,9.8022,0.24119568,-0.21751404,9.801326,0.00045099854
-0.012320746,0.010966423,-16.020203,0.9938345,-0.21657838,-37.85553,-0.00042645633,0.00022888184,0.24025619,-6.1035156e-05,-9.1552734e-05,3.2531738,-0.0010213852,9.804596,0.23976135,-0.2163086,9.801314,0.0009163022
-0.0123157315,0.010930966,-14.871216,0.9938437,-0.21657608,-36.9812,0.0003053099,0.0,0.23953708,-0.0001373291,9.1552734e-05,4.194641,0.0015525818,9.804825,0.2400055,-0.21702576,9.8013315,-0.00053472817
-0.012318551,0.0109523265,-16.004944,0.99383813,-0.21657354,-37.786865,-0.00039209425,0.00022888184,0.23996986,-0.00019836426,-0.00015258789,3.4942627,0.001988411,9.804108,0.24023438,-0.21702576,9.801321,0.0009150803
-0.012343919,0.010927185,-15.887451,0.99384516,-0.21713744,-38.720703,-0.0005516708,0.00022888184,0.23952042,6.1035156e-05,-9.1552734e-05,2.9281616,-0.0006017685,9.804352,0.24072266,-0.2182312,9.80132,0.00018158555
-0.0123613635,0.010934812,-16.165161,0.99384344,-0.21745795,-37.434387,-0.0002245754,1.5258789e-05,0.23970929,0.00019836426,-0.00016784668,3.3309937,0.00056552887,9.805542,0.23976135,-0.21749878,9.801309,0.00070264935
-0.01237671,0.010938973,-16.671753,0.9938426,-0.21774678,-38.0661,7.393956e-05,-9.1552734e-05,0.2398245,6.1035156e-05,-4.5776367e-05,3.3035278,0.00085926056,9.805069,0.2416687,-0.21846008,9.801299,0.00033266842
-0.012383339,0.01097465,-15.82489,0.99383336,-0.21778,-37.99591,0.00010858476,1.5258789e-05,0.24055147,-6.1035156e-05,-0.00010681152,3.9840698,9.727478e-05,9.801956,0.24047852,-0.2163086,9.80128,0.001282379
-0.01236531,0.010954204,-15.406799,0.9938384,-0.21748273,-38.650513,0.001477465,0.0001373291,0.2401051,-0.00018310547,-0.00010681152,3.5949707,-0.0010480881,9.803162,0.23880005,-0.21678162,9.801297,-0.00088213384
-0.012354341,0.010944241,-15.536499,0.9938409,-0.21729517,-38.34076,8.010864e-05,0.0001373291,0.23988305,-0.00012207031,7.6293945e-05,2.7877808,-0.0003900528,9.805069,0.23976135,-0.21798706,9.801307,6.1914325e-05
-0.012356565,0.010919844,-15.78064,0.99384725,-0.21740451,-37.594604,-0.00028124452,-4.5776367e-05,0.23940006,7.6293945e-05,-4.5776367e-05,3.5873413,0.00021457672,9.803879,0.23976135,-0.21798706,9.801316,-0.00066295266
-0.01238084,0.010949498,-15.322876,0.9938399,-0.21779908,-38.446045,-0.00060866773,1.5258789e-05,0.24004348,7.6293945e-05,-0.00022888184,2.7160645,-0.00048542023,9.800995,0.24072266,-0.21368408,9.801291,0.0010945201
-0.012309527,0.010951039,-15.565491,0.9938383,-0.21640056,-38.450623,0.0037146658,-9.1552734e-05,0.23992528,-0.00018310547,1.5258789e-05,3.4301758,-0.0012845993,9.805069,0.24072266,-0.21655273,9.801326,-0.00020483136
-0.012320238,0.0109723825,-15.142822,0.99383295,-0.21655235,-37.228394,-0.0004156679,7.6293945e-05,0.24037424,-6.1035156e-05,-4.5776367e-05,3.37677,0.0018606186,9.803146,0.24119568,-0.21679688,9.801312,0.0007573515
-0.01232699,0.010975739,-16.093445,0.9938322,-0.21667528,-38.468933,-6.7681074e-05,1.5258789e-05,0.2404554,-6.1035156e-05,-0.00010681152,3.1661987,-0.00035572052,9.804825,0.2400055,-0.21534729,9.801307,0.00020740926
-0.01230806,0.010964055,-15.382385,0.9938349,-0.21633676,-37.00714,0.0010526925,0.0001373291,0.24018234,-0.00010681152,-0.00010681152,4.173279,0.00088214874,9.802444,0.23760986,-0.21606445,9.801322,-0.00024704635
-0.01230809,0.0109164445,-14.376831,0.99384737,-0.21646588,-37.879944,0.00019843876,0.0001373291,0.23923092,-4.5776367e-05,-0.00010681152,2.7618408,-0.0019664764,9.803635,0.24119568,-0.21774292,9.801342,-0.0014224052
-0.0123267565,0.010937812,-15.888977,0.99384207,-0.21677317,-38.494873,-0.00021125376,7.6293945e-05,0.23969692,1.5258789e-05,-0.00010681152,2.9312134,-3.0517578e-05,9.8022,0.2400055,-0.21606445,9.801323,0.0014530569
-0.012345553,0.010939242,-14.193726,0.993842,-0.21713684,-37.443542,0.0001540333,-4.5776367e-05,0.23976478,-6.1035156e-05,-0.00016784668,2.2903442,0.00013828278,9.803879,0.24023438,-0.2172699,9.801313,0.00019328296
-0.012339147,0.010949503,-14.059448,0.9938392,-0.21698387,-37.52899,0.0004786253,1.5258789e-05,0.23995647,0.0001373291,0.0001373291,3.1829834,0.00042057037,9.8033905,0.24023438,-0.21846008,9.801312,0.00022538006
-0.012355451,0.010951488,-14.120483,0.99383897,-0.21729729,-37.12616,-0.0016160756,-9.1552734e-05,0.24003024,-0.00012207031,-4.5776367e-05,2.2964478,-0.0011701584,9.8033905,0.24191284,-0.21559143,9.801304,-6.340444e-05
-0.012339488,0.011002515,-14.717102,0.9938254,-0.21684723,-38.414,0.0010541826,-4.5776367e-05,0.2410167,-6.1035156e-05,0.0001373291,3.0639648,0.00066661835,9.801727,0.24072266,-0.21751404,9.80129,0.0018101633
-0.012346408,0.01098346,-14.700317,0.99383044,-0.21703409,-37.817383,-0.00043964386,7.6293945e-05,0.24065033,-0.00018310547,1.5258789e-05,3.3920288,-0.00019741058,9.806274,0.24311829,-0.21487427,9.801294,-0.00068952143
-0.012316824,0.011028478,-14.912415,0.99381816,-0.21633382,-38.720703,0.0017671883,7.6293945e-05,0.24148814,-0.00012207031,-0.00010681152,2.2491455,0.002108574,9.804108,0.23951721,-0.21798706,9.80129,0.0017881393
-0.012331522,0.010976858,-15.065002,0.99383193,-0.21676087,-37.99591,-0.00092437863,-9.1552734e-05,0.24048728,1.5258789e-05,-4.5776367e-05,2.2476196,-0.00052165985,9.803146,0.24168396,-0.21534729,9.801305,-0.0015070736
-0.012371654,0.010980964,-14.801025,0.9938315,-0.21753447,-38.27362,-0.0032567978,7.6293945e-05,0.24065325,7.6293945e-05,-0.00010681152,2.9022217,0.00040912628,9.805313,0.2409668,-0.21894836,9.801284,-0.0004901588
-0.012382516,0.0109937815,-14.460754,0.99382836,-0.21771218,-37.40692,-0.00066776574,-0.00021362305,0.24093214,0.00019836426,0.0001373291,3.7277222,0.0013790131,9.802429,0.24119568,-0.21870422,9.801272,0.0006631315
-0.012420536,0.011007311,-14.752197,0.99382544,-0.21841896,-37.872314,-0.0011857301,-9.1552734e-05,0.24128208,0.00019836426,-0.00010681152,2.5848389,-0.0017786026,9.804352,0.24072266,-0.21870422,9.801248,-0.00015361607
-0.012385641,0.0110015785,-15.348816,0.9938264,-0.2177522,-37.158203,0.0012694597,-0.00015258789,0.24109451,7.6293945e-05,7.6293945e-05,2.4856567,0.0008955002,9.804825,0.23880005,-0.2163086,9.801268,-0.0011665076
-0.012358843,0.0109885875,-15.359497,0.9938293,-0.21726336,-37.347412,0.0012207627,7.6293945e-05,0.2407788,-0.00012207031,-4.5776367e-05,3.3660889,-0.0029115677,9.807938,0.24263,-0.21678162,9.801286,-0.00058557093
-0.012391436,0.010991474,-14.489746,0.99382913,-0.21789281,-37.919617,-0.00096333027,0.0001373291,0.24090464,1.5258789e-05,-0.00022888184,3.2409668,0.004916191,9.8029175,0.23640442,-0.22038269,9.801269,0.0006620884
-0.012413654,0.010922675,-15.406799,0.9938475,-0.2185131,-37.6297,-0.0003476441,-9.1552734e-05,0.23957588,-0.00010681152,-0.00010681152,2.6382446,-0.0003786087,9.806503,0.24359131,-0.21702576,9.801288,-0.0025503784
-0.012406258,0.010986132,-15.441895,0.99383074,-0.21819708,-38.259888,0.00030755997,-4.5776367e-05,0.24082887,-6.1035156e-05,7.6293945e-05,3.1143188,0.0008573532,9.80603,0.2400055,-0.21942139,9.801264,0.0021664947
-0.012428899,0.010962883,-14.666748,0.9938372,-0.2187026,-37.860107,-0.0008588135,3.0517578e-05,0.24041145,1.5258789e-05,1.5258789e-05,2.748108,0.00057411194,9.80603,0.24406433,-0.21607971,9.801262,-0.0010087043
-0.012360399,0.011016377,-14.651489,0.9938221,-0.21721858,-38.0188,0.002917841,-9.1552734e-05,0.2413375,1.5258789e-05,0.0001373291,2.9891968,-0.00025081635,9.80484,0.23783875,-0.21678162,9.801273,0.0021421611
-0.012347299,0.01098777,-14.726257,0.99382937,-0.21703982,-38.33313,-0.00013901293,-4.5776367e-05,0.24073832,0.0001373291,-0.00010681152,2.9037476,-0.00080776215,9.804596,0.24119568,-0.21751404,9.801291,-0.0017951131
-0.012372028,0.0109820645,-15.155029,0.9938313,-0.2175388,-37.524414,-0.0005981028,0.00019836426,0.24067602,1.5258789e-05,-0.00010681152,3.1341553,0.00025558472,9.805557,0.24215698,-0.21606445,9.801283,0.00017119944
-0.012358127,0.0109900655,-16.482544,0.99382895,-0.21724539,-37.8891,0.0010222197,0.0001373291,0.24080688,-0.00030517578,1.5258789e-05,1.7837524,-0.00078868866,9.804108,0.24143982,-0.21798706,9.801287,0.0010112673
-0.012366864,0.011009928,-15.748596,0.9938239,-0.21736246,-37.26349,-0.0003039539,-3.0517578e-05,0.24122213,-0.00010681152,-0.00010681152,3.0303955,-0.00084400177,9.801483,0.23904419,-0.21774292,9.801273,0.0010788292
-0.012361878,0.010964163,-14.48822,0.99383575,-0.21738872,-37.168884,0.0004131496,1.5258789e-05,0.24029699,0.0001373291,1.5258789e-05,3.326416,-0.0023183823,9.806747,0.24191284,-0.2191925,9.801295,-0.0020254403
-0.012395103,0.010976287,-14.535522,0.9938331,-0.2180056,-38.201904,-0.0015819222,1.5258789e-05,0.24060877,1.5258789e-05,-4.5776367e-05,2.5115967,0.002439499,9.805069,0.23760986,-0.21989441,9.801273,0.00074493885
-0.012413977,0.010926068,-14.839172,0.9938466,-0.21851029,-37.58087,-0.0008364171,-0.00015258789,0.23964438,-0.00018310547,0.00019836426,2.4215698,-0.00028514862,9.806503,0.24095154,-0.21583557,9.801287,-0.001887545
-0.01237285,0.010951806,-15.065002,0.9938392,-0.21763663,-38.072205,0.00093495846,1.5258789e-05,0.24007292,-0.00024414062,1.5258789e-05,2.2476196,0.0018825531,9.8022,0.24047852,-0.21751404,9.801294,0.00054471195
-0.012376178,0.010976014,-14.584351,0.9938329,-0.21763629,-37.928772,0.00019440055,-4.5776367e-05,0.24056375,-0.00030517578,-0.00010681152,2.9129028,-0.002087593,9.805786,0.24215698,-0.21583557,9.801283,0.0005521625
-0.012348074,0.010987432,-14.529419,0.9938294,-0.2170559,-41.63208,0.0020149797,0.00032043457,0.24073319,-6.1035156e-05,-0.00016784668,3.288269,0.0005226135,9.802673,0.23760986,-0.2172699,9.801291,0.0008648336
-0.012347727,0.010914178,-15.155029,0.9938486,-0.21724701,-39.674377,-0.0001885891,7.6293945e-05,0.23926838,-6.1035156e-05,-0.00010681152,4.0008545,-0.0012559891,9.8033905,0.24095154,-0.21870422,9.801324,-0.0019722432
-0.012394157,0.010935703,-14.686584,0.99384373,-0.21778241,-39.131165,0.0005643815,1.5258789e-05,0.23983252,-0.00018310547,1.5258789e-05,2.3361206,-0.0002412796,9.8029175,0.24023438,-0.21846008,9.801297,0.00011584163
-0.012378562,0.010939182,-15.620422,0.9938426,-0.21727493,-39.02893,0.0009938478,-9.1552734e-05,0.24121323,1.5258789e-05,-4.5776367e-05,2.5390625,-0.0022230148,9.80101,0.24240112,-0.21534729,9.801275,0.0023475438
-0.012362391,0.011009951,-14.878845,0.99382377,-0.21731286,-38.208008,-0.0004017055,0.0001373291,0.24023218,-0.00012207031,-4.5776367e-05,2.8182983,9.6321106e-05,9.804352,0.2400055,-0.21606445,9.801298,-0.0012193173
-0.012342232,0.0109609775,-15.032959,0.9938363,-0.2170132,-39.33258,0.0007458776,1.5258789e-05,0.24019225,-0.00012207031,-4.5776367e-05,3.6865234,0.0011816025,9.801239,0.23976135,-0.21559143,9.801306,0.00024057925
-0.012320675,0.010959348,-15.335083,0.99383634,-0.21659611,-38.56201,0.00078733265,0.0001373291,0.24011463,1.5258789e-05,1.5258789e-05,3.5980225,-0.0012903214,9.802429,0.24334717,-0.21655273,9.801317,9.004772e-05
-0.012328038,0.010999181,-14.839172,0.99382603,-0.2166324,-37.58087,0.000106185675,-0.00015258789,0.24092613,-6.1035156e-05,-0.00010681152,2.4215698,-6.771088e-05,9.805069,0.23808289,-0.21655273,9.801297,0.0019185245
-0.012334977,0.010959367,-14.746094,0.9938366,-0.2168757,-36.447144,-0.00010496378,7.6293945e-05,0.24014492,0.00019836426,-4.5776367e-05,2.8381348,0.0017204285,9.800278,0.2400055,-0.21702576,9.801311,-0.0018678159
-0.012336632,0.010959351,-14.865112,0.9938366,-0.2169081,-38.0661,0.0001578331,1.5258789e-05,0.24014807,0.0001373291,-4.5776367e-05,3.060913,-0.0012426376,9.803635,0.24143982,-0.21774292,9.80131,5.160272e-05
-0.0123541625,0.010961765,-14.523315,0.9938363,-0.21724436,-37.576294,-0.00047445297,1.5258789e-05,0.24023294,7.6293945e-05,-0.00016784668,3.8833618,-0.0006752014,9.804596,0.24072266,-0.2163086,9.8013,0.00021892786
-0.012350597,0.010979826,-15.42511,0.99383146,-0.21712583,-36.98883,0.00085765123,7.6293945e-05,0.24058647,1.5258789e-05,7.6293945e-05,3.5263062,0.0014772415,9.801956,0.24072266,-0.21655273,9.801294,0.0008085668
-0.012340635,0.010961765,-15.637207,0.99383605,-0.21697986,-38.24005,-5.438924e-06,7.6293945e-05,0.24020468,-0.00018310547,-0.00016784668,3.5079956,1.2397766e-05,9.804108,0.24023438,-0.21870422,9.801307,-0.00024396181
-0.012360747,0.010970319,-15.525818,0.99383414,-0.21734998,-37.6709,-0.00059075654,7.6293945e-05,0.24041767,-0.00012207031,7.6293945e-05,3.0349731,0.0004968643,9.807465,0.23951721,-0.21774292,9.801293,0.0004826337
-0.012360274,0.010940403,-14.976501,0.99384195,-0.21742153,-37.989807,-1.9699335e-05,7.6293945e-05,0.23981874,0.00019836426,-0.00010681152,2.494812,0.0024032593,9.802673,0.23976135,-0.21559143,9.801306,-0.0006107092
-0.012340684,0.010950795,-14.344788,0.9938389,-0.21701045,-37.47101,0.0012473911,-0.00015258789,0.23998553,0.00032043457,1.5258789e-05,2.2033691,9.536743e-06,9.8029175,0.23976135,-0.21463013,9.8013115,0.00016866624
-0.012296315,0.010949793,-15.219116,0.9938384,-0.21614562,-38.293457,0.0013079494,-4.5776367e-05,0.23987278,1.5258789e-05,0.0001373291,3.2058716,-0.003189087,9.805069,0.23808289,-0.21559143,9.801333,-0.0006250888
-0.012276276,0.010923027,-15.19928,0.9938451,-0.21582606,-38.002014,0.0002965629,-4.5776367e-05,0.239296,1.5258789e-05,1.5258789e-05,3.5308838,0.0023374557,9.805313,0.24072266,-0.21655273,9.801354,-0.0010376126
-0.01228694,0.010930031,-14.445496,0.99384344,-0.21601565,-36.766052,-0.00046655536,-9.1552734e-05,0.23945822,7.6293945e-05,-4.5776367e-05,2.9296875,0.0007677078,9.801712,0.23904419,-0.21846008,9.801346,-1.9177794e-05
-0.012325933,0.010948226,-14.431763,0.9938393,-0.21672899,-37.704468,-0.0012042075,-9.1552734e-05,0.23990336,0.0001373291,-4.5776367e-05,1.9577026,-0.0015554428,9.806274,0.24095154,-0.2172699,9.80132,4.249811e-05
-0.01235568,0.010967354,-14.72168,0.99383485,-0.2172589,-37.660217,-0.0009010583,-4.5776367e-05,0.2403478,0.00019836426,7.6293945e-05,3.0700684,0.0015192032,9.804825,0.237854,-0.2163086,9.801296,0.00076906383
-0.012303193,0.010924793,-15.692139,0.9938451,-0.21634759,-37.661743,0.00129807,-0.00015258789,0.2393875,-6.1035156e-05,0.0001373291,3.8330078,-0.00010871887,9.801712,0.23928833,-0.21583557,9.80134,-0.002098009
-0.01230371,0.010944351,-15.553284,0.99384,-0.2163049,-37.65869,5.0380826e-05,-0.00021362305,0.23977944,-6.1035156e-05,7.6293945e-05,2.632141,-0.0013380051,9.802444,0.24072266,-0.2172699,9.8013315,-7.803738e-05
-0.012325989,0.010966749,-14.929199,0.9938345,-0.21668002,-37.887573,-0.0007877052,-0.00021362305,0.24027365,6.1035156e-05,-0.00010681152,2.0950317,-0.00073337555,9.802673,0.24047852,-0.21559143,9.8013115,0.00015349686
-0.012306093,0.0109695615,-15.1901245,0.9938334,-0.21628338,-37.809753,0.000978455,7.6293945e-05,0.24028824,-0.00012207031,-4.5776367e-05,2.5665283,-0.00032138824,9.804108,0.23880005,-0.21749878,9.801319,-0.0003298074
-0.012322482,0.010949852,-15.061951,0.99383885,-0.21665707,-38.372803,-0.00057448447,-4.5776367e-05,0.23992862,1.5258789e-05,-4.5776367e-05,2.2445679,-0.00038051605,9.804352,0.23857117,-0.21368408,9.80132,-0.00020970404
-0.012275705,0.010936733,-13.6657715,0.9938415,-0.2157779,-37.42218,0.0019118488,-4.5776367e-05,0.23956871,-6.1035156e-05,-0.00010681152,2.5558472,0.0008716583,9.8033905,0.23904419,-0.21368408,9.801349,-0.0012937635
-0.012264822,0.010923147,-14.526367,0.9938449,-0.21560177,-38.656616,0.0007734448,7.6293945e-05,0.23927446,-6.1035156e-05,-4.5776367e-05,2.5894165,-5.722046e-05,9.801956,0.23736572,-0.21774292,9.801359,-0.00052538514
-0.012297383,0.010889484,-14.859009,0.9938542,-0.2163292,-37.390137,-0.0013908446,0.0001373291,0.2386697,1.5258789e-05,-0.00022888184,3.2287598,-0.001627922,9.801239,0.23928833,-0.21463013,9.801357,0.00034926832
-0.012299955,0.010887203,-15.434265,0.9938549,-0.21638568,-37.96234,0.00080153346,-9.1552734e-05,0.2386295,7.6293945e-05,-4.5776367e-05,3.277588,-0.0014104843,9.800522,0.2400055,-0.21655273,9.801358,0.0006508082
-0.0122907935,0.01092486,-13.618469,0.99384487,-0.21610498,-34.39026,0.0007583052,-9.1552734e-05,0.23936296,7.6293945e-05,-0.00016784668,2.5009155,-0.0006084442,9.801727,0.24095154,-0.21487427,9.801347,0.00087074935
-0.012285822,0.010934652,-14.904785,0.99384224,-0.21598135,-37.747192,0.0011154711,-4.5776367e-05,0.23954825,7.6293945e-05,-0.00010681152,2.4993896,0.00071907043,9.802429,0.24047852,-0.21655273,9.801345,0.0004479438
-0.012302748,0.010969233,-14.588928,0.9938335,-0.21621889,-38.00049,-0.0003145188,-3.0517578e-05,0.24027471,1.5258789e-05,-0.00010681152,2.8320312,0.00096416473,9.804352,0.23880005,-0.21440125,9.801322,0.0008994937
-0.012272714,0.010932661,-15.483093,0.99384254,-0.21573041,-39.11438,0.0011329204,-9.1552734e-05,0.23948106,0.0001373291,1.5258789e-05,3.5064697,0.0012741089,9.804108,0.24047852,-0.21463013,9.801352,-0.0014344007
-0.012274634,0.010977261,-14.71405,0.9938309,-0.21564747,-38.067627,0.00034417212,-0.00033569336,0.24037634,0.0002593994,-0.00016784668,2.0202637,0.0010204315,9.803635,0.23928833,-0.21655273,9.8013315,0.0010144413
-0.0122742,0.010960409,-15.214539,0.99383533,-0.21568453,-37.574768,0.00035911798,1.5258789e-05,0.2400387,-6.1035156e-05,0.0001373291,2.2445679,-0.00058174133,9.805542,0.23808289,-0.21464539,9.801339,-0.0015088469
-0.012254122,0.0109346565,-14.764404,0.9938417,-0.2153615,-37.716675,6.2868e-05,-4.5776367e-05,0.23948209,0.00019836426,-4.5776367e-05,2.4230957,0.0024785995,9.8033905,0.2409668,-0.21774292,9.80136,-0.001226142
-0.012306953,0.010943886,-14.460754,0.99384016,-0.21636955,-38.157654,-0.0015625954,-4.5776367e-05,0.23977692,0.0002593994,1.5258789e-05,3.642273,-0.00090026855,9.805786,0.24047852,-0.21559143,9.80133,0.00088486075
-0.012281199,0.01098613,-14.94751,0.9938287,-0.21575186,-36.723328,0.0009416044,-9.1552734e-05,0.24056731,0.0001373291,7.6293945e-05,3.0670166,0.0008363724,9.802444,0.24072266,-0.21606445,9.801325,0.001030013
-0.012278698,0.010967075,-15.119934,0.99383366,-0.21575445,-37.643433,-0.00025756657,0.0001373291,0.24018127,0.00019836426,1.5258789e-05,2.56958,-0.001042366,9.801239,0.23951721,-0.2141571,9.801333,-0.0007224232
-0.012245796,0.010962953,-15.135193,0.9938342,-0.21512228,-38.043213,0.0017126799,1.5258789e-05,0.24003011,0.00012207031,-0.00016784668,1.1993408,-0.00196743,9.803635,0.24023438,-0.21391296,9.801352,0.00017042458
-0.012256814,0.010939273,-15.162659,0.9938406,-0.21540168,-37.101746,-0.00015294552,-9.1552734e-05,0.23957996,-0.00010681152,-0.00010681152,2.0095825,0.00060367584,9.8033905,0.23760986,-0.21702576,9.801356,-0.00082086027
-0.01227623,0.010925063,-15.107727,0.99384457,-0.21581969,-37.87384,-0.00044240057,7.6293945e-05,0.23933658,-6.1035156e-05,-4.5776367e-05,2.7297974,0.00088596344,9.801956,0.23976135,-0.21606445,9.801353,-0.00081700087
-0.012283667,0.010926489,-15.951538,0.99384433,-0.21596122,-38.589478,-7.292628e-05,7.6293945e-05,0.2393806,1.5258789e-05,-0.00010681152,3.0899048,-0.0014858246,9.802673,0.24047852,-0.21511841,9.801349,0.00034716725
-0.012275542,0.010956257,-14.839172,0.9938364,-0.215722,-38.256836,0.0008777529,-0.00015258789,0.23995851,-6.1035156e-05,-4.5776367e-05,2.3376465,-3.1471252e-05,9.8029175,0.24119568,-0.2163086,9.80134,0.0012037605
-0.012284957,0.010965243,-15.383911,0.9938342,-0.21588181,-38.1958,-0.00015093386,-9.1552734e-05,0.24015778,0.0,-4.5776367e-05,1.8295288,0.00014591217,9.803635,0.237854,-0.21343994,9.801332,4.132092e-05
-0.012256253,0.010954218,-14.344788,0.99383664,-0.21535034,-38.15918,0.0012340695,-9.1552734e-05,0.23987743,0.0001373291,-4.5776367e-05,4.2907715,0.0008993149,9.802673,0.24119568,-0.21702576,9.801351,-0.0013517439
-0.012278213,0.01097486,-14.0625,0.9938316,-0.21572396,-38.42926,-0.00078964233,-4.5776367e-05,0.24033587,1.5258789e-05,-4.5776367e-05,3.012085,-0.00019168854,9.8029175,0.23713684,-0.21534729,9.8013315,0.0005720854
-0.012270435,0.01091699,-15.725708,0.9938466,-0.21572816,-36.99951,0.0004144907,1.5258789e-05,0.23916316,1.5258789e-05,-4.5776367e-05,2.3086548,-0.00044250488,9.803162,0.23976135,-0.21583557,9.80136,-0.0020635873
-0.012295741,0.01092165,-14.872742,0.9938458,-0.21621037,-36.9339,-0.00055240095,-9.1552734e-05,0.23930915,0.0001373291,-0.00016784668,3.0685425,2.5749207e-05,9.801483,0.23832703,-0.21702576,9.801346,-5.8561563e-05
-0.012282674,0.010909344,-15.596008,0.9938488,-0.21598807,-38.66272,0.00042007864,-4.5776367e-05,0.2390359,0.0,7.6293945e-05,2.9418945,-0.00093746185,9.8022,0.23928833,-0.21272278,9.801356,-0.00073482096
-0.012234261,0.010916769,-14.924622,0.99384606,-0.21502146,-37.634277,0.0018556267,1.5258789e-05,0.23908316,0.0001373291,7.6293945e-05,3.3035278,0.00064754486,9.801483,0.23880005,-0.2172699,9.801377,-7.228553e-05
-0.012282586,0.010906042,-15.359497,0.9938497,-0.21599528,-37.498474,-0.001972273,0.00019836426,0.23896974,-0.00012207031,-0.00016784668,3.364563,-0.0010051727,9.802444,0.23832703,-0.21679688,9.801359,5.285442e-05
-0.012297939,0.01089681,-14.830017,0.9938523,-0.21632035,-37.208557,-0.00022010505,-4.5776367e-05,0.23881732,0.0,-0.00010681152,2.5878906,-0.0006713867,9.804352,0.23928833,-0.21678162,9.801355,0.00021333992
-0.012322058,0.010883702,-15.467834,0.99385613,-0.21682727,-38.475037,-0.00040881336,1.5258789e-05,0.23860566,7.6293945e-05,7.6293945e-05,2.708435,0.001947403,9.801727,0.23808289,-0.21751404,9.801349,-0.0003158599
-0.0123143075,0.010898865,-15.380859,0.9938521,-0.21663487,-37.339783,0.00010570884,7.6293945e-05,0.23889256,-0.00024414062,-0.00010681152,3.0441284,-0.00092983246,9.805542,0.2400055,-0.21679688,9.801347,0.00036978722
-0.012328333,0.010881955,-15.6188965,0.9938567,-0.21695468,-37.602234,-0.00027379394,0.0001373291,0.23858386,7.6293945e-05,1.5258789e-05,2.709961,0.0016069412,9.800293,0.23880005,-0.21846008,9.801347,-5.824864e-05
-0.012356472,0.010905527,-15.333557,0.993851,-0.21744132,-37.194824,-0.0009912848,-0.00015258789,0.23911372,0.00032043457,-4.5776367e-05,1.5991211,-0.0013217926,9.8029175,0.23857117,-0.21583557,9.801323,0.0013345927
-0.012317142,0.010889095,-14.685059,0.99385464,-0.21671665,-37.524414,0.0011598766,-9.1552734e-05,0.23870322,-6.1035156e-05,1.5258789e-05,3.6361694,0.00071811676,9.805313,0.23880005,-0.21511841,9.80135,-0.0013756752
-0.012305445,0.010901676,-15.255737,0.9938512,-0.21645398,-37.678528,0.0006670207,1.5258789e-05,0.2389302,0.0002593994,-4.5776367e-05,2.7252197,0.0012750626,9.801956,0.23760986,-0.21798706,9.801349,0.00030447543
-0.012319544,0.010896352,-14.996338,0.9938528,-0.21674402,-38.131714,0.00047929585,7.6293945e-05,0.23885326,-6.1035156e-05,-4.5776367e-05,2.1697998,0.0007791519,9.802444,0.24047852,-0.21583557,9.801345,0.0015769005
-0.012307732,0.010907601,-15.078735,0.9938497,-0.21648274,-37.95929,0.00021322072,3.0517578e-05,0.23905341,-0.00024414062,7.6293945e-05,3.1311035,-0.0004415512,9.803162,0.23976135,-0.21440125,9.801346,0.0006648004
-0.012279026,0.010939642,-14.941406,0.9938408,-0.21583499,-38.12256,0.0014729947,7.6293945e-05,0.23963377,-6.1035156e-05,-0.000289917,4.1046143,3.33786e-05,9.805069,0.2400055,-0.21511841,9.801346,0.0010453016
-0.012288446,0.010942252,-14.472961,0.9938403,-0.21601214,-37.850952,0.00072182715,-4.5776367e-05,0.23970564,0.00019836426,7.6293945e-05,3.4820557,0.001616478,9.804108,0.23904419,-0.21440125,9.801341,0.00023663044
-0.012258767,0.0109400395,-14.582825,0.9938404,-0.21543778,-38.07831,0.00086550415,-4.5776367e-05,0.23959935,1.5258789e-05,-4.5776367e-05,2.911377,0.00012111664,9.8033905,0.23951721,-0.21751404,9.801354,-0.00037534535
-0.012281665,0.010923006,-14.216614,0.9938452,-0.21593148,-38.22937,-0.000571087,7.6293945e-05,0.23930682,-0.00018310547,-4.5776367e-05,2.9266357,-0.0007123947,9.803879,0.24024963,-0.21607971,9.801352,-0.0003182441
-0.012292507,0.010939823,-14.971924,0.993841,-0.2160981,-37.84027,-0.0004040599,0.0001373291,0.2396656,7.6293945e-05,-4.5776367e-05,2.5772095,9.536743e-07,9.800522,0.23880005,-0.21487427,9.80134,0.0010009706
-0.012267296,0.010915609,-14.567566,0.9938469,-0.21567051,-37.43744,0.0010710806,0.0001373291,0.239129,-6.1035156e-05,-0.00010681152,2.1148682,-0.0017623901,9.8022,0.23857117,-0.21534729,9.801362,-0.000591889
-0.012275548,0.010904188,-14.221191,0.99385005,-0.21586266,-37.400818,-0.00019223988,-9.1552734e-05,0.238918,1.5258789e-05,7.6293945e-05,2.9327393,-0.00053310394,9.8033905,0.23904419,-0.21655273,9.801363,-0.00037428737
-0.012272956,0.010901065,-13.703918,0.9938508,-0.2158204,-35.601807,-0.00021789968,7.6293945e-05,0.23885018,-0.00018310547,7.6293945e-05,2.168274,0.000120162964,9.800278,0.2400055,-0.21702576,9.801366,-7.906556e-05
-0.012295039,0.010917722,-14.985657,0.99384683,-0.21620727,-37.80365,-0.0010527223,7.6293945e-05,0.23922919,1.5258789e-05,-4.5776367e-05,3.4591675,-0.0015192032,9.800995,0.24023438,-0.21583557,9.801348,0.00076535344
-0.0122895315,0.010930372,-15.234375,0.99384344,-0.21606542,-38.287354,0.00047641993,-4.5776367e-05,0.23947048,-6.1035156e-05,0.0001373291,2.961731,-0.00068855286,9.800278,0.23832703,-0.21606445,9.801345,0.0007612109
-0.012279864,0.0109229935,-15.766907,0.99384516,-0.21589632,-37.78076,6.143749e-05,-9.1552734e-05,0.23930281,1.5258789e-05,-4.5776367e-05,2.7023315,-0.00014400482,9.802673,0.24095154,-0.21559143,9.8013525,-0.00050349534
-0.012288269,0.010944298,-15.023804,0.99383974,-0.21600312,-38.464355,0.00017620623,-9.1552734e-05,0.23974611,1.5258789e-05,-0.00022888184,2.809143,0.0007123947,9.802673,0.23928833,-0.21702576,9.801339,0.0007228106
-0.012308435,0.010947375,-15.138245,0.99383926,-0.21638912,-37.52899,-0.00014264882,0.0001373291,0.23984978,-0.00018310547,7.6293945e-05,3.3752441,0.0011129379,9.8033905,0.24119568,-0.21583557,9.801329,-0.0001116693
-0.012290192,0.010958688,-14.750671,0.99383605,-0.21600187,-38.772583,0.00043609738,7.6293945e-05,0.24003774,-0.00018310547,-4.5776367e-05,2.496338,0.00042057037,9.806259,0.2400055,-0.21679688,9.801332,0.000885278
-0.012313515,0.010959954,-15.19928,0.99383605,-0.21645446,-37.25128,-0.0007688105,-0.00021362305,0.24011177,7.6293945e-05,-0.00010681152,3.616333,0.0018815994,9.8029175,0.24119568,-0.21655273,9.80132,-0.00015799701
-0.012320583,0.010982227,-14.916992,0.9938304,-0.21653247,-38.19275,2.6255846e-05,-9.1552734e-05,0.24057168,0.0,0.0001373291,2.2537231,-2.2888184e-05,9.802673,0.23880005,-0.21655273,9.801308,0.0005723089
-0.012306871,0.010953065,-15.46936,0.9938378,-0.21634318,-38.323975,0.00031761825,0.0001373291,0.23996022,-0.00030517578,-0.00022888184,2.709961,-0.00064468384,9.803635,0.24168396,-0.2163086,9.801327,-0.0014322102
-0.012313682,0.01096759,-14.425659,0.9938341,-0.2164371,-37.223816,0.00041757524,0.00019836426,0.24026473,-0.00018310547,1.5258789e-05,3.1677246,0.0005273819,9.802429,0.23832703,-0.21536255,9.801317,0.0011252314
-0.012281394,0.0109335715,-14.985657,0.9938424,-0.21589768,-37.23297,0.0005709827,0.0001373291,0.23951742,7.6293945e-05,0.0001373291,2.418518,-0.0007753372,9.801956,0.24095154,-0.21559143,9.801348,-0.0009860396
-0.012299357,0.010962225,-14.770508,0.9938353,-0.21617152,-38.391113,-0.0005927831,1.5258789e-05,0.24012756,-6.1035156e-05,-4.5776367e-05,2.2583008,-0.00035858154,9.803162,0.24119568,-0.21655273,9.801327,0.0017490983
-0.012295445,0.010962655,-14.997864,0.9938351,-0.21609387,-36.97052,0.00029870868,0.0001373291,0.24012797,-6.1035156e-05,-0.00016784668,3.3843994,0.00071811676,9.805542,0.23928833,-0.21798706,9.801328,6.149709e-05
-0.012354239,0.010958588,-15.029907,0.9938371,-0.21725444,-38.386536,4.094839e-05,-4.5776367e-05,0.24016961,-0.00018310547,1.5258789e-05,2.7282715,0.00026226044,9.8033905,0.24119568,-0.21655273,9.801302,0.0016808808
-0.012351825,0.0109824715,-15.560913,0.9938308,-0.21714267,-38.182068,0.00016658008,-4.5776367e-05,0.2406419,-0.00012207031,1.5258789e-05,2.4673462,-0.0006170273,9.804825,0.23951721,-0.21870422,9.801292,0.0007428676
-0.012362489,0.010943333,-14.845276,0.99384123,-0.21745695,-37.771606,-0.00047288835,-4.5776367e-05,0.23988195,-6.1035156e-05,-0.00010681152,3.3859253,0.0007123947,9.804108,0.23857117,-0.21798706,9.801305,-0.0018621832
-0.012379804,0.010933565,-14.584351,0.9938441,-0.21782184,-37.506104,-0.00034852326,0.00019836426,0.23972286,-0.00024414062,-4.5776367e-05,1.8707275,0.00031471252,9.804108,0.24047852,-0.21798706,9.801299,-0.00027260184
-0.0123899635,0.010943184,-15.715027,0.9938417,-0.21799454,-38.583374,-0.00017504394,-4.5776367e-05,0.23993635,-6.1035156e-05,-0.00010681152,2.2964478,4.5776367e-05,9.799561,0.24119568,-0.21751404,9.8012905,0.0007184744
-0.012386184,0.0109490305,-15.405273,0.9938401,-0.21790487,-37.930298,0.00065620244,0.0001373291,0.24004534,1.5258789e-05,-0.00010681152,2.6367188,-0.0036306381,9.8033905,0.23904419,-0.2163086,9.8012905,0.00040978193
-0.012369923,0.01092422,-14.790344,0.99384636,-0.21765387,-38.2782,0.0008880794,0.0001373291,0.23951542,-0.00030517578,-0.00010681152,3.0639648,0.00092697144,9.8029175,0.23760986,-0.21655273,9.801308,-0.0007495582
-0.012348576,0.010897297,-15.220642,0.99385303,-0.21730913,-37.16736,0.001041457,0.0001373291,0.23893276,-0.0004272461,-4.5776367e-05,3.2943726,0.0009317398,9.802444,0.23951721,-0.21870422,9.801331,-0.0006507337
-0.012379887,0.010906711,-15.289307,0.99385107,-0.21789594,-38.790894,-0.0007722229,1.5258789e-05,0.23918629,-0.00012207031,-0.00022888184,2.0721436,-0.0004892349,9.8029175,0.24119568,-0.21511841,9.8013115,0.0010084957
-0.012340661,0.010919539,-15.040588,0.9938471,-0.21709438,-37.705994,0.0020061731,0.00019836426,0.23936078,-0.00024414062,0.0001373291,2.6550293,-0.00048828125,9.802673,0.237854,-0.21583557,9.801325,0.00061139464
-0.012296741,0.010889529,-14.753723,0.9938542,-0.21631654,-36.8927,0.00076162815,0.0001373291,0.23866928,1.5258789e-05,0.00019836426,2.6733398,0.000620842,9.8029175,0.23904419,-0.21559143,9.801358,-0.00085558
-0.012271737,0.010893392,-15.179443,0.9938528,-0.21581724,-37.81433,0.00072577596,-4.5776367e-05,0.2386943,-6.1035156e-05,7.6293945e-05,2.7267456,-0.0008659363,9.804108,0.24072266,-0.21774292,9.801369,0.0007931143
-0.012326889,0.010921937,-14.724731,0.99384624,-0.21681863,-37.882996,-0.0023195595,-4.5776367e-05,0.23937996,7.6293945e-05,-0.00010681152,2.986145,0.0010118484,9.802673,0.2400055,-0.21751404,9.801331,0.0008113086
-0.012322513,0.01093515,-14.706421,0.9938427,-0.21669741,-38.94348,0.00018417835,0.00019836426,0.23963487,-0.00018310547,7.6293945e-05,3.1417847,3.33786e-05,9.806259,0.24023438,-0.21655273,9.801327,0.000571087
-0.012329381,0.0109377755,-15.21759,0.9938421,-0.21682459,-38.520813,-0.0003787428,0.0001373291,0.23970169,-4.5776367e-05,-4.5776367e-05,3.2043457,0.0024166107,9.805069,0.24143982,-0.21942139,9.801322,0.000947386
-0.012348048,0.010946747,-15.57312,0.9938401,-0.21716537,-37.545776,-0.00028154254,0.0001373291,0.23992,-0.00012207031,7.6293945e-05,3.4362793,1.2397766e-05,9.802444,0.24072266,-0.21583557,9.80131,0.0009573549
-0.012360453,0.010949681,-15.733337,0.99383956,-0.21739998,-37.11853,-0.0005300939,7.6293945e-05,0.24000455,-0.00018310547,-0.00016784668,3.2714844,-0.000954628,9.806503,0.24095154,-0.21846008,9.801302,0.0008840561
-0.012373278,0.010965144,-15.281677,0.9938357,-0.21760897,-38.34381,-5.5402517e-05,7.6293945e-05,0.24034044,-0.00018310547,-0.00010681152,2.2369385,0.0019197464,9.80722,0.24024963,-0.21798706,9.80129,0.0007684678
-0.012371722,0.010960361,-15.193176,0.99383694,-0.21759146,-38.00354,0.00041607022,0.00019836426,0.24024156,-0.00012207031,1.5258789e-05,3.6102295,0.0014429092,9.805313,0.2400055,-0.21655273,9.801291,0.00013262033
-0.012351273,0.010928602,-14.89563,0.99384487,-0.2172774,-37.52594,0.0005674362,-9.1552734e-05,0.23956408,1.5258789e-05,1.5258789e-05,2.6626587,-0.00063991547,9.8022,0.24095154,-0.21655273,9.801315,-0.0008598417
-0.012345919,0.01096258,-15.405273,0.9938359,-0.21708098,-37.434387,0.00036934018,0.0001373291,0.24023202,-0.00018310547,-0.00022888184,1.5945435,-0.0015459061,9.803162,0.23928833,-0.21678162,9.801304,0.0013592392
-0.012344442,0.010945712,-15.296936,0.99384034,-0.21709764,-36.878967,0.00060501695,0.00015258789,0.23989175,-0.00018310547,1.5258789e-05,3.2928467,-0.00086307526,9.805069,0.2400055,-0.21392822,9.801311,-0.000669837
-0.012277752,0.010932431,-15.301514,0.99384266,-0.21582952,-37.208557,0.0022140294,7.6293945e-05,0.23948698,-0.00024414062,1.5258789e-05,2.0843506,0.00084877014,9.802673,0.23857117,-0.21774292,9.801349,0.00019827485
-0.012326226,0.010909639,-15.103149,0.99384946,-0.21683884,-37.8006,-0.00012245774,0.00019836426,0.23913278,-0.00030517578,-0.00010681152,2.810669,0.0010633469,9.803879,0.23976135,-0.2163086,9.801336,0.0010304898
-0.012326754,0.010913943,-14.376831,0.9938483,-0.21683754,-37.306213,0.00060482323,0.0001373291,0.23921987,-0.00018310547,1.5258789e-05,1.7211914,0.0010232925,9.806747,0.24023438,-0.21798706,9.801333,0.0009460598
-0.012348749,0.010897881,-15.548706,0.99385285,-0.2173109,-37.088013,-0.001058355,7.6293945e-05,0.23894478,-0.00030517578,-4.5776367e-05,1.6708374,0.0013208389,9.80722,0.2400055,-0.2182312,9.80133,-0.00024461746
-0.012351264,0.010913266,-14.533997,0.9938489,-0.21731861,-37.602234,0.00013713539,0.00032043457,0.23925753,-0.00030517578,0.0001373291,2.5985718,-0.0002412796,9.803162,0.2400055,-0.21678162,9.801322,0.001123637
-0.012336126,0.010917593,-15.779114,0.99384755,-0.21701095,-41.397095,7.008016e-05,-4.5776367e-05,0.2393124,-0.00012207031,1.5258789e-05,4.281616,-0.0003376007,9.805313,0.23904419,-0.21606445,9.801328,0.0013166219
-0.012325277,0.010914718,-16.044617,0.9938481,-0.21680656,-39.649963,9.547174e-05,7.6293945e-05,0.23923227,-0.00012207031,1.5258789e-05,2.6748657,0.00010108948,9.803879,0.24023438,-0.2172699,9.801333,-0.00052690506
-0.012337424,0.010928897,-14.996338,0.99384457,-0.21700582,-39.302063,-0.00019480288,0.0001373291,0.23954104,-0.00012207031,-0.00016784668,3.1265259,-0.0015325546,9.804596,0.24072266,-0.21774292,9.801322,0.0011051595
-0.012349836,0.010948389,-14.744568,0.9938397,-0.21719588,-38.3255,5.4240227e-06,-0.00021362305,0.23995654,7.6293945e-05,1.5258789e-05,2.6626587,0.00089359283,9.806259,0.23976135,-0.21655273,9.801308,0.0009072125
-0.012334126,0.010930745,-16.340637,0.99384403,-0.21693635,-38.352966,0.00071145594,-4.5776367e-05,0.2395711,0.00012207031,1.5258789e-05,2.7526855,0.0004377365,9.801712,0.2400055,-0.21798706,9.801323,-0.0010923594
-0.012356911,0.010949273,-15.208435,0.99383956,-0.21733186,-38.298035,-0.0010638088,-0.00015258789,0.23998903,-0.00012207031,1.5258789e-05,3.3660889,-0.00178051,9.804352,0.23713684,-0.21655273,9.801305,0.00018946826
-0.012328629,0.010913302,-15.516663,0.9938485,-0.21687594,-39.6286,0.00087083876,1.5258789e-05,0.23921098,0.0001373291,7.6293945e-05,2.9418945,-0.00038051605,9.8029175,0.23976135,-0.21655273,9.801332,-0.0019107312
-0.012322291,0.010917849,-13.641357,0.99384725,-0.21673974,-38.25836,4.0233135e-06,-4.5776367e-05,0.23928863,-0.00018310547,0.00019836426,2.7908325,-0.0012102127,9.803879,0.23857117,-0.2163086,9.801334,-5.0991774e-05
-0.012301969,0.010898095,-15.652466,0.9938521,-0.21639566,-38.75885,0.00013779104,7.6293945e-05,0.23885137,0.0001373291,-0.00010681152,3.1829834,0.00045871735,9.8029175,0.23880005,-0.21606445,9.801352,-0.0005803257
-0.012295079,0.010900358,-14.56604,0.99385136,-0.21625486,-37.66327,0.0002373904,0.0001373291,0.23888221,-6.1035156e-05,0.0001373291,2.1133423,-0.0003376007,9.800766,0.2400055,-0.21774292,9.801354,0.0003542304
-0.012329545,0.010914513,-16.064453,0.9938482,-0.21689059,-38.06305,-0.0013077408,1.5258789e-05,0.23923711,-0.00030517578,-4.5776367e-05,2.607727,-0.0013341904,9.805313,0.23928833,-0.21966553,9.801332,0.00073213875
-0.0123729305,0.010908889,-15.266418,0.9938504,-0.21775405,-38.017273,-0.0013749003,0.0001373291,0.23921527,-0.00024414062,-0.00022888184,3.6071777,0.0013370514,9.802444,0.24168396,-0.22013855,9.801313,0.0004930347
-0.012414479,0.010928506,-16.200256,0.99384594,-0.2185135,-38.397217,-0.0011106133,-9.1552734e-05,0.23969416,0.0001373291,-0.00010681152,2.6779175,-0.0006971359,9.8033905,0.23976135,-0.21870422,9.801285,0.0014561266
-0.012437729,0.010939798,-14.959717,0.9938434,-0.21893762,-37.997437,-0.00019437075,7.6293945e-05,0.23996845,-6.1035156e-05,-4.5776367e-05,2.7359009,0.00034046173,9.804825,0.23713684,-0.21606445,9.801269,-0.0002566725
-0.0123662725,0.010881944,-15.562439,0.9938573,-0.2176965,-37.12921,0.002633199,7.6293945e-05,0.2386628,-6.1035156e-05,7.6293945e-05,2.5558472,0.0010156631,9.8029175,0.23808289,-0.21583557,9.801328,-0.0018305033
-0.0123370765,0.010880896,-15.560913,0.99385715,-0.21712849,-38.858032,0.00086446106,1.5258789e-05,0.23858094,-6.1035156e-05,-0.00010681152,2.381897,-0.000910759,9.8033905,0.24024963,-0.2163086,9.801343,-0.0003028959
-0.012345395,0.010910111,-14.761353,0.99384964,-0.21721235,-38.66577,0.00023365021,0.0001373291,0.2391822,0.0001373291,1.5258789e-05,3.463745,0.00018501282,9.801712,0.24095154,-0.21751404,9.801326,0.0017327815
-0.012337188,0.0109114405,-15.438843,0.99384916,-0.21704832,-38.78784,0.00028927624,7.6293945e-05,0.23919165,1.5258789e-05,-0.00010681152,3.1097412,-0.00083732605,9.803879,0.23928833,-0.21559143,9.80133,0.00052802265
-0.012334669,0.010907756,-14.778137,0.99385005,-0.217009,-38.50708,0.0004931092,1.5258789e-05,0.23911275,1.5258789e-05,-4.5776367e-05,3.2226562,-7.915497e-05,9.804596,0.23880005,-0.21966553,9.801332,0.00013497472
-0.012369608,0.01091185,-15.339661,0.9938496,-0.2176811,-37.687683,-0.0014381558,-9.1552734e-05,0.23926756,1.5258789e-05,1.5258789e-05,2.5604248,0.0018606186,9.804108,0.24072266,-0.2172699,9.801314,0.00018589199
-0.012368182,0.010937408,-15.995789,0.99384284,-0.21758424,-38.31787,0.0006108135,7.6293945e-05,0.23977537,1.5258789e-05,-0.00016784668,3.5736084,-0.00051403046,9.8029175,0.2400055,-0.2172699,9.801303,0.0006454736
-0.012389912,0.010941332,-14.56604,0.9938422,-0.21799853,-38.56659,-0.00065493584,7.6293945e-05,0.23989923,1.5258789e-05,-0.00016784668,2.0263672,-0.00018310547,9.8033905,0.24119568,-0.21655273,9.801291,0.0007675588
-0.012361637,0.010956188,-14.225769,0.99383783,-0.21740556,-37.623596,0.0023326129,-4.5776367e-05,0.24013709,1.5258789e-05,-0.00010681152,2.8503418,-0.00043010712,9.8029175,0.24095154,-0.2163086,9.801298,0.000535354
-0.012359526,0.010971271,-14.97345,0.99383384,-0.21732353,-37.61444,0.0008147955,-9.1552734e-05,0.24043415,7.6293945e-05,-4.5776367e-05,2.5772095,-0.00011634827,9.803864,0.237854,-0.21774292,9.801293,0.00023981929
-0.012360728,0.010910167,-15.213013,0.9938499,-0.21751203,-37.8006,-0.00067302585,0.00019836426,0.23921537,6.1035156e-05,7.6293945e-05,2.243042,0.00023555756,9.804825,0.23808289,-0.21702576,9.801319,-0.002373442
-0.012342557,0.010910922,-14.712524,0.9938494,-0.21715468,-37.28485,0.00065499544,7.6293945e-05,0.23919249,-0.00012207031,-0.00022888184,3.2348633,0.0006303787,9.8033905,0.24287415,-0.21655273,9.801327,0.0005104393
-0.01234861,0.010961607,-15.682983,0.9938362,-0.21713622,-37.724304,0.00088758767,-4.5776367e-05,0.24021818,7.6293945e-05,-0.00016784668,1.7410278,0.0005865097,9.804596,0.24023438,-0.21606445,9.801303,0.0023454875
-0.012355596,0.010950942,-14.935303,0.99383914,-0.2173016,-39.13269,9.23872e-05,7.6293945e-05,0.2400196,1.5258789e-05,1.5258789e-05,2.9708862,6.771088e-05,9.806503,0.23976135,-0.2182312,9.801304,-0.00032526255
-0.012372234,0.010947046,-14.903259,0.9938404,-0.21763745,-38.049316,-0.0012408793,7.6293945e-05,0.2399765,7.6293945e-05,0.0002593994,2.496338,-0.0008172989,9.8033905,0.2400055,-0.21846008,9.801297,-0.00029237568
-0.012359018,0.010942273,-15.402222,0.99384147,-0.21739194,-37.330627,-0.00027811527,7.6293945e-05,0.23985349,7.6293945e-05,1.5258789e-05,2.720642,0.000248909,9.804825,0.24023438,-0.2172699,9.801306,0.00030048192
-0.0123713175,0.010944956,-15.567017,0.99384093,-0.21762517,-37.27722,-0.00028704107,0.00019836426,0.23993284,1.5258789e-05,-4.5776367e-05,2.4734497,0.00015449524,9.8029175,0.24095154,-0.2172699,9.801299,0.0004631579
-0.012384543,0.010947632,-15.222168,0.99384046,-0.21787654,-38.368225,-0.0002977401,7.6293945e-05,0.24001391,-6.1035156e-05,1.5258789e-05,3.1234741,-0.0016517639,9.804352,0.2400055,-0.21774292,9.8012905,0.0008749217
-0.012353635,0.010936243,-14.797974,0.99384296,-0.21730298,-37.97455,0.001061514,7.6293945e-05,0.23972176,-0.00012207031,-0.00010681152,2.9830933,0.0009737015,9.8033905,0.2400055,-0.21583557,9.8013115,-0.00050748885
-0.012349856,0.010928173,-14.68811,0.993845,-0.21725088,-37.147522,0.00052398443,1.5258789e-05,0.23955256,-0.00030517578,-0.00010681152,3.6392212,-0.0011119843,9.804596,0.23904419,-0.2182312,9.801317,0.00014844537
-0.012376475,0.010933586,-14.826965,0.99384403,-0.21775673,-38.08136,-0.0004117489,-9.1552734e-05,0.23971637,-0.00012207031,-4.5776367e-05,3.6254883,0.0007009506,9.805069,0.24095154,-0.2172699,9.801302,-2.4035573e-05
-0.012363935,0.010951977,-15.260315,0.99383897,-0.21746188,-38.427734,0.00050760806,-3.0517578e-05,0.24005775,-0.00010681152,1.5258789e-05,2.557373,0.0007915497,9.805786,0.2400055,-0.21679688,9.8013,0.0008148849
-0.012351609,0.010937848,-14.6484375,0.9938425,-0.217259,-37.823486,6.9633126e-05,7.6293945e-05,0.23974958,-0.00024414062,-4.5776367e-05,1.9439697,0.0008420944,9.804825,0.23951721,-0.21942139,9.8013115,-0.0007942617
-0.012383312,0.0109489495,-14.802551,0.9938401,-0.21784891,-38.12256,-0.00077852607,0.0001373291,0.24003771,-0.00012207031,-0.00010681152,2.9022217,-0.0003938675,9.805313,0.24191284,-0.21702576,9.801291,0.0008444935
-0.012392764,0.010964778,-15.957642,0.9938361,-0.21799098,-38.513184,0.00033278763,1.5258789e-05,0.24037388,-0.00024414062,-0.00016784668,3.010559,0.00069618225,9.803162,0.23976135,-0.21606445,9.801281,0.0009724945
-0.012364528,0.010952115,-15.420532,0.99383897,-0.21747309,-37.24823,0.0017054379,-0.00015258789,0.24006173,-6.1035156e-05,1.5258789e-05,2.4795532,-0.0014419556,9.806274,0.2400055,-0.21870422,9.801299,-0.0008483678
-0.012367376,0.01096022,-15.130615,0.9938369,-0.21750689,-37.789917,-0.00063212216,7.6293945e-05,0.2402297,-0.00012207031,7.6293945e-05,2.406311,0.00079631805,9.804596,0.24143982,-0.21702576,9.801294,0.00016385317
-0.012353891,0.010971133,-16.125488,0.99383384,-0.21721372,-38.53302,0.00050118566,3.0517578e-05,0.24041961,-6.1035156e-05,-4.5776367e-05,2.6809692,0.00068473816,9.805069,0.23976135,-0.2163086,9.801296,0.00020970404
-0.01235446,0.010953992,-14.697266,0.9938383,-0.21727115,-37.397766,7.998943e-05,7.6293945e-05,0.2400782,0.0001373291,0.0001373291,2.3498535,-0.00050258636,9.804825,0.24191284,-0.2182312,9.801303,-0.00015971065
-0.012352183,0.010982375,-15.054321,0.99383086,-0.21714994,-38.076782,-0.00051417947,1.5258789e-05,0.24064073,-6.1035156e-05,7.6293945e-05,2.407837,-2.3841858e-05,9.807938,0.24143982,-0.21749878,9.801292,0.0009559244
-0.012357559,0.010999593,-15.853882,0.99382645,-0.21720847,-38.01422,3.518164e-05,-0.00015258789,0.2409961,0.0,-0.00016784668,2.4536133,0.0015802383,9.805786,0.24168396,-0.21821594,9.801282,0.0010537058
-0.012380979,0.011008526,-15.383911,0.9938245,-0.21764226,-38.54065,-0.0004720688,1.5258789e-05,0.24122365,0.0,-0.00010681152,2.87323,0.0004310608,9.80101,0.24072266,-0.21966553,9.801268,-0.00014060736
-0.012415834,0.010991192,-15.370178,0.99382955,-0.21837063,-38.09662,-0.0009792,-4.5776367e-05,0.24095005,-6.1035156e-05,-4.5776367e-05,3.1188965,-0.0027418137,9.805313,0.2416687,-0.21774292,9.801257,-0.0005504936
-0.012417572,0.011012476,-14.854431,0.993824,-0.21834704,-37.72583,0.00019550323,0.0001373291,0.24137913,-0.00024414062,-0.00010681152,2.178955,0.00071811676,9.805069,0.24095154,-0.21870422,9.801248,0.00068978965
-0.012422477,0.010998473,-16.012573,0.99382776,-0.21848084,-38.339233,0.00033824146,-9.1552734e-05,0.24110948,-6.1035156e-05,-0.00016784668,2.2033691,0.0008049011,9.806747,0.24191284,-0.2182312,9.801251,-1.1578202e-05
-0.012437913,0.011014089,-14.866638,0.99382395,-0.21874037,-37.838745,-0.00011496246,-4.5776367e-05,0.2414539,-0.00018310547,-4.5776367e-05,3.062439,0.00038146973,9.804352,0.24143982,-0.21678162,9.801236,0.000112101436
-0.012398594,0.01101629,-15.382385,0.9938227,-0.21796565,-38.616943,0.0017361939,7.6293945e-05,0.24141566,7.6293945e-05,-4.5776367e-05,2.871704,-0.0011796951,9.805786,0.23951721,-0.21774292,9.801255,-6.350875e-05
-0.012398222,0.010974138,-15.286255,0.9938338,-0.2180724,-37.815857,0.00017312169,1.5258789e-05,0.24057235,-0.00018310547,-0.00010681152,2.2399902,0.00081157684,9.805069,0.24047852,-0.21846008,9.801273,-0.0013808608
-0.012444525,0.01096442,-14.801025,0.99383706,-0.21900399,-36.92169,-0.0022413284,7.6293945e-05,0.24047484,7.6293945e-05,0.0002593994,3.07312,8.106232e-05,9.803162,0.23904419,-0.2163086,9.801254,0.00015620887
-0.012388151,0.010955943,-15.3289795,0.99383837,-0.21792462,-37.542725,0.0014354289,7.6293945e-05,0.24018757,-0.00036621094,0.0001373291,2.7236938,-0.001698494,9.803879,0.24072266,-0.21870422,9.801285,-0.00096926093
-0.012394788,0.010958655,-15.298462,0.9938378,-0.21804707,-40.411377,-0.000347659,0.0002593994,0.24025565,-0.00024414062,-4.5776367e-05,2.8625488,0.00013256073,9.804352,0.23976135,-0.21606445,9.801281,0.00086800754
-0.012368236,0.01093947,-15.29541,0.9938423,-0.21757974,-39.28528,0.0010928512,7.6293945e-05,0.23981673,-0.00030517578,-0.00010681152,3.0334473,8.2969666e-05,9.805786,0.23951721,-0.21846008,9.801303,-0.00012794137
-0.012371769,0.010908033,-14.915466,0.9938506,-0.21773365,-38.83972,-0.00017645955,-4.5776367e-05,0.23919575,0.0001373291,1.5258789e-05,3.2943726,0.0010080338,9.803879,0.24143982,-0.21679688,9.801314,-0.00070911646
-0.01236037,0.01095622,-15.383911,0.99383783,-0.2173807,-38.2843,0.0004271418,0.0001373291,0.24013512,-0.00012207031,1.5258789e-05,4.0008545,-0.00044727325,9.804596,0.23953247,-0.21679688,9.8013,0.0016979724
-0.012358437,0.010944247,-14.964294,0.99384093,-0.21737525,-38.819885,0.00041998923,1.5258789e-05,0.23989175,-0.00012207031,-0.00010681152,2.5680542,-0.00013256073,9.803635,0.24143982,-0.2172699,9.801306,-0.00043708086
-0.012335885,0.010958319,-15.539551,0.9938369,-0.2168963,-37.81433,0.0008993447,1.5258789e-05,0.24012586,0.0001373291,-0.00010681152,2.7923584,-0.00025367737,9.801483,0.23951721,-0.21751404,9.801311,0.0007509291
-0.012363835,0.010948068,-15.652466,0.99384004,-0.21747047,-38.983154,-0.00046657026,1.5258789e-05,0.2399794,-6.1035156e-05,0.00019836426,3.1814575,-0.0015993118,9.805786,0.2400055,-0.2182312,9.801301,-0.0002732426
-0.0123674385,0.010953756,-15.95459,0.9938386,-0.21752556,-38.5437,-0.0006495267,0.0001373291,0.24010059,0.00012207031,-4.5776367e-05,1.9622803,0.0005264282,9.805069,0.24143982,-0.21749878,9.801296,0.00031596422
-0.012372636,0.010956613,-14.735413,0.9938379,-0.21761948,-37.878418,-4.7296286e-05,0.0002593994,0.24016859,-0.00018310547,-0.00010681152,2.8259277,0.00178051,9.803162,0.2400055,-0.21655273,9.801293,0.0009430647
-0.012352002,0.010950982,-15.370178,0.993839,-0.21723123,-37.493896,0.0012221485,1.5258789e-05,0.2400129,7.6293945e-05,7.6293945e-05,3.2043457,-0.0018472672,9.805069,0.23904419,-0.21774292,9.801306,0.00040443242
-0.012370988,0.010922431,-15.098572,0.99384683,-0.21767953,-37.68158,-0.0014346242,-9.1552734e-05,0.23948191,7.6293945e-05,1.5258789e-05,1.7669678,0.0006761551,9.80603,0.24047852,-0.22085571,9.801309,-0.0009801537
-0.012407767,0.010932483,-15.490723,0.9938448,-0.21837151,-37.638855,-0.0009775758,0.00019836426,0.23975961,0.00019836426,-0.00016784668,2.4734497,0.00078105927,9.8022,0.23880005,-0.21655273,9.801286,0.0004106313
-0.012400892,0.010914964,-15.299988,0.9938493,-0.21828438,-37.928772,0.00061035156,1.5258789e-05,0.23939508,0.00019836426,1.5258789e-05,3.125,-0.0002822876,9.8033905,0.24047852,-0.21798706,9.801297,-0.00042644143
-0.012379836,0.010925919,-15.170288,0.99384606,-0.21784313,-37.623596,0.0008698553,0.00019836426,0.23957011,0.00019836426,-4.5776367e-05,1.8432617,-0.0014638901,9.806747,0.24047852,-0.21368408,9.801303,0.0008506924
-0.012323619,0.010932104,-15.130615,0.9938435,-0.21672724,-37.638855,0.002393335,-4.5776367e-05,0.23957631,1.5258789e-05,-0.00016784668,2.407837,0.0014133453,9.801727,0.24072266,-0.21870422,9.801328,0.00035475194
-0.012372055,0.01096399,-15.057373,0.993836,-0.21758817,-38.449097,-0.0008126348,-0.00015258789,0.2403148,0.0001373291,-0.00010681152,2.3254395,-0.0007991791,9.806503,0.24119568,-0.21870422,9.80129,0.0012884289
-0.012389678,0.010976232,-14.686584,0.99383307,-0.21789965,-38.22937,-0.0004785508,-4.5776367e-05,0.24059632,-0.00012207031,0.0001373291,2.4230957,0.0020170212,9.8033905,0.23976135,-0.2182312,9.801276,3.59267e-05
-0.012362505,0.010955856,-15.368652,0.99383795,-0.21742344,-38.320923,0.00021614134,-4.5776367e-05,0.2401323,7.6293945e-05,7.6293945e-05,3.1173706,-0.0016908646,9.8022,0.23857117,-0.21774292,9.801299,-0.0011572242
-0.012388132,0.010933817,-14.674377,0.99384415,-0.21798402,-38.233948,-0.00091572106,0.00019836426,0.23974533,-0.00024414062,-4.5776367e-05,2.5848389,-0.0012807846,9.805542,0.2416687,-0.21702576,9.801296,-0.0005104691
-0.012371602,0.010953561,-14.823914,0.9938387,-0.2176075,-38.113403,0.0006439686,-4.5776367e-05,0.24010542,-0.00012207031,-4.5776367e-05,2.5802612,0.0012149811,9.802673,0.2400055,-0.22013855,9.801295,0.0014946163
-0.012412478,0.010950249,-14.6987915,0.9938402,-0.21841568,-37.893677,-0.0014281869,0.0001373291,0.2401246,-6.1035156e-05,-0.00010681152,3.390503,-0.0010995865,9.805069,0.23976135,-0.21607971,9.801276,-0.00017465651
-0.012381367,0.010948154,-15.357971,0.9938403,-0.21781303,-37.37793,0.0018069446,-9.1552734e-05,0.24001774,0.0,-0.00016784668,2.3208618,0.0021419525,9.803879,0.23904419,-0.21798706,9.801292,-0.0003375262
-0.01238921,0.0109097045,-14.996338,0.99385047,-0.21807016,-38.131714,0.00014580786,-9.1552734e-05,0.23926558,1.5258789e-05,-0.00022888184,2.1697998,-0.0009622574,9.8029175,0.24047852,-0.21870422,9.801306,-0.0010073483
-0.012419662,0.010947817,-14.730835,0.993841,-0.21856274,-38.25531,-0.00032775104,0.0001373291,0.24009104,-0.00012207031,1.5258789e-05,2.8244019,-0.00047969818,9.804108,0.23951721,-0.21702576,9.801275,0.0010410547
-0.0123816375,0.010932854,-15.065002,0.9938443,-0.21785963,-37.74109,0.0013571084,0.00019836426,0.23971249,-0.00024414062,-4.5776367e-05,3.37677,-0.00063991547,9.8022,0.23880005,-0.2182312,9.801299,-0.00025053322
-0.012392197,0.0109193325,-15.22522,0.99384797,-0.21810259,-37.38861,-0.00031383336,1.5258789e-05,0.23946427,-0.00018310547,-0.00010681152,3.211975,-0.00058841705,9.803146,0.23928833,-0.21583557,9.8013,-0.00046801567
-0.012362387,0.010930735,-15.04364,0.9938445,-0.21748896,-37.327576,-0.00045253336,0.0001373291,0.23962992,0.0,-4.5776367e-05,2.6565552,0.0002708435,9.804825,0.24072266,-0.2163086,9.80131,0.001271382
-0.012357175,0.010935165,-15.078735,0.99384326,-0.21737511,-37.539673,0.00040228665,0.0001373291,0.23970759,-0.00012207031,1.5258789e-05,2.090454,0.00065517426,9.8033905,0.23880005,-0.21702576,9.801311,0.0007125437
-0.012350859,0.010919514,-14.99176,0.99384725,-0.21729384,-37.875366,7.6279044e-05,1.5258789e-05,0.23938158,-0.00018310547,1.5258789e-05,3.378296,-4.5776367e-05,9.803879,0.24119568,-0.21870422,9.80132,-0.00015090406
-0.012376009,0.010941099,-15.045166,0.993842,-0.21772732,-37.779236,-0.000924319,1.5258789e-05,0.23986554,7.6293945e-05,-0.00016784668,2.571106,-3.1471252e-05,9.805542,0.24191284,-0.21870422,9.801298,0.0010280609
-0.01240537,0.010964886,-15.103149,0.9938363,-0.21823715,-35.772705,-0.00015039742,0.0001373291,0.24040234,0.00030517578,-0.00016784668,3.0685425,0.0017433167,9.804825,0.24215698,-0.21798706,9.801273,0.0014306009
-0.012398326,0.010988382,-14.703369,0.99383,-0.21803589,-37.28943,0.0005931407,-0.00015258789,0.24085726,6.1035156e-05,-4.5776367e-05,3.3950806,-0.00011920929,9.804825,0.23951721,-0.21870422,9.801267,0.0009768456
-0.012429473,0.010971183,-14.6987915,0.99383503,-0.21869141,-38.04474,-0.0008999258,1.5258789e-05,0.24057858,0.0001373291,-0.00010681152,3.390503,0.0002412796,9.805786,0.23857117,-0.2182312,9.801259,-0.00089882314
-0.012411784,0.010920645,-14.608765,0.99384797,-0.21848203,-37.5412,0.0008214116,-9.1552734e-05,0.23953138,7.6293945e-05,-4.5776367e-05,2.5924683,0.00080394745,9.8029175,0.23832703,-0.21774292,9.80129,-0.002011761
-0.012408756,0.010910754,-15.075684,0.9938505,-0.21844949,-37.31537,5.620718e-05,0.00019836426,0.23932736,1.5258789e-05,-4.5776367e-05,2.1713257,-0.0013751984,9.804352,0.24168396,-0.21942139,9.801295,-0.0006005168
-0.012412478,0.01095174,-15.713501,0.99383986,-0.21841164,-38.583374,1.5839934e-05,-4.5776367e-05,0.2401544,0.0001373291,0.0001373291,2.2964478,-0.00028133392,9.806503,0.24072266,-0.21559143,9.801275,0.0021760613
-0.012368202,0.010970131,-14.743042,0.9938343,-0.21749628,-36.59668,0.0017470121,-4.5776367e-05,0.24042952,0.0002593994,0.0001373291,2.836609,0.0020418167,9.8029175,0.24287415,-0.21749878,9.8012905,0.00044189394
-0.012364162,0.011005541,-14.553833,0.99382496,-0.21732149,-37.96997,-0.000114515424,-9.1552734e-05,0.2411288,0.00038146973,-0.00010681152,2.2720337,-0.0021505356,9.8033905,0.24023438,-0.21583557,9.801276,0.0011874139
-0.012326196,0.010984144,-15.09552,0.99382997,-0.21663703,-38.02948,0.0011059046,1.5258789e-05,0.24062173,-0.00012207031,7.6293945e-05,2.8900146,-0.00015258789,9.805542,0.23904419,-0.21870422,9.801304,-0.0011714846
-0.012375766,0.010961724,-14.845276,0.99383664,-0.21766686,-37.57782,-0.0016807467,7.6293945e-05,0.24027729,1.5258789e-05,-4.5776367e-05,2.3422241,0.0011739731,9.804108,0.24023438,-0.21870422,9.80129,-0.0008415282
-0.012386377,0.01095823,-15.576172,0.9938377,-0.21788378,-38.294983,-0.0002618879,7.6293945e-05,0.2402296,-6.1035156e-05,-0.00016784668,3.2684326,-0.00033950806,9.8029175,0.24047852,-0.21583557,9.801286,0.00041556358
-0.012353348,0.01095258,-15.04364,0.99383867,-0.21725322,-37.327576,0.0017148256,1.5258789e-05,0.24004765,-0.00018310547,-4.5776367e-05,2.6565552,-0.0014972687,9.802673,0.2400055,-0.21870422,9.801304,-0.00010077655
-0.012387661,0.010949765,-15.908813,0.99384,-0.21793175,-38.11035,-0.00096714497,-0.00015258789,0.2400631,0.0,-0.00010681152,2.6916504,-0.00035190582,9.8029175,0.23976135,-0.21702576,9.801289,-0.00035624206
-0.012375136,0.010952307,-15.977478,0.9938391,-0.21767998,-37.721252,0.00094136596,0.00019836426,0.24008772,7.6293945e-05,1.5258789e-05,3.9001465,-0.0005559921,9.804352,0.24023438,-0.21655273,9.801293,-0.000129655
-0.012350997,0.010931252,-16.055298,0.9938442,-0.21726485,-37.539673,0.00076299906,0.0001373291,0.23961645,1.5258789e-05,-4.5776367e-05,2.770996,0.0007419586,9.80722,0.23928833,-0.21894836,9.801314,-0.0001553446
-0.012380723,0.010935404,-15.361023,0.9938436,-0.21783486,-38.505554,-0.0012642145,1.5258789e-05,0.23976155,-6.1035156e-05,1.5258789e-05,2.1514893,0.002404213,9.802429,0.24047852,-0.21917725,9.801298,0.00063090026
-0.012418355,0.010937373,-16.079712,0.9938437,-0.21856537,-38.024902,-0.0012589395,0.0001373291,0.23987952,7.6293945e-05,-4.5776367e-05,3.4103394,-0.00078868866,9.804596,0.24143982,-0.2172699,9.80128,0.0005220622
-0.01237549,0.010949466,-15.783691,0.99383986,-0.21769458,-38.043213,0.0019298047,7.6293945e-05,0.2400317,0.0002593994,-4.5776367e-05,3.501892,0.000113487244,9.807938,0.24095154,-0.2172699,9.801295,0.00061288476
-0.012373983,0.010953624,-15.675354,0.9938387,-0.21765387,-38.25531,0.00024275482,7.6293945e-05,0.24011163,1.5258789e-05,1.5258789e-05,1.8157959,0.0015068054,9.806503,0.23976135,-0.21774292,9.801293,0.0007432103
-0.0123763345,0.010952247,-16.40625,0.99383914,-0.21770357,-37.768555,-0.00018277764,7.6293945e-05,0.24008901,7.6293945e-05,-0.00022888184,2.9144287,0.0011644363,9.806992,0.24143982,-0.21846008,9.801292,0.0002784282
-0.012408359,0.010967502,-15.50293,0.9938356,-0.21828853,-38.987732,-0.0005428195,0.0001373291,0.24046089,7.6293945e-05,-0.00010681152,2.140808,0.001411438,9.806259,0.24047852,-0.21702576,9.801271,0.00085000694
-0.012385867,0.010947874,-16.300964,0.9938404,-0.21790177,-38.475037,0.00145109,-9.1552734e-05,0.24002154,-6.1035156e-05,-4.5776367e-05,2.2705078,-0.0012845993,9.8022,0.23976135,-0.2163086,9.8012905,-0.00061672926
-0.012373822,0.010947637,-16.363525,0.9938403,-0.2176669,-38.34381,0.0007121861,-4.5776367e-05,0.23999164,0.0001373291,7.6293945e-05,2.4291992,-0.0027685165,9.802444,0.23880005,-0.2182312,9.801296,-6.4492226e-05
-0.012382812,0.010932285,-15.937805,0.99384445,-0.21788414,-37.467957,-0.0010008663,0.0001373291,0.23970358,-0.00012207031,7.6293945e-05,3.4210205,0.0006761551,9.804108,0.24263,-0.21607971,9.801299,-0.0004849583
-0.012364921,0.010984921,-16.349792,0.9938304,-0.2173921,-38.648987,0.0009044558,1.5258789e-05,0.24071823,-0.00010681152,1.5258789e-05,2.5894165,0.00013256073,9.805542,0.24191284,-0.2172699,9.801284,0.0023127198
-0.012361686,0.0109950835,-15.849304,0.99382764,-0.21730137,-37.609863,-0.00012771785,-4.5776367e-05,0.2409146,-6.1035156e-05,-4.5776367e-05,3.6651611,0.00039958954,9.803635,0.23951721,-0.21583557,9.801282,0.00069208443
-0.012327657,0.010976358,-15.731812,0.993832,-0.21668667,-38.171387,0.0014058799,3.0517578e-05,0.2404692,1.5258789e-05,7.6293945e-05,3.1845093,-0.00020694733,9.804108,0.24047852,-0.22013855,9.801307,-0.0012546629
-0.012395484,0.010967368,-15.362549,0.99383545,-0.21803717,-37.121582,-0.002754137,1.5258789e-05,0.24043132,-0.00012207031,-0.00010681152,3.3676147,-0.00029468536,9.805069,0.24191284,-0.21966553,9.801278,0.0004491806
-0.012423232,0.010985879,-15.82489,0.9938311,-0.21852967,-38.59558,-0.00035066903,-9.1552734e-05,0.24085933,-6.1035156e-05,-0.00022888184,3.8986206,0.00028896332,9.804596,0.23904419,-0.21606445,9.801256,0.0005055219
-0.0123921735,0.010971536,-16.427612,0.9938343,-0.21796118,-38.66272,0.0017397255,-0.00015258789,0.2405077,-0.00012207031,-4.5776367e-05,2.5054932,0.0017957687,9.8033905,0.2416687,-0.21702576,9.801278,-0.00084251165
-0.012360521,0.010984315,-16.79535,0.99383044,-0.2173077,-41.184998,0.0012889653,0.00019836426,0.24069692,-0.00012207031,-4.5776367e-05,3.2730103,-0.0023097992,9.805786,0.24047852,-0.21534729,9.801287,-4.1797757e-05
-0.012344269,0.010980763,-16.545105,0.99383116,-0.21699958,-38.824463,0.0009981841,1.5258789e-05,0.24059197,-0.00024414062,-0.00010681152,4.0252686,0.00020694733,9.804352,0.2409668,-0.2172699,9.801297,0.0005338043
-0.0123457955,0.010980501,-17.49878,0.9938312,-0.21703011,-39.04419,7.6040626e-05,0.0001373291,0.24058992,-0.00036621094,-4.5776367e-05,2.7755737,0.0007791519,9.804352,0.23951721,-0.21655273,9.801296,5.325675e-05
-0.0123557225,0.010955937,-15.840149,0.99383783,-0.2172906,-38.39569,-0.00014960766,-4.5776367e-05,0.24011973,-0.00036621094,0.0001373291,2.6138306,0.00019264221,9.806259,0.23976135,-0.21679688,9.801302,-0.00043997169
-0.012330427,0.010945013,-15.727234,0.9938403,-0.21682549,-38.352966,0.00035640597,0.0001373291,0.23984851,-0.00018310547,-4.5776367e-05,2.1362305,0.00093078613,9.801483,0.24215698,-0.21751404,9.801318,-0.0008968413
-0.012343807,0.010969329,-15.647888,0.99383414,-0.21702144,-38.941956,-0.0001874417,7.6293945e-05,0.24036247,-0.00030517578,-0.00016784668,2.1347046,-0.0021009445,9.801239,0.237854,-0.21583557,9.801302,0.0017269403
-0.012321434,0.010933522,-15.757751,0.99384314,-0.21668069,-38.911438,0.0011235476,0.0001373291,0.23960008,-0.00012207031,1.5258789e-05,2.6931763,-0.0023565292,9.804108,0.23976135,-0.2172699,9.801328,-0.0013109595
-0.012367353,0.0109503195,-15.54718,0.9938395,-0.21753317,-38.56201,-0.0011076331,7.6293945e-05,0.24003173,1.5258789e-05,1.5258789e-05,2.6260376,0.00187397,9.804596,0.24191284,-0.21870422,9.801298,0.0015669912
-0.012328322,0.010971928,-15.119934,0.9938332,-0.21671164,-37.23755,0.0016329587,1.5258789e-05,0.24038206,7.6293945e-05,7.6293945e-05,3.7002563,-0.0020952225,9.805786,0.24119568,-0.21559143,9.801309,0.0002965182
-0.012320349,0.010983196,-16.218567,0.9938301,-0.21652529,-38.31482,3.555417e-05,-4.5776367e-05,0.24059059,0.0002593994,-0.00010681152,2.4368286,0.0020999908,9.80603,0.24238586,-0.21846008,9.801308,0.0005350858
-0.012349414,0.0109991245,-16.116333,0.9938264,-0.2170505,-38.041687,-0.0011086017,7.6293945e-05,0.2409697,-6.1035156e-05,0.0001373291,1.7990112,0.00077056885,9.804596,0.23976135,-0.2172699,9.801287,0.00061894953
-0.012328484,0.010958768,-15.415955,0.99383664,-0.21675035,-37.776184,0.0002783388,1.5258789e-05,0.24011937,7.6293945e-05,-4.5776367e-05,2.4749756,0.00082302094,9.807938,0.24047852,-0.21798706,9.801313,-0.0011645854
-0.012373618,0.010978873,-15.078735,0.9938321,-0.2175785,-36.86371,-0.0012680143,-0.00015258789,0.24061555,0.0002593994,-4.5776367e-05,2.1759033,0.0018377304,9.805313,0.24047852,-0.21942139,9.801283,0.00046749413
-0.012397345,0.010994433,-15.348816,0.9938284,-0.21800037,-38.5849,-0.0008587241,-4.5776367e-05,0.24097618,-6.1035156e-05,-4.5776367e-05,2.3117065,-0.0011711121,9.8022,0.23904419,-0.2163086,9.801265,0.000120803714
-0.012357221,0.010956718,-15.849304,0.99383765,-0.21731779,-37.716675,0.0018005818,1.5258789e-05,0.24013846,-0.00018310547,-0.00010681152,2.5375366,-0.0012578964,9.803162,0.24191284,-0.2172699,9.801301,-0.0014204234
-0.012385264,0.010973867,-15.814209,0.9938336,-0.21781975,-38.182068,-0.00057829916,0.00019836426,0.24053983,7.6293945e-05,-0.00010681152,3.0166626,-0.0011529922,9.804596,0.24024963,-0.21511841,9.801279,0.0010603815
-0.012339192,0.010959944,-15.287781,0.9938365,-0.21695657,-38.417053,0.0021437705,7.6293945e-05,0.24016526,0.0001373291,1.5258789e-05,2.154541,2.193451e-05,9.8029175,0.24119568,-0.21583557,9.801309,1.6316772e-05
-0.012321083,0.010977176,-16.215515,0.9938317,-0.21655588,-39.11133,0.00053082407,1.5258789e-05,0.24047177,0.00019836426,1.5258789e-05,3.4744263,-0.000620842,9.804108,0.23951721,-0.2163086,9.801309,0.0009073764
-0.0123086795,0.010959566,-15.802002,0.9938361,-0.21636097,-38.937378,0.0008189976,-9.1552734e-05,0.24009392,-0.00012207031,-0.00016784668,3.0929565,-0.00041675568,9.804596,0.24072266,-0.21798706,9.801323,-0.0013487339
-0.012356994,0.010978395,-15.653992,0.99383193,-0.21725477,-36.608887,-0.00139153,-0.00010681152,0.24057126,7.6293945e-05,-4.5776367e-05,2.3147583,0.0006914139,9.803162,0.24143982,-0.2182312,9.801292,0.0010333061
-0.012363585,0.010981565,-15.866089,0.9938312,-0.21737505,-38.279724,0.0001681894,1.5258789e-05,0.24064837,1.5258789e-05,-0.00016784668,3.3370972,0.00046730042,9.804352,0.24119568,-0.21463013,9.801287,-0.00023965538
-0.012319818,0.011019532,-15.861511,0.99382055,-0.21641658,-37.875366,0.0020831227,1.5258789e-05,0.2413156,6.1035156e-05,7.6293945e-05,4.547119,0.0004787445,9.804825,0.24095154,-0.2172699,9.801291,0.0009946674
-0.012333678,0.010998031,-15.437317,0.99382645,-0.21674575,-38.937378,-0.0007022023,-4.5776367e-05,0.2409149,0.00032043457,1.5258789e-05,3.1082153,-0.0001745224,9.804352,0.24287415,-0.21655273,9.801293,-0.0002656877
-0.012328922,0.011031548,-15.112305,0.99381757,-0.21656205,-38.217163,0.00032022595,-0.00015258789,0.2415748,7.6293945e-05,-4.5776367e-05,3.692627,4.863739e-05,9.802444,0.23951721,-0.21583557,9.801282,0.0009807348
-0.012324213,0.011007087,-15.950012,0.9938239,-0.21653618,-38.74054,0.00027664006,-0.00015258789,0.2410761,0.0001373291,-0.00010681152,3.088379,-0.0015583038,9.803162,0.23928833,-0.21655273,9.801294,-0.0016134828
-0.012318171,0.010971599,-15.414429,0.9938331,-0.21651402,-37.745667,0.0002514273,7.6293945e-05,0.24035423,6.1035156e-05,7.6293945e-05,3.6010742,-0.00023269653,9.803879,0.23808289,-0.21536255,9.801312,-0.0016052127
-0.012296598,0.0109461015,-15.830994,0.99383944,-0.21616112,-38.023376,0.00062036514,-4.5776367e-05,0.23979957,-0.00018310547,-4.5776367e-05,2.7770996,0.0004749298,9.806976,0.23951721,-0.21655273,9.801334,-0.0010557473
-0.01231452,0.010932784,-16.171265,0.9938432,-0.2165475,-37.779236,-0.0006504208,-4.5776367e-05,0.23957087,-0.00012207031,1.5258789e-05,4.2938232,0.0019140244,9.803162,0.23880005,-0.21702576,9.8013315,-0.00036217272
-0.012313665,0.010909519,-15.771484,0.9938493,-0.21659356,-38.52997,-0.000370875,7.6293945e-05,0.23910414,-6.1035156e-05,-0.00010681152,2.5360107,-0.000954628,9.802673,0.23928833,-0.21917725,9.801342,-0.00084480643
-0.012354127,0.0109262895,-15.757751,0.9938455,-0.21733946,-37.408447,-0.00083336234,1.5258789e-05,0.23952381,0.0002593994,-0.00035095215,2.8671265,-0.00031471252,9.802444,0.24095154,-0.2172699,9.801315,0.00066146255
-0.012398284,0.010939219,-15.144348,0.9938429,-0.21816793,-37.52899,-0.00025331974,-9.1552734e-05,0.2398745,0.00019836426,-0.00010681152,3.2943726,-0.0017938614,9.800766,0.24168396,-0.21894836,9.801289,0.00031718612
-0.012426028,0.010965059,-15.614319,0.9938366,-0.21864061,-38.775635,-0.00027824938,-9.1552734e-05,0.24044897,-0.00012207031,-0.00010681152,3.7475586,-0.00087451935,9.805557,0.23951721,-0.2182312,9.801264,0.000958398
-0.01242732,0.010946184,-16.087341,0.9938415,-0.21871686,-38.42926,0.0012603849,0.00016784668,0.24007437,-0.0002593994,0.0,2.2003174,0.0014286041,9.800278,0.24119568,-0.21798706,9.801271,-0.0003594458
-0.012416933,0.010931712,-15.908813,0.99384516,-0.21855281,-38.937378,0.000347659,0.00016784668,0.23976335,-6.1035156e-05,-6.1035156e-05,2.6062012,-0.001455307,9.8033905,0.23928833,-0.2163086,9.801282,0.00021357834
-0.012382473,0.010939432,-16.462708,0.9938426,-0.21785823,-39.09912,0.0015875995,0.00010681152,0.23984572,-0.00032043457,-0.00018310547,1.9363403,0.0011034012,9.80722,0.24095154,-0.21679688,9.801296,0.00059099495
-0.012370707,0.010943113,-16.25061,0.9938414,-0.21761821,-37.895203,0.00087980926,4.5776367e-05,0.23989472,-1.5258789e-05,-6.1035156e-05,3.0807495,0.0018529892,9.804108,0.23976135,-0.2172699,9.8013,0.0007634759
-0.012368253,0.010948941,-15.203857,0.99383986,-0.2175545,-37.50305,0.0005902797,6.1035156e-05,0.24000606,-0.0001373291,-6.1035156e-05,2.4093628,0.00028133392,9.804108,0.2409668,-0.2141571,9.801298,0.00040458143
-0.012325615,0.010952412,-15.913391,0.99383825,-0.21671143,-38.832092,0.0019018948,0.00016784668,0.23998636,-0.00019836426,0.0,3.652954,0.00034999847,9.801712,0.23857117,-0.21702576,9.801318,0.00019158423
-0.012317775,0.010922503,-15.335083,0.99384594,-0.21663891,-37.61444,0.00014080107,0.00010681152,0.23937222,-0.00018310547,-6.1035156e-05,2.6428223,-0.00088882446,9.805069,0.24023438,-0.2172699,9.801335,-0.0008614212
-0.012330386,0.010943758,-15.740967,0.9938406,-0.2168281,-38.31787,-0.0003861636,0.00010681152,0.23982336,-0.0002593994,0.00012207031,3.0197144,4.4822693e-05,9.80603,0.23976135,-0.21559143,9.801319,0.0013108104
-0.012298529,0.01091023,-16.000366,0.99384886,-0.21629572,-38.043213,0.0010142475,0.00016784668,0.23908675,-0.0001373291,-0.00012207031,2.4490356,0.0009813309,9.8029175,0.23976135,-0.21583557,9.80135,-0.0008324832
-0.012302875,0.010917506,-14.797974,0.993847,-0.21636103,-37.249756,0.00010986626,0.00016784668,0.23924123,-7.6293945e-05,0.0,1.9439697,-0.0007839203,9.802429,0.23760986,-0.21798706,9.801344,0.00092963874
-0.01231364,0.0108858785,-15.917969,0.9938554,-0.2166568,-38.33313,-0.00080916286,0.00010681152,0.23863159,-1.5258789e-05,0.00012207031,2.5283813,-0.0008535385,9.8029175,0.23928833,-0.21655273,9.801352,-0.000830546
-0.0123018455,0.01087434,-15.058899,0.9938583,-0.21645729,-38.1485,-5.0276518e-05,0.00010681152,0.23837641,4.5776367e-05,6.1035156e-05,2.3269653,-0.00026226044,9.805542,0.23857117,-0.21583557,9.801363,0.0001450032
-0.01229423,0.010874371,-15.126038,0.99385816,-0.2163083,-37.565613,-0.00019414723,-0.00012207031,0.2383611,6.1035156e-05,0.00012207031,2.4887085,0.00046253204,9.8022,0.2400055,-0.21655273,9.801366,-8.9511275e-05
-0.012286772,0.010914697,-15.307617,0.9938475,-0.21605375,-37.731934,0.0005109608,4.5776367e-05,0.23915145,-0.00032043457,0.00012207031,1.9195557,-0.00016880035,9.8022,0.23832703,-0.21607971,9.8013525,0.0015173703
-0.012280549,0.010906181,-14.949036,0.9938496,-0.21595505,-38.179016,-0.00030446053,0.00016784668,0.23896827,-0.00018310547,0.00012207031,1.7700195,4.673004e-05,9.805786,0.23976135,-0.21487427,9.801359,-0.00045144558
-0.012247897,0.010898856,-15.779114,0.99385095,-0.21533638,-38.375854,0.0007471442,0.00022888184,0.2387537,-7.6293945e-05,0.00012207031,2.456665,0.00066280365,9.802673,0.23928833,-0.21655273,9.801378,0.00022822618
-0.012259115,0.010895439,-15.438843,0.9938521,-0.21556492,-37.931824,-0.0009352267,-1.5258789e-05,0.23870882,-0.0001373291,-6.1035156e-05,4.324341,-0.000374794,9.806274,0.23857117,-0.21702576,9.8013735,0.00099428
-0.012297562,0.010888788,-14.79187,0.9938544,-0.2163346,-38.127136,-0.0013438761,0.00010681152,0.2386562,-0.00019836426,6.1035156e-05,3.0639648,0.0010347366,9.801239,0.23976135,-0.2141571,9.801358,-0.00015611947
-0.012251487,0.010912962,-15.386963,0.99384737,-0.21536854,-37.81891,0.001729697,-0.00012207031,0.23904309,0.0,0.00012207031,1.8325806,-0.0017023087,9.803146,0.237854,-0.21487427,9.801371,0.00066804886
-0.012227342,0.010892043,-15.322876,0.99385244,-0.21495286,-38.371277,0.00036375225,0.00022888184,0.23857461,-6.1035156e-05,0.00012207031,2.7175903,-0.00034427643,9.805313,0.23951721,-0.21606445,9.801391,-0.0010102838
-0.012241565,0.0108939065,-15.341187,0.99385214,-0.21522593,-38.964844,-0.0012721121,0.00010681152,0.23864157,0.00012207031,0.00012207031,2.3895264,0.0011949539,9.801483,0.23808289,-0.21774292,9.801384,0.0008149892
-0.0122701265,0.010878338,-15.020752,0.9938567,-0.21582633,-38.061523,-0.0014025718,4.5776367e-05,0.23839007,-0.00019836426,0.0,4.019165,-0.0012817383,9.804825,0.23880005,-0.21678162,9.801376,-0.00035245717
-0.012275693,0.010869143,-15.898132,0.9938592,-0.21595997,-38.19275,-0.00054343045,4.5776367e-05,0.23821795,-0.00019836426,0.00012207031,2.8533936,0.0007352829,9.805069,0.23664856,-0.21440125,9.801378,0.00029879808
-0.012246271,0.010862096,-16.184998,0.99386054,-0.21583949,-38.328552,0.0008330643,0.00016784668,0.23868132,-0.00038146973,0.00012207031,2.9205322,0.0009651184,9.8033905,0.24119568,-0.2163086,9.801368,-0.00022751093
-0.012253831,0.010876042,-15.617371,0.993857,-0.2155139,-38.05237,0.00093074143,6.1035156e-05,0.23831019,-0.0002593994,0.0,2.7053833,-0.0013208389,9.803635,0.24095154,-0.21749878,9.801385,-0.0012405515
-0.012286624,0.010902325,-15.136719,0.9938507,-0.21608424,-37.635803,-0.0011511892,-6.1035156e-05,0.23890388,-0.00038146973,-6.1035156e-05,2.3284912,-0.001209259,9.799332,0.23832703,-0.21511841,9.801358,0.0015365183
-0.012265819,0.01090445,-15.82489,0.9938498,-0.21567173,-37.350464,0.0008176118,0.00016784668,0.23890293,-0.0002593994,0.00012207031,2.9449463,-0.0012731552,9.804825,0.23976135,-0.21272278,9.801368,-0.00012521446
-0.012198956,0.010910251,-15.815735,0.9938472,-0.21434873,-37.956238,0.0019047856,4.5776367e-05,0.23887916,-6.1035156e-05,0.00012207031,3.0197144,0.0013685226,9.8029175,0.23736572,-0.21536255,9.801397,0.0006146431
-0.012215947,0.01088402,-15.724182,0.99385434,-0.21475168,-38.323975,-0.0008072555,0.00016784668,0.2383905,-0.00018310547,0.0,3.262329,-0.00020980835,9.803635,0.23880005,-0.21534729,9.8014,-0.0005725622
-0.012214465,0.010867522,-15.505981,0.99385864,-0.21476716,-37.031555,-6.572902e-05,0.00022888184,0.23805778,6.1035156e-05,-6.1035156e-05,2.3162842,0.00081157684,9.80603,0.24143982,-0.21463013,9.801408,-2.0757318e-05
-0.012233007,0.010913353,-15.362549,0.99384695,-0.21500617,-38.398743,-0.00028076768,0.00022888184,0.2390123,-0.0001373291,-6.1035156e-05,3.1982422,0.0016546249,9.803879,0.23976135,-0.21559143,9.80138,0.0028334558
-0.012240419,0.010905143,-14.845276,0.9938492,-0.21517321,-37.846375,-0.0003542304,4.5776367e-05,0.2388637,-1.5258789e-05,-6.1035156e-05,3.3859253,0.00030231476,9.804825,0.2368927,-0.21559143,9.801379,0.0005824715
-0.01224732,0.010878627,-14.802551,0.99385625,-0.21537964,-38.12256,8.945167e-05,-1.5258789e-05,0.23834825,-6.1035156e-05,0.0,2.9022217,-0.00059604645,9.805786,0.23976135,-0.21511841,9.801387,-0.0012746006
-0.012247576,0.010897563,-15.019226,0.9938513,-0.21533361,-38.316345,4.518032e-05,0.00016784668,0.23872718,-0.00019836426,0.0,2.8915405,0.0015220642,9.802673,0.23808289,-0.21655273,9.801379,0.0011961609
-0.012258076,0.010862208,-15.602112,0.9938607,-0.21563417,-37.757874,-0.0006067902,0.00010681152,0.2380426,6.1035156e-05,6.1035156e-05,2.949524,-0.0005836487,9.803635,0.23832703,-0.2163086,9.801389,-0.0012245476
-0.012258301,0.010871067,-15.209961,0.9938584,-0.21561472,-38.1485,-0.00040492415,0.00016784668,0.23822011,-1.5258789e-05,0.0,3.3676147,-0.00072574615,9.804108,0.23976135,-0.21607971,9.801386,0.0012307316
-0.012281206,0.010867236,-15.583801,0.99385977,-0.21607289,-38.29193,-0.0006740838,0.00010681152,0.23819134,-0.00032043457,6.1035156e-05,3.189087,-0.0009660721,9.8022,0.23760986,-0.21774292,9.801375,0.00055369735
-0.012291839,0.010861635,-15.472412,0.99386144,-0.21629585,-38.69934,-0.0006903708,0.00010681152,0.23810159,-0.0002593994,-6.1035156e-05,2.6275635,-0.00096416473,9.800995,0.2416687,-0.2163086,9.801373,0.00018191338
-0.0122992005,0.010913811,-15.496826,0.9938479,-0.21629916,-38.237,-0.00022757053,-6.1035156e-05,0.23915969,6.1035156e-05,0.00012207031,2.307129,-0.0012865067,9.8033905,0.24047852,-0.21487427,9.801347,0.0022513717
-0.012279619,0.010952805,-15.371704,0.99383736,-0.21581104,-37.794495,0.0009691715,-1.5258789e-05,0.23989806,0.0,0.00012207031,3.1219482,0.0005788803,9.804108,0.24047852,-0.21559143,9.80134,0.0012616068
-0.012262597,0.010952095,-15.441895,0.9938373,-0.21548012,-38.59253,0.0001629293,0.00022888184,0.23984829,-6.1035156e-05,6.1035156e-05,1.9851685,0.0011844635,9.8029175,0.2400055,-0.21583557,9.801349,0.00010673702
-0.012274839,0.010942841,-15.908813,0.9938399,-0.2157445,-38.18817,-0.00077329576,0.00010681152,0.23968896,-0.00018310547,0.0,2.6916504,-0.0009775162,9.8029175,0.23928833,-0.21655273,9.801347,0.00027771294
-0.012281156,0.0109274145,-15.415955,0.99384403,-0.21590964,-37.02545,0.0001193881,-1.5258789e-05,0.23939386,-0.0001373291,-0.00018310547,2.5619507,0.00094509125,9.803635,0.23951721,-0.21368408,9.80135,-0.00015576184
-0.012242523,0.010930237,-15.112305,0.99384266,-0.21514663,-37.31537,0.0012766719,-1.5258789e-05,0.23936953,0.0,0.0,3.781128,-0.00016498566,9.803162,0.23857117,-0.21440125,9.801367,-0.00012905896
-0.012235189,0.010914083,-14.331055,0.9938468,-0.21504682,-38.197327,0.0004529953,0.00016784668,0.2390314,-0.00019836426,0.00012207031,3.4057617,-0.0005865097,9.801956,0.23976135,-0.21511841,9.801377,-0.00074471533
-0.012215974,0.010920982,-14.956665,0.9938447,-0.21465252,-38.44757,0.000532642,0.00016784668,0.23912913,0.00012207031,0.00018310547,2.7328491,7.8201294e-05,9.803146,0.23928833,-0.21487427,9.801384,0.0010637939
-0.012214948,0.010915882,-15.715027,0.993846,-0.21464624,-38.50708,-0.00090897083,4.5776367e-05,0.23902507,6.1035156e-05,0.0,2.2964478,-0.00012302399,9.804596,0.23808289,-0.21559143,9.801387,0.0004518181
-0.012235439,0.010897756,-15.216064,0.99385107,-0.21509579,-38.671875,-0.0006903857,0.00010681152,0.2387057,-0.0001373291,-6.1035156e-05,3.2028198,0.0011892319,9.805557,0.23880005,-0.21798706,9.801385,-0.00043347478
-0.0122716585,0.010875138,-15.890503,0.99385756,-0.21586493,-37.998962,-0.0015835166,-1.5258789e-05,0.23832935,-0.00018310547,6.1035156e-05,1.890564,0.0014305115,9.805313,0.24023438,-0.21559143,9.801377,-0.00031889975
-0.012278622,0.010912936,-15.811157,0.9938478,-0.21589915,-39.309692,-0.00058054924,-1.5258789e-05,0.23909923,-0.0001373291,6.1035156e-05,2.9266357,0.00064086914,9.801956,0.23832703,-0.21774292,9.801357,0.0008253902
-0.012298449,0.01089102,-15.812683,0.99385387,-0.21634594,-37.504578,-0.00062830746,-1.5258789e-05,0.23870265,-6.1035156e-05,-6.1035156e-05,3.1036377,-0.0019636154,9.8029175,0.23760986,-0.21607971,9.801357,-0.0006765872
-0.012283982,0.010879123,-16.333008,0.9938567,-0.21609513,-38.656616,0.0002962798,-1.5258789e-05,0.23843469,0.0,6.1035156e-05,2.8305054,-0.0013227463,9.803162,0.2416687,-0.21559143,9.80137,-0.00039231777
-0.01230652,0.010934781,-15.753174,0.99384254,-0.21638568,-38.163757,-0.00012335181,0.00022888184,0.23959409,-0.0001373291,-6.1035156e-05,2.861023,0.0005645752,9.804825,0.24072266,-0.21487427,9.801334,0.0025144964
-0.012274321,0.010932805,-15.54718,0.99384254,-0.21576144,-38.563538,0.0011893511,0.00016784668,0.2394873,-0.0002593994,-6.1035156e-05,2.6260376,0.0013256073,9.80603,0.2416687,-0.21917725,9.801351,0.0006826371
-0.012331814,0.010942525,-15.272522,0.99384093,-0.21685934,-38.272095,-0.0020113587,4.5776367e-05,0.2398017,-6.1035156e-05,-6.1035156e-05,2.4002075,0.0016736984,9.804825,0.23857117,-0.21606445,9.801319,0.0013080835
-0.012312252,0.0109388,-15.628052,0.9938416,-0.2164869,-39.326477,0.00097097456,4.5776367e-05,0.23968637,-0.00019836426,0.0,2.3727417,-0.00015163422,9.803879,0.23736572,-0.21774292,9.80133,-0.00048163533
-0.01231781,0.010894831,-15.690613,0.99385315,-0.21671423,-37.96234,0.000686869,0.00016784668,0.23881926,-6.1035156e-05,0.0,3.829956,-0.0010404587,9.8022,0.23904419,-0.21702576,9.801347,0.0008843988
-0.0123217665,0.010887641,-16.204834,0.9938551,-0.21681096,-37.869263,-0.0001770556,0.000289917,0.23868382,-7.6293945e-05,-6.1035156e-05,2.682495,-0.0013418198,9.8029175,0.24072266,-0.21655273,9.801348,0.00056295097
-0.012337814,0.010920996,-15.153503,0.99384665,-0.21703479,-37.825012,3.7446618e-05,-1.5258789e-05,0.23938395,-0.00019836426,-6.1035156e-05,3.1295776,-0.00089645386,9.8033905,0.24072266,-0.21607971,9.801326,0.0020245314
-0.012320803,0.010928859,-15.710449,0.99384433,-0.21668091,-38.05847,0.0006494373,0.000289917,0.23950554,0.0,-6.1035156e-05,2.3788452,0.0018014908,9.804825,0.23832703,-0.21798706,9.80133,0.0004466325
-0.0123239625,0.010885192,-16.441345,0.9938558,-0.21686047,-38.282776,-0.00035858154,0.00010681152,0.23863941,6.1035156e-05,6.1035156e-05,2.3452759,0.00023365021,9.804108,0.24047852,-0.2172699,9.801347,-0.0003683418
-0.012325938,0.010915283,-14.265442,0.99384797,-0.21681798,-36.45172,-0.0001513362,0.00016784668,0.23924497,-0.0002593994,0.00012207031,3.501892,0.00046634674,9.80603,0.23927307,-0.2163086,9.801333,0.0016442984
-0.012316159,0.010896372,-14.76593,0.99385273,-0.21667778,-37.490845,-2.6464462e-05,0.00022888184,0.2388466,-6.1035156e-05,-6.1035156e-05,2.4246216,0.0019006729,9.800766,0.24072266,-0.2141571,9.801347,-0.00013186038
-0.012277997,0.010925495,-15.188599,0.9938445,-0.21585307,-38.186646,0.001261279,0.00016784668,0.23934892,0.00012207031,0.00018310547,2.5619507,-0.0035333633,9.804352,0.23976135,-0.2182312,9.8013525,0.001560092
-0.012315447,0.010912122,-16.331482,0.9938486,-0.21662141,-37.98065,-0.0015598685,0.00016784668,0.23915991,6.1035156e-05,-6.1035156e-05,2.9190063,0.0009965897,9.805786,0.24095154,-0.21655273,9.801341,0.00030218065
-0.01230724,0.010930391,-14.74762,0.9938437,-0.21641162,-37.64801,0.00039632618,0.00016784668,0.23950785,-0.0002593994,6.1035156e-05,2.6687622,0.001288414,9.8033905,0.24047852,-0.2163086,9.801336,0.0016165227
-0.012303789,0.010923632,-16.278076,0.9938454,-0.21636237,-37.88452,-0.00013391674,0.00016784668,0.23936555,-0.00019836426,0.00012207031,2.6779175,-0.0007352829,9.80603,0.23928833,-0.21655273,9.80134,0.00033336878
-0.012293326,0.010930722,-15.705872,0.9938434,-0.21613868,-40.811157,0.00014977157,-6.1035156e-05,0.23948538,6.1035156e-05,-6.1035156e-05,3.2440186,0.0017347336,9.80603,0.24047852,-0.21583557,9.801343,0.0004364103
-0.012292469,0.010946406,-16.107178,0.99383926,-0.21607956,-39.59198,0.00010176003,0.00022888184,0.23979704,-0.0002593994,0.00012207031,2.8335571,0.000992775,9.803146,0.24072266,-0.2163086,9.801336,0.00082945824