timestamp,rotationVector_x,rotationVector_y,rotationVector_z,accelerometer_x,accelerometer_y,accelerometer_z,magneticField_x,magneticField_y,magneticField_z,gravity_x,gravity_y,gravity_z,linearAcceleration_x,linearAcceleration_y,linearAcceleration_z,gyroscope_x,gyroscope_y,gyroscope_z
2019-07-01T20:18:25.675Z,0.010879805,-0.012264281,0.9938562,0.24023438,-0.21487427,9.804108,2.6870728,-15.904236,-38.7146,0.23840722,-0.21570809,9.801379,-0.0015427023,0.00014215708,0.0010976791,-0.00016784668,-0.0001373291,-0.00010681152
2019-07-01T20:18:25.872Z,0.010930293,-0.01227093,0.99384314,0.23951721,-0.2163086,9.801483,2.3162842,-15.504456,-37.182617,0.23892803,-0.2149893,9.801382,-0.0013650656,0.00040137768,0.00032901764,0.0002593994,0.00015258789,-0.00016784668
2019-07-01T20:18:26.068Z,0.0109086875,-0.012236029,0.9938482,0.2368927,-0.21655273,9.800995,2.3284912,-15.135193,-37.712097,0.23892537,-0.21507783,9.80138,0.00032290816,-0.0004775375,-0.0005788803,-4.5776367e-05,9.1552734e-05,-0.00022888184
2019-07-01T20:18:26.276Z,0.010855117,-0.01226493,0.9938627,0.23736572,-0.21678162,9.805313,2.8533936,-15.898132,-38.191223,0.23791519,-0.21578728,9.801389,-0.0012783706,-0.0009836853,-0.0023126602,-0.00016784668,9.1552734e-05,-0.00016784668
2019-07-01T20:18:26.478Z,0.010849492,-0.012282724,0.9938644,0.23904419,-0.2172699,9.8022,2.8640747,-15.602112,-38.51013,0.2378399,-0.21615034,9.801383,-1.5854836e-05,-0.0006040633,0.001490593,0.0001373291,9.1552734e-05,-0.00016784668
2019-07-01T20:18:26.682Z,0.01085288,-0.012304753,0.99386394,0.23808289,-0.21606445,9.800522,2.59552,-16.281128,-38.183594,0.23795356,-0.21657194,9.801371,0.0003426671,-0.0011429489,3.4332275e-05,-0.00016784668,-9.1552734e-05,-0.00016784668
2019-07-01T20:18:26.885Z,0.010882131,-0.012286896,0.993856,0.23904419,-0.21487427,9.804596,2.4902344,-15.2771,-36.917114,0.2385009,-0.21614401,9.801367,0.0005276948,0.001283899,-0.001241684,1.5258789e-05,-3.0517578e-05,-4.5776367e-05
2019-07-01T20:18:27.089Z,0.010870585,-0.012274255,0.9938588,0.23832703,-0.2172699,9.800766,3.2211304,-14.927673,-38.008118,0.23824379,-0.21592796,9.801378,-0.00017796457,-0.00012104213,0.00012111664,7.6293945e-05,3.0517578e-05,-0.00048828125
2019-07-01T20:18:27.289Z,0.010894959,-0.012302351,0.9938529,0.24072266,-0.21487427,9.804352,2.005005,-15.002441,-38.72986,0.23878954,-0.21641164,9.801354,0.0009512603,-0.0005954951,0.00024700165,1.5258789e-05,3.0517578e-05,-0.00022888184
2019-07-01T20:18:27.500Z,0.010894318,-0.012268194,0.9938525,0.23640442,-0.21751404,9.809143,3.5980225,-15.560913,-37.47406,0.2387054,-0.2157455,9.801371,0.00026607513,0.0006928295,0.00429821,0.0001373291,0.00015258789,-0.00010681152
2019-07-01T20:18:27.697Z,0.010857332,-0.012307325,0.9938628,0.23808289,-0.2182312,9.79454,2.6123047,-15.989685,-37.898254,0.23804791,-0.21661025,9.801368,-0.0012220591,-0.0020331591,-0.00048446655,-0.00016784668,-7.6293945e-05,-0.00016784668
2019-07-01T20:18:27.901Z,0.010843772,-0.012293952,0.99386615,0.23760986,-0.21511841,9.803879,2.935791,-15.818787,-38.104248,0.23774901,-0.21638526,9.801379,-0.00067457557,0.0010947585,-0.00031757355,1.5258789e-05,-0.00019836426,-0.00016784668
2019-07-01T20:18:28.101Z,0.01088993,-0.012311558,0.99385434,0.23951721,-0.21894836,9.80603,2.456665,-15.855408,-37.78839,0.23870824,-0.21660519,9.801352,0.00079889596,-0.0006555766,-0.0043563843,-4.5776367e-05,-9.1552734e-05,-0.00022888184
2019-07-01T20:18:28.307Z,0.01089037,-0.012341494,0.9938547,0.23783875,-0.21870422,9.804596,2.935791,-15.742493,-38.69171,0.2387795,-0.21718931,9.801336,-0.00022217631,-0.0007851571,0.00029563904,-4.5776367e-05,-0.0001373291,-0.00035095215
2019-07-01T20:18:28.504Z,0.0108749755,-0.012382001,0.9938594,0.23953247,-0.2163086,9.800766,3.8635254,-15.037537,-37.226868,0.23855631,-0.2180228,9.801323,-0.00052282214,-0.0013534576,0.0029067993,-4.5776367e-05,3.0517578e-05,-0.00022888184
2019-07-01T20:18:28.708Z,0.010896895,-0.012341935,0.99385303,0.23808289,-0.21487427,9.800995,3.4942627,-15.849304,-39.03656,0.23891085,-0.21718036,9.801333,0.0005738884,0.0011440367,-0.00013065338,1.5258789e-05,3.0517578e-05,-0.00016784668
2019-07-01T20:18:28.913Z,0.0108762365,-0.012290952,0.99385756,0.23760986,-0.21343994,9.8033905,3.3737183,-15.368652,-36.216736,0.23839155,-0.21623917,9.801367,-0.00079247355,0.002091825,-0.0029668808,1.5258789e-05,0.00015258789,-0.000289917
2019-07-01T20:18:29.131Z,0.010867682,-0.012260375,0.99385935,0.23880005,-0.2172699,9.805542,2.4932861,-14.974976,-38.139343,0.23815677,-0.21566436,9.801385,-9.9018216e-05,0.0012858808,0.0012149811,-4.5776367e-05,9.1552734e-05,-0.00010681152
2019-07-01T20:18:29.317Z,0.01087325,-0.012273251,0.9938581,0.2359314,-0.21368408,9.801239,2.2109985,-16.020203,-37.35962,0.2382949,-0.21590112,9.801376,0.0006907433,-0.00059857965,0.0027189255,1.5258789e-05,3.0517578e-05,6.1035156e-05
2019-07-01T20:18:29.522Z,0.010825252,-0.012223919,0.9938698,0.23832703,-0.21678162,9.803162,2.5527954,-15.484619,-37.716675,0.23723283,-0.21506579,9.801421,-0.0018132031,0.0014168471,-0.0015392303,-4.5776367e-05,3.0517578e-05,1.5258789e-05
2019-07-01T20:18:29.731Z,0.010852731,-0.012263709,0.9938633,0.23928833,-0.21463013,9.803162,3.0151367,-15.963745,-37.834167,0.23786497,-0.21576983,9.801391,0.0011425912,-0.0007496625,-0.00022697449,1.5258789e-05,-0.0001373291,7.6293945e-05
2019-07-01T20:18:29.946Z,0.01087131,-0.012250408,0.9938582,0.23664856,-0.21534729,9.804352,2.545166,-15.779114,-37.399292,0.23820846,-0.2154597,9.801388,0.00033549964,0.0003659129,-0.00078105927,-4.5776367e-05,-0.00019836426,0.0001373291
2019-07-01T20:18:30.131Z,0.010868496,-0.012245667,0.9938589,0.23832703,-0.21583557,9.799561,1.9500732,-14.956665,-35.69641,0.23814237,-0.21537462,9.801393,-0.001060918,0.000550434,0.0023593903,-0.00016784668,-3.0517578e-05,0.00038146973
2019-07-01T20:18:30.332Z,0.01087257,-0.012261812,0.9938581,0.23857117,-0.21391296,9.802673,3.5995483,-15.335083,-38.41095,0.23825747,-0.2156793,9.801383,4.9233437e-05,0.00010626018,-0.0028867722,1.5258789e-05,-3.0517578e-05,6.1035156e-05
2019-07-01T20:18:30.534Z,0.010881746,-0.012240564,0.9938553,0.23857117,-0.21606445,9.801483,1.953125,-16.326904,-37.864685,0.2383965,-0.21523915,9.80139,0.0003913045,0.00084897876,-0.0006542206,1.5258789e-05,-9.1552734e-05,7.6293945e-05
2019-07-01T20:18:30.741Z,0.010895749,-0.012251278,0.99385184,0.23928833,-0.21559143,9.800049,2.2628784,-16.444397,-38.72986,0.23869865,-0.21541086,9.801377,-0.00014428794,-0.00063841045,0.00036144257,0.0001373291,-3.0517578e-05,-0.00016784668
2019-07-01T20:18:30.936Z,0.010881701,-0.012239154,0.9938553,0.23951721,-0.2163086,9.802673,3.6117554,-15.270996,-37.339783,0.23839262,-0.21521169,9.80139,-0.0003118813,-0.00013364851,-0.001200676,1.5258789e-05,9.1552734e-05,-0.00035095215
2019-07-01T20:18:31.142Z,0.010899324,-0.0122701945,0.99385124,0.23736572,-0.21702576,9.8029175,3.4500122,-15.280151,-37.56256,0.2388096,-0.2157711,9.801367,0.0011814684,-0.0009974986,0.0009584427,-0.00010681152,0.00015258789,-0.000289917
2019-07-01T20:18:31.347Z,0.010890405,-0.012296657,0.993854,0.23832703,-0.21583557,9.801483,2.6184082,-15.690613,-38.74359,0.2386866,-0.21631256,9.801358,-0.00013583899,-0.00093886256,0.00047683716,0.00019836426,-9.1552734e-05,-0.00022888184
2019-07-01T20:18:31.551Z,0.010867874,-0.01225656,0.99385923,0.23712158,-0.21440125,9.799088,4.3045044,-15.800476,-38.381958,0.23815265,-0.21558926,9.801387,-0.0010124296,0.0007119328,-0.0019159317,7.6293945e-05,9.1552734e-05,-0.00010681152
2019-07-01T20:18:31.752Z,0.010866032,-0.012246703,0.9938595,0.23976135,-0.21606445,9.802673,2.2079468,-15.940857,-38.09662,0.23809527,-0.21540149,9.801393,0.00022946298,0.00028516352,0.00046920776,1.5258789e-05,0.00015258789,-0.00030517578
2019-07-01T20:18:31.957Z,0.010871915,-0.01224516,0.993858,0.237854,-0.21440125,9.802429,3.1402588,-15.010071,-37.41913,0.23820964,-0.21535549,9.801392,0.00082428753,-0.00022667646,0.0006313324,-4.5776367e-05,0.00015258789,1.5258789e-05
2019-07-01T20:18:32.159Z,0.010858292,-0.012230448,0.99386126,0.23713684,-0.2163086,9.800049,2.7694702,-15.823364,-39.00299,0.23790668,-0.21510454,9.801404,-0.00029057264,0.00046876073,-0.0013418198,0.00019836426,3.0517578e-05,1.5258789e-05
2019-07-01T20:18:32.359Z,0.0108370045,-0.0122302035,0.99386686,0.23904419,-0.21534729,9.801712,3.0288696,-15.52124,-38.34839,0.23748077,-0.21515703,9.801413,0.00012384355,0.00076054037,0.0005712509,-4.5776367e-05,3.0517578e-05,7.6293945e-05
2019-07-01T20:18:32.554Z,0.010858082,-0.012243438,0.99386156,0.23617554,-0.21606445,9.801239,3.2150269,-15.150452,-37.373352,0.2379296,-0.21535905,9.801397,0.00086024404,-0.00022314489,0.0003824234,-4.5776367e-05,-0.0002593994,0.00012207031
2019-07-01T20:18:32.776Z,0.0108481785,-0.0122579085,0.99386436,0.23904419,-0.21606445,9.804825,2.9769897,-14.866638,-38.363647,0.23776188,-0.21566868,9.801395,-0.0015820265,-0.00039969385,-0.001168251,-0.00022888184,-0.00019836426,6.1035156e-05
2019-07-01T20:18:32.973Z,0.010876454,-0.01228277,0.9938574,0.23904419,-0.21391296,9.8033905,2.8289795,-14.66217,-37.86316,0.23837882,-0.21607862,9.801371,0.00089766085,-0.00021922588,0.0013036728,-4.5776367e-05,-9.1552734e-05,0.0
2019-07-01T20:18:33.172Z,0.010902667,-0.012243068,0.9938499,0.23857117,-0.21583557,9.804108,2.5054932,-14.759827,-37.643433,0.23881978,-0.21523169,9.801379,0.0004157126,0.0020697564,0.0021476746,7.6293945e-05,-0.00019836426,0.0001373291
2019-07-01T20:18:33.375Z,0.010896955,-0.0122592915,0.99385166,0.23521423,-0.21440125,9.799805,3.3035278,-14.77356,-38.35907,0.23873949,-0.2155643,9.8013735,-0.00092314184,-0.0014274567,-1.9073486e-06,7.6293945e-05,-9.1552734e-05,-0.00016784668
2019-07-01T20:18:33.575Z,0.010848008,-0.012223235,0.9938639,0.23808289,-0.2163086,9.801956,3.515625,-15.489197,-38.360596,0.23768613,-0.21499118,9.801412,-0.002254501,0.0013312846,-0.0008020401,-4.5776367e-05,9.1552734e-05,-4.5776367e-05
2019-07-01T20:18:33.778Z,0.010865975,-0.012255887,0.9938597,0.23928833,-0.21511841,9.799561,3.4606934,-14.909363,-38.16681,0.2381133,-0.21558121,9.801388,0.0009254068,-0.0014395863,-0.0018091202,7.6293945e-05,-0.0001373291,1.5258789e-05
2019-07-01T20:18:33.983Z,0.010883743,-0.012253502,0.993855,0.237854,-0.2172699,9.803635,2.9022217,-14.802551,-38.12256,0.2384634,-0.21548674,9.801382,0.0003361106,0.00036880374,-0.00040912628,-0.00010681152,0.00015258789,-0.00018310547
2019-07-01T20:18:34.188Z,0.010852584,-0.012273234,0.99386346,0.23760986,-0.21487427,9.802444,2.6885986,-15.982056,-38.12561,0.2378819,-0.21595646,9.801386,-0.0010114908,-0.0005760342,0.0018043518,-4.5776367e-05,-0.00019836426,6.1035156e-05
2019-07-01T20:18:34.388Z,0.01086606,-0.012267536,0.9938599,0.23641968,-0.21511841,9.8033905,1.7410278,-15.682983,-37.724304,0.2381393,-0.21580873,9.801382,0.00016631186,0.00048086047,-6.389618e-05,-4.5776367e-05,9.1552734e-05,-4.5776367e-05
2019-07-01T20:18:34.591Z,0.010821656,-0.012239301,0.993871,0.23664856,-0.21440125,9.8022,2.3925781,-15.420532,-37.924194,0.23719306,-0.21537621,9.801415,-0.0012933165,0.0012478381,0.00091171265,-4.5776367e-05,3.0517578e-05,-0.000289917
2019-07-01T20:18:34.791Z,0.0108175725,-0.012248637,0.9938722,0.23928833,-0.21534729,9.804108,3.1311035,-15.151978,-37.89978,0.23713093,-0.21556975,9.801413,-0.0005117357,-0.00023914874,-0.00018119812,-4.5776367e-05,-3.0517578e-05,-0.00022888184
2019-07-01T20:18:34.995Z,0.010852357,-0.012231282,0.99386287,0.23857117,-0.21391296,9.802673,3.994751,-15.5303955,-38.31482,0.23778982,-0.2151368,9.801406,0.0014548153,0.00030204654,0.0011453629,7.6293945e-05,0.00015258789,7.6293945e-05
2019-07-01T20:18:35.202Z,0.010866124,-0.012203825,0.9938588,0.23904419,-0.21583557,9.803879,2.6184082,-15.844727,-37.7182,0.23800762,-0.21456288,9.801414,0.0005377531,0.0011461973,-0.0014657974,1.5258789e-05,-0.0001373291,0.0001373291
2019-07-01T20:18:35.398Z,0.010886633,-0.012246579,0.99385417,0.23880005,-0.21655273,9.80484,2.243042,-15.287781,-37.513733,0.23850667,-0.21534356,9.801384,0.0004978776,-0.001173377,0.0010948181,-0.00016784668,-3.0517578e-05,0.00018310547
2019-07-01T20:18:35.697Z,0.010885521,-0.0122691775,0.9938548,0.23808289,-0.21487427,9.801483,3.3447266,-15.797424,-37.51068,0.23853165,-0.21578842,9.8013735,0.00021365285,-0.0009589344,0.0012168884,7.6293945e-05,3.0517578e-05,0.00018310547
2019-07-01T20:18:35.902Z,0.010866449,-0.012264796,0.9938597,0.237854,-0.2172699,9.806503,4.144287,-15.507507,-40.052795,0.23814137,-0.21575414,9.801384,-0.00060737133,0.00046029687,0.0017690659,7.6293945e-05,-9.1552734e-05,0.0002593994
2019-07-01T20:18:36.014Z,0.01087032,-0.012257824,0.9938586,0.2368927,-0.21655273,9.802429,1.826477,-15.380859,-38.572693,0.23820415,-0.21560737,9.801385,-0.0004092604,-0.00017468631,-0.001373291,-0.00010681152,3.0517578e-05,0.0001373291
2019-07-01T20:18:36.219Z,0.010854393,-0.012290661,0.9938633,0.24095154,-0.21702576,9.8029175,4.0527344,-15.962219,-38.630676,0.23795441,-0.21629232,9.801376,-0.0003924966,-0.00068984926,-0.00092220306,-4.5776367e-05,-0.0001373291,0.00018310547
2019-07-01T20:18:36.424Z,0.01092295,-0.012303027,0.9938456,0.23760986,-0.21368408,9.804108,2.2781372,-16.078186,-38.73291,0.23935033,-0.21634932,9.801341,0.0020420402,-0.00038941205,-0.00012302399,1.5258789e-05,-0.0001373291,0.00018310547
2019-07-01T20:18:36.671Z,0.010905591,-0.012273723,0.99384964,0.2368927,-0.21583557,9.801239,2.6275635,-15.54718,-38.412476,0.23894222,-0.21582319,9.801363,-0.0011530519,0.0012378395,0.0002374649,7.6293945e-05,-0.0001373291,1.5258789e-05
2019-07-01T20:18:36.873Z,0.010871334,-0.012252027,0.9938582,0.23857117,-0.21559143,9.800293,2.7923584,-15.312195,-39.05182,0.23821233,-0.21549131,9.801388,-0.0015992075,-6.8083405e-05,-0.0011177063,-4.5776367e-05,0.00015258789,-4.5776367e-05
2019-07-01T20:18:37.076Z,0.010863639,-0.012255872,0.9938603,0.2368927,-0.21583557,9.802673,3.9596558,-16.334534,-38.249207,0.2380666,-0.21558723,9.80139,0.00024573505,0.00048214197,-0.001701355,1.5258789e-05,-7.6293945e-05,1.5258789e-05
2019-07-01T20:18:37.273Z,0.010873984,-0.012250428,0.9938575,0.23928833,-0.21655273,9.803879,2.9174805,-16.410828,-37.242126,0.23826195,-0.21545292,9.801388,0.0012228936,0.00013490021,0.0016326904,-0.00016784668,3.0517578e-05,-4.5776367e-05
2019-07-01T20:18:37.494Z,0.010866168,-0.012270376,0.9938599,0.23760986,-0.2172699,9.800766,3.4606934,-14.907837,-38.31787,0.2381474,-0.215864,9.801381,0.00014357269,-0.00016777217,0.0002965927,-4.5776367e-05,-9.1552734e-05,7.6293945e-05
2019-07-01T20:18:37.682Z,0.010875211,-0.0122988075,0.993858,0.23783875,-0.21511841,9.803635,1.7227173,-15.9713745,-38.31024,0.23838745,-0.21639554,9.801364,-8.165836e-05,-0.0010992289,-0.0012426376,1.5258789e-05,-3.0517578e-05,-0.00010681152
2019-07-01T20:18:37.880Z,0.010856436,-0.0122978445,0.99386287,0.24024963,-0.2172699,9.799805,3.1021118,-15.733337,-38.47046,0.2380102,-0.21642727,9.801372,-0.0006573796,0.0003592819,-0.0006637573,-4.5776367e-05,0.00015258789,1.5258789e-05
2019-07-01T20:18:38.081Z,0.010871814,-0.012296909,0.9938589,0.24047852,-0.21534729,9.801239,2.3834229,-15.638733,-37.893677,0.23831558,-0.21636757,9.801366,0.0011918545,6.787479e-05,-0.00028514862,7.6293945e-05,-9.1552734e-05,0.0001373291
2019-07-01T20:18:38.295Z,0.010937866,-0.012288235,0.9938414,0.23832703,-0.21751404,9.805557,2.8930664,-15.249634,-36.92932,0.23961751,-0.21601984,9.801342,0.0020529628,0.00042681396,-0.0009918213,-0.00010681152,9.1552734e-05,-4.5776367e-05
2019-07-01T20:18:38.510Z,0.010885071,-0.012323682,0.99385583,0.23641968,-0.21606445,9.800522,2.4002075,-15.196228,-38.635254,0.23863643,-0.21685535,9.801348,-0.0015496314,-0.0015731305,0.0030097961,0.0001373291,9.1552734e-05,-0.00016784668
2019-07-01T20:18:38.700Z,0.010853952,-0.012288604,0.99386334,0.23808289,-0.21870422,9.8029175,3.6132812,-15.272522,-37.190247,0.23794128,-0.2162533,9.801377,-0.0010721385,0.0011563003,-0.0008649826,1.5258789e-05,3.0517578e-05,-4.5776367e-05
2019-07-01T20:18:38.896Z,0.010854595,-0.012325137,0.9938638,0.23832703,-0.21463013,9.8022,3.8482666,-15.25116,-38.175964,0.23803034,-0.21696587,9.801359,0.00052176416,-0.0021940023,-0.00043201447,0.00019836426,9.1552734e-05,-0.00010681152
2019-07-01T20:18:39.153Z,0.010860243,-0.012260514,0.99386126,0.23832703,-0.21391296,9.804108,3.6193848,-15.049744,-37.52289,0.2380084,-0.21568711,9.801388,0.000301674,0.0022625327,-0.00013065338,1.5258789e-05,3.0517578e-05,7.6293945e-05
2019-07-01T20:18:39.358Z,0.010845123,-0.012238614,0.99386483,0.24023438,-0.21440125,9.802444,2.6992798,-15.763855,-38.15918,0.23766057,-0.21529965,9.801406,-0.0005527884,0.0006958246,0.0010309219,1.5258789e-05,-3.0517578e-05,-4.5776367e-05
2019-07-01T20:18:39.563Z,0.010913707,-0.012230639,0.99384683,0.24119568,-0.21678162,9.801239,2.7435303,-14.816284,-37.74109,0.23901442,-0.21495889,9.80138,0.0026122183,0.0005954504,0.0010032654,-4.5776367e-05,3.0517578e-05,-0.00016784668
2019-07-01T20:18:39.759Z,0.010933889,-0.012255558,0.99384195,0.23641968,-0.21534729,9.80101,2.734375,-15.036011,-37.63275,0.23946975,-0.21539164,9.801359,0.0007430464,-0.00089754164,-0.0017213821,-4.5776367e-05,-9.1552734e-05,1.5258789e-05
2019-07-01T20:18:39.966Z,0.010890638,-0.012272337,0.9938535,0.23808289,-0.21511841,9.799088,2.9159546,-16.333008,-37.82959,0.2386405,-0.2158364,9.80137,-0.0020088851,-0.0004568696,-0.00033855438,1.5258789e-05,-0.0001373291,0.00036621094
2019-07-01T20:18:40.169Z,0.010907808,-0.012258314,0.9938488,0.24047852,-0.21655273,9.803635,3.7475586,-15.692139,-38.337708,0.23895435,-0.21551593,9.80137,-0.00038549304,0.00015547872,-0.0011873245,7.6293945e-05,-3.0517578e-05,-4.5776367e-05
2019-07-01T20:18:40.372Z,0.010911236,-0.012250032,0.9938478,0.23857117,-0.2131958,9.804108,2.7542114,-16.342163,-38.12561,0.23900555,-0.21534476,9.801373,0.0004917234,0.00048844516,0.0014448166,-0.00016784668,3.0517578e-05,1.5258789e-05
2019-07-01T20:18:40.573Z,0.0109190885,-0.012237638,0.9938455,0.23976135,-0.2163086,9.8033905,3.0288696,-15.74707,-37.413025,0.23913658,-0.21508124,9.801375,0.00060869753,0.0011827499,-0.00030612946,1.5258789e-05,9.1552734e-05,-0.00010681152
2019-07-01T20:18:40.776Z,0.010914617,-0.012243592,0.9938468,0.23928833,-0.21511841,9.801483,2.6382446,-15.405273,-37.78076,0.23905966,-0.21520971,9.8013735,0.0002014488,-0.00035721064,0.0009012222,-0.00010681152,9.1552734e-05,-0.00016784668
2019-07-01T20:18:40.978Z,0.010913393,-0.012268707,0.9938475,0.23928833,-0.21678162,9.8022,2.8579712,-15.750122,-38.539124,0.23908764,-0.21570405,9.801361,-0.0003106296,-0.000583753,-0.00034999847,7.6293945e-05,3.0517578e-05,-4.5776367e-05
2019-07-01T20:18:41.178Z,0.010898346,-0.012267349,0.9938514,0.23832703,-0.21368408,9.802444,1.9943237,-15.376282,-37.823486,0.23878413,-0.21571812,9.80137,-1.0177493e-05,-0.0008110702,0.00023365021,1.5258789e-05,-0.0001373291,-4.5776367e-05
2019-07-01T20:18:41.380Z,0.010931939,-0.012223067,0.9938419,0.23832703,-0.21583557,9.800766,2.470398,-15.487671,-38.09204,0.2393629,-0.21476164,9.801376,0.0006148964,0.002307877,0.00016307831,-0.00010681152,3.0517578e-05,-0.00018310547
2019-07-01T20:18:41.584Z,0.010887869,-0.012266266,0.99385417,0.23808289,-0.21536255,9.8033905,3.0014038,-14.3585205,-38.11035,0.23857248,-0.21572515,9.8013735,-0.0012338758,-0.0015202314,-4.386902e-05,1.5258789e-05,-0.0001373291,1.5258789e-05
2019-07-01T20:18:41.804Z,0.0108996825,-0.012236354,0.9938506,0.23857117,-0.21296692,9.801483,2.8778076,-15.463257,-37.576294,0.23874609,-0.21510845,9.801383,-0.00043781102,0.0004799515,-0.00066947937,7.6293945e-05,3.0517578e-05,-0.00035095215
2019-07-01T20:18:42.006Z,0.010911351,-0.012223733,0.9938473,0.23760986,-0.21272278,9.805069,3.3798218,-14.99176,-37.72583,0.2389529,-0.21483022,9.801385,-0.00019301474,-0.0014422685,0.002998352,1.5258789e-05,0.00015258789,-0.00016784668
2019-07-01T20:18:42.205Z,0.010889547,-0.012191101,0.9938525,0.24095154,-0.2172699,9.803162,3.111267,-15.438843,-38.78784,0.23844907,-0.21425098,9.80141,-0.00016839802,0.0013257116,0.00054836273,7.6293945e-05,9.1552734e-05,-0.00016784668
2019-07-01T20:18:42.457Z,0.010915595,-0.012243893,0.99384654,0.23951721,-0.2163086,9.801712,2.5405884,-15.623474,-38.8031,0.23907982,-0.21521294,9.801373,0.0015926659,-0.002728954,0.00020503998,0.00019836426,-0.0001373291,-0.00010681152
2019-07-01T20:18:42.652Z,0.010937872,-0.012255998,0.9938409,0.23880005,-0.21583557,9.802673,3.4194946,-15.861511,-37.98065,0.23955026,-0.2153895,9.801357,0.00016669929,-0.000635013,-0.000500679,1.5258789e-05,-9.1552734e-05,-0.00010681152
2019-07-01T20:18:42.854Z,0.010924502,-0.012248974,0.9938443,0.237854,-0.21559143,9.8033905,1.8356323,-15.388489,-37.51831,0.23926844,-0.21528827,9.801367,-0.00096191466,0.00018829107,-0.0019283295,-0.00010681152,0.00021362305,-6.1035156e-05
2019-07-01T20:18:43.055Z,0.010888377,-0.01226294,0.993854,0.23976135,-0.21679688,9.801239,2.9541016,-15.377808,-38.39264,0.2385757,-0.21565877,9.801375,-0.00053437054,-0.00038339198,0.001742363,-0.00010681152,3.0517578e-05,-4.5776367e-05
2019-07-01T20:18:43.259Z,0.010896621,-0.012282651,0.99385214,0.23545837,-0.21559143,9.8029175,2.1652222,-15.145874,-37.783813,0.2387816,-0.21602193,9.801362,0.00071644783,-0.0005134791,-0.001871109,-4.5776367e-05,0.00015258789,-0.00016784668
2019-07-01T20:18:43.459Z,0.010839159,-0.012268971,0.9938669,0.23857117,-0.21463013,9.803162,2.305603,-15.79895,-37.01477,0.23760471,-0.21590924,9.8013935,-0.0019593835,0.00035592914,0.0019454956,1.5258789e-05,-0.00019836426,0.00018310547
2019-07-01T20:18:43.663Z,0.010890763,-0.012269564,0.99385345,0.23976135,-0.21583557,9.801727,1.991272,-15.522766,-37.55188,0.23863722,-0.21578185,9.801372,0.0010872185,0.00046794116,-0.00044345856,-0.00010681152,-0.00019836426,0.00036621094
2019-07-01T20:18:43.865Z,0.010885111,-0.0122607965,0.99385476,0.23855591,-0.21487427,9.8033905,3.6636353,-15.771484,-38.275146,0.23850594,-0.21562564,9.801377,-0.00066550076,0.0010077655,-0.0018854141,-0.00010681152,9.1552734e-05,-6.1035156e-05
2019-07-01T20:18:44.071Z,0.010907497,-0.012257691,0.99384886,0.23545837,-0.21368408,9.801483,3.189087,-15.812683,-36.979675,0.23894683,-0.21550457,9.80137,0.00079086423,0.00040750206,0.0008211136,-4.5776367e-05,-9.1552734e-05,-4.5776367e-05
2019-07-01T20:18:44.276Z,0.010855574,-0.012214431,0.99386173,0.23857117,-0.21487427,9.801239,2.6123047,-15.838623,-38.546753,0.23781897,-0.21479867,9.801414,-0.0021492243,0.001130417,-0.00042247772,7.6293945e-05,3.0517578e-05,1.5258789e-05
2019-07-01T20:18:44.471Z,0.010867769,-0.012232252,0.9938588,0.24263,-0.21702576,9.802673,3.918457,-15.615845,-37.345886,0.23809981,-0.21511427,9.801398,0.00045117736,-0.00045892596,0.00019931793,1.5258789e-05,-3.0517578e-05,0.00030517578
2019-07-01T20:18:44.678Z,0.010930425,-0.012252591,0.9938428,0.23857117,-0.21321106,9.801956,2.9266357,-16.186523,-37.95166,0.23939432,-0.21534298,9.801362,0.0025013834,-0.0007060468,-0.00033664703,1.5258789e-05,-3.0517578e-05,0.00012207031
2019-07-01T20:18:44.886Z,0.010931916,-0.012235297,0.9938421,0.24023438,-0.21511841,9.8033905,3.5690308,-16.145325,-37.81891,0.23938797,-0.21500082,9.80137,-0.00011961162,0.00086164474,0.0002565384,0.00019836426,-3.0517578e-05,-0.00010681152
2019-07-01T20:18:45.082Z,0.010933393,-0.012219229,0.99384147,0.23857117,-0.21487427,9.8022,3.2089233,-15.144348,-38.2782,0.23938389,-0.21468265,9.801376,-0.00012525916,-0.00016497076,0.0007972717,-4.5776367e-05,3.0517578e-05,-4.5776367e-05
2019-07-01T20:18:45.288Z,0.010921591,-0.012219681,0.99384457,0.23808289,-0.21798706,9.801956,3.250122,-16.093445,-37.869263,0.23914906,-0.2147234,9.801383,-0.00012931228,-0.00012892485,-0.00042819977,-4.5776367e-05,3.0517578e-05,0.0002593994
2019-07-01T20:18:45.489Z,0.010891171,-0.012278045,0.99385345,0.23880005,-0.21702576,9.800522,2.520752,-16.290283,-37.50305,0.23866308,-0.21594657,9.801367,-0.00083614886,-0.0022601336,0.00019359589,-4.5776367e-05,3.0517578e-05,-0.00010681152
2019-07-01T20:18:45.692Z,0.0108908955,-0.0122878,0.9938537,0.24024963,-0.2141571,9.800522,3.3874512,-14.923096,-37.184143,0.23867792,-0.21613805,9.801362,0.000114649534,-0.00016377866,-0.0016202927,7.6293945e-05,3.0517578e-05,0.00024414062
2019-07-01T20:18:45.896Z,0.010921473,-0.01226608,0.99384534,0.23880005,-0.21870422,9.800278,3.3462524,-15.797424,-37.435913,0.23924363,-0.2156309,9.80136,0.0012384653,0.0007534027,-0.0009202957,0.0001373291,3.0517578e-05,-4.5776367e-05
2019-07-01T20:18:46.099Z,0.010915281,-0.012312651,0.9938477,0.23713684,-0.21749878,9.80603,2.6168823,-15.690613,-39.04419,0.23921718,-0.21655819,9.80134,-0.00041222572,-0.002150461,-0.0001449585,-0.00010681152,-0.00019836426,-4.5776367e-05
2019-07-01T20:18:46.298Z,0.010877561,-0.012309182,0.99385756,0.237854,-0.21440125,9.800995,2.9342651,-15.893555,-38.041687,0.23845607,-0.21659207,9.801358,-0.0018281341,5.8084726e-05,0.0021457672,1.5258789e-05,9.1552734e-05,-4.5776367e-05
2019-07-01T20:18:46.509Z,0.010879645,-0.012277332,0.9938565,0.23904419,-0.21655273,9.804108,3.1051636,-15.739441,-37.791443,0.23843126,-0.2159637,9.801373,-0.00013419986,-8.8870525e-05,0.00031375885,0.0001373291,-9.1552734e-05,1.5258789e-05
2019-07-01T20:18:46.711Z,0.010884806,-0.012257203,0.9938548,0.23904419,-0.21559143,9.800995,3.1280518,-15.30304,-37.32605,0.23849237,-0.21555623,9.80138,-0.0002092123,0.00072161853,0.001168251,7.6293945e-05,-3.0517578e-05,1.5258789e-05
2019-07-01T20:18:46.902Z,0.010894641,-0.012270245,0.99385244,0.23832703,-0.21751404,9.800995,2.6184082,-15.690613,-38.81836,0.23871616,-0.21578471,9.80137,0.00053986907,-0.0007387996,-0.0009841919,-0.00010681152,0.00015258789,-0.00022888184
2019-07-01T20:18:47.100Z,0.01086934,-0.012291496,0.9938594,0.23904419,-0.21679688,9.800522,2.4032593,-15.2786255,-37.443542,0.23825486,-0.21626839,9.80137,-0.00040587783,-0.0005239099,-0.0022449493,1.5258789e-05,-3.0517578e-05,-4.5776367e-05
2019-07-01T20:18:47.317Z,0.010890272,-0.012310565,0.9938542,0.24095154,-0.21606445,9.802444,3.0761719,-16.395569,-37.924194,0.238713,-0.21658485,9.801352,0.0007994622,-0.0009248853,-6.389618e-05,1.5258789e-05,0.00015258789,1.5258789e-05
2019-07-01T20:18:47.518Z,0.010940849,-0.012310998,0.99384105,0.23904419,-0.21487427,9.800995,3.7948608,-16.036987,-40.522766,0.2397247,-0.21645685,9.80133,0.0021696836,0.00040906668,0.0010766983,-4.5776367e-05,-9.1552734e-05,7.6293945e-05
2019-07-01T20:18:47.720Z,0.010910521,-0.01228293,0.9938485,0.23736572,-0.21534729,9.801483,3.0014038,-15.951538,-39.492798,0.23906,-0.21598993,9.801357,-0.0014609694,0.00112544,-0.0005617142,-4.5776367e-05,9.1552734e-05,-0.00016784668
2019-07-01T20:18:48.022Z,0.010895306,-0.012256773,0.993852,0.23951721,-0.21463013,9.800049,3.125,-15.299988,-37.854004,0.2387013,-0.2155195,9.801375,-0.0006224364,0.00064887106,-0.0005302429,0.0001373291,-0.0002593994,-4.5776367e-05
2019-07-01T20:18:48.226Z,0.010928905,-0.012229114,0.9938428,0.237854,-0.2141571,9.801727,3.6239624,-14.978027,-37.43286,0.2393149,-0.21488807,9.801374,0.00044485927,0.00048825145,-0.0002002716,0.00019836426,-9.1552734e-05,6.1035156e-05
2019-07-01T20:18:48.432Z,0.010901351,-0.012204466,0.9938496,0.23736572,-0.21606445,9.798126,3.0212402,-15.817261,-37.730408,0.23871285,-0.21448049,9.801398,-0.0015657097,0.0005582571,-0.00092601776,1.5258789e-05,-3.0517578e-05,-4.5776367e-05
2019-07-01T20:18:48.637Z,0.010886481,-0.012241955,0.9938541,0.23904419,-0.21511841,9.802673,3.3950806,-16.371155,-38.233948,0.23849398,-0.21525355,9.801386,-0.00060500205,-0.0015596449,-0.0020513535,-4.5776367e-05,-0.0001373291,6.1035156e-05
2019-07-01T20:18:48.781Z,0.010909102,-0.012265352,0.99384856,0.2400055,-0.21751404,9.799088,3.8101196,-16.05072,-38.563538,0.23899491,-0.21565005,9.801366,0.00029824674,-0.00043401122,0.0024671555,-0.00010681152,-9.1552734e-05,-4.5776367e-05
2019-07-01T20:18:49.001Z,0.010899429,-0.012283212,0.9938514,0.2359314,-0.21583557,9.803635,2.3880005,-15.415955,-38.528442,0.23883893,-0.21602535,9.801362,0.00023065507,-0.00030623376,-0.001704216,7.6293945e-05,0.00016784668,-0.00016784668
2019-07-01T20:18:49.194Z,0.010856763,-0.012276058,0.99386245,0.2368927,-0.21583557,9.803635,3.262329,-15.724182,-38.323975,0.23797129,-0.21600042,9.801382,-0.0015699416,-0.0003053844,0.0023698807,-0.00010681152,3.0517578e-05,6.1035156e-05
2019-07-01T20:18:49.395Z,0.010840289,-0.012269086,0.9938666,0.237854,-0.21391296,9.800278,2.319336,-17.025757,-38.475037,0.23762754,-0.21590845,9.801393,-0.00075674057,0.00033693016,0.0015821457,-0.00010681152,-9.1552734e-05,0.00018310547
2019-07-01T20:18:49.592Z,0.0108521115,-0.012252623,0.9938633,0.237854,-0.21463013,9.801239,2.5375366,-15.925598,-37.278748,0.23782943,-0.21555473,9.801395,0.00025187433,0.0013990551,-0.0016555786,-0.00016784668,9.1552734e-05,-0.00016784668
2019-07-01T20:18:49.801Z,0.01085532,-0.012248489,0.99386233,0.23857117,-0.21583557,9.801239,2.961731,-15.310669,-37.924194,0.23788494,-0.21546526,9.801396,0.0002040863,0.00082957745,-0.00062179565,-0.00010681152,-9.1552734e-05,1.5258789e-05
2019-07-01T20:18:50.001Z,0.010872854,-0.012247641,0.99385774,0.23857117,-0.21606445,9.800278,3.0181885,-15.737915,-38.694763,0.23823357,-0.21540146,9.80139,0.00034096837,0.00052414834,0.00023174286,-4.5776367e-05,-0.0001373291,-4.5776367e-05
2019-07-01T20:18:50.209Z,0.0108839655,-0.012280128,0.9938554,0.237854,-0.21559143,9.8022,2.3406982,-15.148926,-35.9787,0.23852341,-0.21600673,9.801369,5.2839518e-05,-0.0010236353,-0.00016498566,-0.00010681152,-9.1552734e-05,0.00024414062
2019-07-01T20:18:50.407Z,0.010873482,-0.012274832,0.99385804,0.23808289,-0.21751404,9.801956,3.2363892,-16.384888,-37.928772,0.23830286,-0.21593145,9.801376,-0.00093626976,0.00058339536,0.0003862381,1.5258789e-05,-0.00019836426,0.0001373291
2019-07-01T20:18:50.606Z,0.010875257,-0.012304664,0.9938581,0.23881531,-0.21655273,9.800522,3.3370972,-16.018677,-37.405396,0.2384006,-0.21650992,9.801361,-0.0005529225,-0.0012272596,0.0005788803,-0.00010681152,-0.0002593994,7.6293945e-05
2019-07-01T20:18:50.808Z,0.01091359,-0.012313587,0.9938482,0.23904419,-0.21774292,9.80484,2.1728516,-14.99939,-37.82959,0.23918533,-0.21658105,9.80134,0.00034171343,0.0002773553,-7.915497e-05,-0.00010681152,-0.0002593994,0.0001373291
2019-07-01T20:18:51.010Z,0.010929164,-0.012362262,0.9938449,0.23880005,-0.21559143,9.804108,2.7923584,-15.541077,-37.81433,0.23959826,-0.21749076,9.801311,-0.000109657645,-0.0014316291,0.001871109,-0.00016784668,-9.1552734e-05,0.00012207031
2019-07-01T20:18:51.211Z,0.010909357,-0.012317166,0.99384934,0.23976135,-0.21559143,9.8029175,2.8701782,-15.762329,-36.880493,0.2391082,-0.21666244,9.80134,-0.00082214177,0.0022983253,0.0010881424,-4.5776367e-05,-9.1552734e-05,1.5258789e-05
2019-07-01T20:18:51.414Z,0.01093701,-0.012317636,0.9938421,0.23976135,-0.21678162,9.805313,2.9281616,-15.962219,-38.51013,0.23966184,-0.216597,9.801328,0.0003130287,0.00031609833,-0.0008535385,-4.5776367e-05,-9.1552734e-05,-4.5776367e-05
2019-07-01T20:18:51.634Z,0.010893611,-0.012254299,0.99385244,0.23951721,-0.21655273,9.804352,2.380371,-15.635681,-38.42163,0.23866226,-0.2154757,9.801377,-0.00157094,0.0016038567,-0.0017642975,-4.5776367e-05,-3.0517578e-05,0.0001373291
2019-07-01T20:18:51.829Z,0.010911399,-0.0122693265,0.993848,0.23713684,-0.21391296,9.802673,1.9866943,-15.670776,-37.205505,0.23904908,-0.21572155,9.801362,0.0006671697,-0.00030221045,-6.484985e-05,-0.00010681152,-0.00032043457,0.00036621094
2019-07-01T20:18:52.030Z,0.010892482,-0.012255317,0.99385273,0.23760986,-0.21440125,9.801956,2.6687622,-16.419983,-38.21411,0.23864181,-0.21549864,9.801377,-0.0017911047,0.00090643764,-0.00018405914,-4.5776367e-05,-3.0517578e-05,0.00024414062
2019-07-01T20:18:52.234Z,0.010891283,-0.012235901,0.99385273,0.23832703,-0.21583557,9.801956,2.444458,-16.149902,-37.620544,0.2385773,-0.21512225,9.801387,-0.0005132705,0.0009821504,-0.001868248,-0.00016784668,-0.0001373291,0.00030517578
2019-07-01T20:18:52.439Z,0.01087575,-0.012260812,0.9938572,0.23568726,-0.21559143,9.801483,3.678894,-15.3289795,-38.7146,0.23831894,-0.2156512,9.801382,-0.0009859055,-0.0006278306,0.0011529922,-0.00010681152,-0.00019836426,0.00048828125
2019-07-01T20:18:52.632Z,0.010851548,-0.01226853,0.9938637,0.23951721,-0.21655273,9.799805,1.7456055,-15.612793,-37.40692,0.23785137,-0.21586727,9.801388,-0.0016922206,4.658103e-05,-0.0012979507,-4.5776367e-05,3.0517578e-05,0.00018310547
2019-07-01T20:18:52.836Z,0.010861177,-0.012268708,0.99386114,0.23760986,-0.21583557,9.804596,2.6779175,-16.278076,-37.88452,0.23804417,-0.21584482,9.801384,0.00074604154,0.0004912019,-0.0005502701,-4.5776367e-05,-0.00019836426,0.00030517578
2019-07-01T20:18:53.039Z,0.010880511,-0.012277851,0.99385625,0.23951721,-0.21487427,9.803162,3.2836914,-15.287781,-38.085938,0.23844966,-0.21597153,9.801373,9.854138e-05,-7.212162e-05,0.001074791,1.5258789e-05,-9.1552734e-05,0.00036621094
2019-07-01T20:18:53.247Z,0.01089276,-0.01225581,0.9938527,0.23713684,-0.21272278,9.800049,2.633667,-15.55481,-37.582397,0.23864838,-0.21550752,9.801376,-0.00010293722,0.00065647066,0.00024032593,-0.00010681152,-0.00019836426,0.00024414062
2019-07-01T20:18:53.439Z,0.010879207,-0.012229392,0.9938558,0.23640442,-0.21751404,9.801956,2.5131226,-16.28418,-38.407898,0.23832242,-0.21502754,9.801395,-0.0009875149,0.0016154051,0.00048351288,1.5258789e-05,3.0517578e-05,0.00012207031
2019-07-01T20:18:53.658Z,0.010856718,-0.012235666,0.9938618,0.23904419,-0.21247864,9.8029175,3.0212402,-15.740967,-38.31787,0.23788612,-0.21521078,9.801402,-0.0012488961,-0.0008434206,-0.0015916824,-4.5776367e-05,-0.00019836426,0.00024414062
2019-07-01T20:18:53.861Z,0.01088746,-0.012209221,0.99385333,0.23808289,-0.21655273,9.8022,3.2653809,-15.574646,-38.822937,0.23844522,-0.2146109,9.801402,0.00059485435,0.0016476661,-0.0005760193,0.0001373291,3.0517578e-05,0.00036621094
2019-07-01T20:18:54.059Z,0.010878123,-0.012252882,0.9938565,0.24143982,-0.21343994,9.803635,2.6474,-15.185547,-37.886047,0.23834978,-0.21548973,9.801384,-3.0502677e-05,-0.0020173043,0.00025367737,-0.00016784668,-3.0517578e-05,0.00030517578
2019-07-01T20:18:54.262Z,0.0109203765,-0.012225842,0.993845,0.23832703,-0.21702576,9.8022,2.8671265,-15.606689,-38.134766,0.23913763,-0.2148471,9.801379,0.0015479028,0.0019135326,0.002412796,1.5258789e-05,9.1552734e-05,0.00024414062
2019-07-01T20:18:54.465Z,0.010905476,-0.012251661,0.9938493,0.23880005,-0.21534729,9.800522,1.9561768,-16.177368,-38.212585,0.23889382,-0.21539211,9.801373,-0.0003580451,-0.0011287034,-0.00015258789,-0.00010681152,-0.00032043457,0.0004272461
2019-07-01T20:18:54.666Z,0.010920078,-0.012257393,0.9938456,0.23904419,-0.21224976,9.800049,3.2913208,-15.293884,-37.18109,0.23919758,-0.2154648,9.801364,-0.0001642555,0.00035618246,-0.0020046234,-4.5776367e-05,-0.0001373291,0.00036621094
2019-07-01T20:18:54.871Z,0.01095767,-0.01222433,0.9938352,0.23976135,-0.21368408,9.801727,1.9256592,-15.087891,-37.835693,0.23987968,-0.21471685,9.801365,0.00036425889,0.0017413795,-0.0016422272,-4.5776367e-05,-0.0001373291,0.00024414062
2019-07-01T20:18:55.070Z,0.01093152,-0.012201937,0.99384165,0.23713684,-0.21559143,9.801239,3.5964966,-15.559387,-37.776184,0.23931035,-0.21434964,9.801387,-0.0012273043,0.0009095669,0.0008201599,7.6293945e-05,9.1552734e-05,0.00030517578
2019-07-01T20:18:55.275Z,0.010903608,-0.012210533,0.9938491,0.23951721,-0.21679688,9.799561,1.4801025,-16.212463,-37.443542,0.23877062,-0.21459301,9.801394,-0.0009230226,-0.0007637739,0.00054359436,-0.00016784668,-0.0001373291,0.00018310547
2019-07-01T20:18:55.476Z,0.010919501,-0.012266708,0.9938459,0.23880005,-0.21391296,9.8022,2.1316528,-15.950012,-37.64496,0.23920554,-0.21564849,9.80136,0.00032548606,-0.0016338676,-0.0017061234,1.5258789e-05,-9.1552734e-05,0.00048828125
2019-07-01T20:18:55.678Z,0.010922031,-0.012228577,0.99384457,0.23617554,-0.2141571,9.804352,2.3620605,-16.000366,-38.56964,0.23917644,-0.21489614,9.801378,-0.00012537837,0.0024113357,0.0006303787,-0.00035095215,-0.0001373291,0.00030517578
2019-07-01T20:18:55.882Z,0.010882091,-0.012242058,0.99385524,0.23855591,-0.2163086,9.800278,3.5476685,-14.834595,-37.701416,0.2384065,-0.21526743,9.801389,-0.0022384077,-0.00031726062,0.0012226105,-4.5776367e-05,-9.1552734e-05,0.0004272461
2019-07-01T20:18:56.081Z,0.010875948,-0.012258022,0.99385715,0.24024963,-0.21296692,9.801956,2.960205,-15.156555,-38.80005,0.23831706,-0.21559611,9.801383,-0.00024957955,-0.00022552907,0.00065612793,-4.5776367e-05,-9.1552734e-05,0.00024414062
2019-07-01T20:18:56.284Z,0.01091976,-0.012226314,0.99384516,0.23664856,-0.21607971,9.8029175,2.5421143,-15.853882,-37.112427,0.23912631,-0.214858,9.801379,0.0008661598,0.001673907,-0.00018596649,-0.00010681152,-0.0001373291,0.00018310547
2019-07-01T20:18:56.493Z,0.010892275,-0.012258193,0.99385285,0.23808289,-0.21440125,9.8022,3.1188965,-15.52124,-37.3703,0.23864369,-0.21555546,9.801376,-0.0012950897,-0.0009818077,0.00034999847,-4.5776367e-05,3.0517578e-05,0.00024414062
2019-07-01T20:18:56.703Z,0.010872933,-0.012210717,0.99385715,0.2359314,-0.2163086,9.804352,2.3406982,-16.740417,-37.512207,0.23815808,-0.21467932,9.801408,-0.00081156194,0.001729697,0.00023174286,1.5258789e-05,3.0517578e-05,0.0002593994
2019-07-01T20:18:56.900Z,0.010835982,-0.01225601,0.9938675,0.24072266,-0.2163086,9.805786,1.6616821,-15.997314,-35.671997,0.23751418,-0.21566439,9.801401,-0.0006583631,-0.002289191,0.0014295578,0.00019836426,-0.0001373291,0.00024414062
2019-07-01T20:18:57.100Z,0.010904243,-0.012263016,0.9938498,0.24119568,-0.21655273,9.804596,2.6748657,-14.602661,-37.61902,0.23889293,-0.21561746,9.801369,0.0020188987,-0.0001822561,0.00016307831,-4.5776367e-05,-9.1552734e-05,0.00018310547
2019-07-01T20:18:57.304Z,0.010933984,-0.012292747,0.99384254,0.23976135,-0.2172699,9.8033905,3.6224365,-14.897156,-38.32245,0.23954938,-0.21611856,9.801342,0.0006199777,-0.0008485317,0.0020284653,0.0001373291,-0.0002593994,0.00024414062
2019-07-01T20:18:57.501Z,0.010955691,-0.012301459,0.993837,0.23617554,-0.21583557,9.802444,3.3432007,-15.872192,-37.374878,0.2400014,-0.21623027,9.801329,0.00040484965,-0.0012186617,0.0005455017,7.6293945e-05,-3.0517578e-05,0.00024414062
2019-07-01T20:18:57.704Z,0.010896006,-0.012273228,0.99385214,0.24047852,-0.21606445,9.803635,2.8945923,-15.17334,-37.14142,0.23874964,-0.21583937,9.801368,-0.0028721988,0.0010138899,-0.0013818741,-4.5776367e-05,-9.1552734e-05,0.00024414062
2019-07-01T20:18:57.903Z,0.010926506,-0.012287603,0.9938444,0.23976135,-0.21559143,9.802444,2.8030396,-15.32135,-37.77008,0.23938918,-0.21603815,9.801348,0.00055365264,-0.00021392107,0.0006837845,-0.00016784668,-0.0001373291,0.00019836426
2019-07-01T20:18:58.109Z,0.010937938,-0.012288232,0.9938414,0.23880005,-0.21606445,9.802673,3.3996582,-14.477539,-38.150024,0.23961894,-0.2160196,9.801342,0.00033582747,0.00071804225,-0.0009727478,-0.00016784668,-9.1552734e-05,6.1035156e-05
2019-07-01T20:18:58.315Z,0.010946803,-0.012282386,0.993839,0.24023438,-0.21343994,9.799576,2.4108887,-16.726685,-38.79547,0.23978387,-0.21588133,9.80134,-4.9442053e-05,0.0010313243,0.00047588348,7.6293945e-05,-0.00019836426,0.00030517578
2019-07-01T20:18:58.552Z,0.010957883,-0.012262832,0.9938358,0.23976135,-0.21606445,9.801712,3.3981323,-16.223145,-38.658142,0.23996443,-0.21546909,9.801346,-0.00020244718,0.00083839893,-0.0022325516,-0.00016784668,-0.0001373291,0.0001373291
2019-07-01T20:18:58.721Z,0.010962437,-0.012300545,0.9938352,0.23760986,-0.21846008,9.8033905,3.062439,-16.305542,-40.09552,0.2401343,-0.21619417,9.801326,-0.00062550604,0.0001372993,0.00075912476,-4.5776367e-05,-0.00019836426,0.0001373291
2019-07-01T20:18:58.930Z,0.0109209195,-0.012328044,0.99384654,0.23664856,-0.21679688,9.803162,3.8146973,-15.827942,-39.045715,0.239362,-0.21684393,9.80133,-0.0022513568,-0.0018365383,0.0014753342,1.5258789e-05,-9.1552734e-05,0.0004272461
2019-07-01T20:18:59.197Z,0.0108886305,-0.012297876,0.99385446,0.23857117,-0.2141571,9.800522,4.1503906,-15.361023,-39.94751,0.23865372,-0.21634118,9.801359,-0.0013021529,0.0009914786,-0.00092983246,1.5258789e-05,-0.00019836426,-4.5776367e-05
2019-07-01T20:18:59.402Z,0.0109114535,-0.012262414,0.9938479,0.23951721,-0.21702576,9.803162,2.4871826,-15.046692,-38.453674,0.23903577,-0.21558627,9.801367,-0.0004785061,0.0014417022,2.002716e-05,-0.00010681152,-0.00032043457,7.6293945e-05
2019-07-01T20:18:59.607Z,0.010920499,-0.012323306,0.99384654,0.2400055,-0.21751404,9.803635,3.0792236,-16.01715,-39.65912,0.2393437,-0.21675242,9.8013315,-0.00010100007,-0.002168417,0.0013027191,-0.00010681152,-0.00019836426,0.0004272461
2019-07-01T20:18:59.813Z,0.010946254,-0.012326283,0.99383986,0.23808289,-0.21679688,9.799805,3.3706665,-15.213013,-37.620544,0.23986468,-0.21674113,9.80132,0.00033052266,0.00022380054,0.0007133484,7.6293945e-05,-0.00019836426,0.00019836426
2019-07-01T20:18:59.938Z,0.010945228,-0.012321829,0.99384004,0.24023438,-0.21463013,9.807465,2.784729,-15.686035,-37.91809,0.23983486,-0.21665682,9.801323,-0.001296699,0.00013390183,-0.0004711151,-4.5776367e-05,-0.00032043457,0.0001373291
2019-07-01T20:19:00.137Z,0.010957306,-0.012316762,0.9938368,0.23832703,-0.21774292,9.801483,1.5319824,-15.122986,-36.77063,0.24006563,-0.2165251,9.801319,-0.00032357872,0.0007069409,-0.0010976791,-4.5776367e-05,-1.5258789e-05,-0.00030517578
2019-07-01T20:19:00.342Z,0.010934393,-0.012299604,0.99384254,0.23951721,-0.21487427,9.8033905,2.609253,-16.064453,-37.913513,0.23957187,-0.2162515,9.801338,-0.0010339618,0.00044594705,0.0011806488,1.5258789e-05,-0.0001373291,7.6293945e-05
2019-07-01T20:19:00.548Z,0.0109334765,-0.012301807,0.9938428,0.237854,-0.2172699,9.799805,3.2592773,-15.948486,-37.46338,0.23955816,-0.21629706,9.801337,-0.00032815337,4.1112304e-05,0.0020627975,7.6293945e-05,-3.0517578e-05,0.0001373291
2019-07-01T20:19:00.751Z,0.010908328,-0.012289812,0.99384916,0.24143982,-0.2141571,9.8029175,3.4103394,-16.081238,-38.024902,0.23903053,-0.21613039,9.801354,-0.0012102872,9.648502e-05,-0.0019731522,1.5258789e-05,-3.0517578e-05,0.0002593994
2019-07-01T20:19:00.953Z,0.010957324,-0.012282363,0.9938362,0.23880005,-0.2163086,9.8033905,3.9215088,-15.313721,-38.568115,0.23999411,-0.21585248,9.801337,0.001171723,0.00028789043,-0.00035572052,7.6293945e-05,-0.0001373291,1.5258789e-05
2019-07-01T20:19:01.148Z,0.010937626,-0.012286314,0.99384147,0.23832703,-0.21511841,9.801483,3.7017822,-15.045166,-37.524414,0.23960869,-0.21598291,9.801343,-0.00083339214,-0.00030338764,-0.00039958954,-0.00010681152,-0.0001373291,0.00019836426
2019-07-01T20:19:01.352Z,0.0109316325,-0.012253329,0.9938425,0.23640442,-0.2182312,9.803635,3.8955688,-16.049194,-37.81128,0.23942001,-0.21535417,9.801362,-0.001117751,0.0016923845,6.866455e-05,-4.5776367e-05,-0.00038146973,0.00024414062
2019-07-01T20:19:01.555Z,0.010897418,-0.012329312,0.9938527,0.23951721,-0.21607971,9.802444,3.515625,-15.414429,-38.42163,0.23889492,-0.21693212,9.801339,-0.0025119632,-0.0027139187,-0.0002641678,-0.000289917,-0.00019836426,0.00024414062
2019-07-01T20:19:01.755Z,0.010923675,-0.012292316,0.9938452,0.23760986,-0.21440125,9.801239,3.288269,-15.138245,-38.357544,0.23934245,-0.21613793,9.801346,0.00039216876,0.0024779886,0.00047588348,-0.00016784668,-3.0517578e-05,-0.00010681152
2019-07-01T20:19:01.961Z,0.010896031,-0.012298142,0.99385256,0.23976135,-0.21559143,9.8029175,1.9042969,-15.59906,-37.789917,0.23880213,-0.21632639,9.801354,-0.0014549345,0.00027869642,-0.0006313324,0.0001373291,-0.00019836426,-6.1035156e-05
2019-07-01T20:19:02.162Z,0.01092439,-0.012295975,0.9938451,0.23857117,-0.21487427,9.804825,2.5756836,-15.046692,-37.478638,0.23936439,-0.21620758,9.801345,0.0006120056,0.00015415251,0.0008544922,-0.00010681152,-3.0517578e-05,0.00024414062
2019-07-01T20:19:02.364Z,0.010896069,-0.012251352,0.9938518,0.23904419,-0.21487427,9.8022,3.0410767,-15.3793335,-37.565613,0.2387052,-0.21541144,9.801377,-0.0013824254,0.0015372336,0.0012111664,-4.5776367e-05,-9.1552734e-05,0.00036621094
2019-07-01T20:19:02.569Z,0.010946697,-0.012272105,0.99383885,0.23951721,-0.21798706,9.806274,1.991272,-15.524292,-37.399292,0.23976028,-0.2156806,9.801346,0.0013856739,-0.00011025369,0.000500679,-0.00010681152,-3.0517578e-05,7.6293945e-05
2019-07-01T20:19:02.772Z,0.010901977,-0.012282425,0.9938507,0.23641968,-0.21751404,9.8033905,2.2994995,-15.718079,-38.206482,0.2388882,-0.21600309,9.801361,-0.0013471395,-0.0007315576,0.0016021729,0.0001373291,-3.0517578e-05,0.00012207031
2019-07-01T20:19:03.005Z,0.010876452,-0.012303734,0.99385774,0.23880005,-0.21487427,9.801712,3.2196045,-15.080261,-37.208557,0.23842253,-0.21648854,9.801361,-0.000857532,-0.00121364,-0.0019664764,-0.00010681152,3.0517578e-05,0.0001373291
2019-07-01T20:19:03.177Z,0.010869725,-0.012290305,0.9938593,0.23640442,-0.21511841,9.8022,2.6779175,-16.123962,-38.75885,0.23826008,-0.2162441,9.801371,-0.00044633448,0.00044508278,-0.00035381317,1.5258789e-05,-3.0517578e-05,-4.5776367e-05
2019-07-01T20:19:03.380Z,0.01085576,-0.012259297,0.99386245,0.24119568,-0.21464539,9.803635,2.6779175,-16.278076,-37.88452,0.23791629,-0.2156754,9.801391,-0.0008162111,0.0015516281,-0.00023174286,-4.5776367e-05,-3.0517578e-05,-4.5776367e-05
2019-07-01T20:19:03.581Z,0.010931509,-0.0122628175,0.99384266,0.23976135,-0.21559143,9.801239,1.9378662,-14.794922,-38.005066,0.23943737,-0.21554004,9.801357,0.0026837438,0.00020976365,-0.00015163422,-4.5776367e-05,-0.0001373291,6.1035156e-05
2019-07-01T20:19:03.791Z,0.010921114,-0.012256506,0.9938453,0.23951721,-0.21536255,9.803879,2.7999878,-15.092468,-39.157104,0.23921646,-0.21544468,9.801365,-0.00093343854,0.00061005354,0.00071048737,1.5258789e-05,-0.0001373291,6.1035156e-05
2019-07-01T20:19:03.995Z,0.010939573,-0.012255755,0.99384046,0.23928833,-0.2163086,9.803635,1.5045166,-15.553284,-37.838745,0.23958376,-0.21538018,9.801357,0.00037562847,-0.00041393936,0.00014686584,7.6293945e-05,-9.1552734e-05,1.5258789e-05
2019-07-01T20:19:04.197Z,0.010954865,-0.012268835,0.99383664,0.24023438,-0.21606445,9.801239,2.5756836,-15.124512,-37.117004,0.23991668,-0.2155946,9.801344,0.0002875626,-0.0006868988,-0.0013360977,7.6293945e-05,-9.1552734e-05,7.6293945e-05
2019-07-01T20:19:04.402Z,0.010943197,-0.01228568,0.99384,0.23880005,-0.2163086,9.800049,2.9830933,-14.871216,-37.686157,0.23971874,-0.2159555,9.801342,0.0002617985,-0.00033061206,0.00031089783,-0.00010681152,3.0517578e-05,7.6293945e-05
2019-07-01T20:19:04.602Z,0.010915662,-0.012312035,0.9938476,0.23783875,-0.21655273,9.80101,3.8589478,-15.106201,-37.542725,0.23922351,-0.21654512,9.80134,-0.0011447519,-0.0011940598,-0.001704216,7.6293945e-05,3.0517578e-05,1.5258789e-05
2019-07-01T20:19:04.809Z,0.010898949,-0.012285541,0.99385154,0.23832703,-0.21583557,9.799088,2.1484375,-15.357971,-38.882446,0.23883416,-0.21607217,9.80136,-3.1858683e-05,0.00095172226,-0.0005016327,0.0,0.00019836426,0.00010681152
2019-07-01T20:19:05.070Z,0.010847027,-0.012283074,0.9938651,0.23736572,-0.21440125,9.801483,3.8238525,-15.837097,-37.84027,0.23779139,-0.21616383,9.801384,-0.0011245608,-0.00016136467,-0.0012989044,-0.00012207031,1.5258789e-05,-0.00012207031
2019-07-01T20:19:05.260Z,0.010871317,-0.012272589,0.9938586,0.23855591,-0.2163086,9.800995,3.4942627,-15.92865,-38.29956,0.2382549,-0.21589337,9.801377,0.00080643594,0.0010035634,9.441376e-05,0.0,-3.0517578e-05,-6.1035156e-05
2019-07-01T20:19:05.465Z,0.010859096,-0.012252165,0.99386144,0.2400055,-0.21463013,9.803162,2.4108887,-15.129089,-37.71515,0.23796806,-0.21552697,9.801393,-0.00062038004,0.00066904724,0.0029325485,0.0,7.6293945e-05,0.0
2019-07-01T20:19:05.667Z,0.010895854,-0.01225863,0.99385196,0.24047852,-0.21606445,9.801239,3.0548096,-16.906738,-37.876892,0.23871613,-0.21555434,9.801374,0.0020009875,-3.20673e-05,-0.001080513,-6.1035156e-05,0.0001373291,-0.00018310547
2019-07-01T20:19:05.872Z,0.01091755,-0.012295663,0.9938469,0.23904419,-0.21583557,9.801727,2.796936,-15.393066,-37.860107,0.23922706,-0.21621993,9.801348,0.0012656152,-0.0013069212,-0.0016794205,6.1035156e-05,1.5258789e-05,-7.6293945e-05
2019-07-01T20:19:06.071Z,0.010932476,-0.012258327,0.99384236,0.24072266,-0.21679688,9.800995,3.010559,-15.960693,-38.212585,0.23944733,-0.21544962,9.801359,0.0003246665,0.001527071,0.0003156662,-6.1035156e-05,7.6293945e-05,4.5776367e-05
2019-07-01T20:19:06.281Z,0.010923263,-0.012299334,0.99384546,0.2400055,-0.21463013,9.803146,2.1453857,-15.507507,-38.233948,0.23934887,-0.21627626,9.801343,0.0003966987,-0.0016965568,0.0021181107,0.00012207031,1.5258789e-05,-6.1035156e-05
2019-07-01T20:19:06.474Z,0.010927446,-0.012243411,0.99384344,0.23832703,-0.21296692,9.803162,3.855896,-15.104675,-37.84485,0.23931561,-0.21517153,9.801368,0.00019438565,0.0017380714,-0.0006685257,6.1035156e-05,1.5258789e-05,-0.00018310547
2019-07-01T20:19:06.682Z,0.01091622,-0.012211856,0.9938458,0.23664856,-0.21487427,9.800766,2.6474,-15.185547,-37.81128,0.23902535,-0.21458486,9.801388,-0.00046530366,0.0011548847,0.0003566742,-0.00012207031,0.0001373291,-0.00012207031
2019-07-01T20:19:06.883Z,0.010879475,-0.012206504,0.99385536,0.23976135,-0.21679688,9.800522,2.3208618,-15.129089,-38.54065,0.23827997,-0.21457928,9.801406,-0.001170218,0.0004465729,0.0013580322,0.0,1.5258789e-05,6.1035156e-05
2019-07-01T20:19:07.084Z,0.0108742,-0.012264269,0.9938577,0.23521423,-0.21391296,9.804352,4.0130615,-15.319824,-37.065125,0.23829517,-0.21572296,9.801381,0.0002721697,-0.0020164698,-0.0019636154,-0.00012207031,-3.0517578e-05,-0.00018310547
2019-07-01T20:19:07.288Z,0.010860821,-0.012218335,0.9938604,0.2400055,-0.21440125,9.803146,2.6565552,-15.119934,-37.042236,0.23793197,-0.21486089,9.80141,-0.0013014376,0.0016813725,0.0012388229,6.1035156e-05,7.6293945e-05,-6.1035156e-05
2019-07-01T20:19:07.488Z,0.010877027,-0.012224366,0.9938563,0.23808289,-0.21463013,9.80101,2.2323608,-15.354919,-38.432312,0.23826835,-0.21493512,9.801398,0.0012224168,-0.00015939772,0.00065898895,0.00012207031,-3.0517578e-05,0.00010681152
2019-07-01T20:19:07.695Z,0.010883605,-0.012183593,0.9938539,0.23857117,-0.2141571,9.803162,2.6565552,-15.12146,-37.042236,0.23831463,-0.21412016,9.8014145,-0.00025761127,0.0004593134,-3.4332275e-05,0.00018310547,-0.00015258789,0.0
2019-07-01T20:19:07.895Z,0.010893753,-0.012217356,0.9938518,0.23880005,-0.2163086,9.802673,1.7929077,-16.339111,-37.483215,0.23858795,-0.214753,9.801395,0.00042633712,-0.0012845248,0.0002937317,-6.1035156e-05,-3.0517578e-05,-7.6293945e-05
2019-07-01T20:19:08.100Z,0.010902387,-0.012224651,0.9938497,0.23857117,-0.21463013,9.799088,2.557373,-15.335083,-38.215637,0.23877567,-0.21487232,9.801387,-0.00022521615,1.66744e-05,-0.0007543564,0.0,0.0001373291,-7.6293945e-05
2019-07-01T20:19:08.301Z,0.010902073,-0.012229457,0.9938498,0.24215698,-0.21559143,9.799805,3.1829834,-15.653992,-38.75885,0.23877947,-0.21496716,9.801386,0.0007366091,-0.0001502186,-0.001627922,-6.1035156e-05,7.6293945e-05,-0.00012207031
2019-07-01T20:19:08.504Z,0.010925582,-0.012239469,0.99384385,0.23713684,-0.21702576,9.801956,3.2714844,-15.428162,-38.641357,0.23927014,-0.2150995,9.801371,0.0014641732,-2.9399991e-05,-0.0010881424,-6.1035156e-05,0.00019836426,0.00012207031
2019-07-01T20:19:08.705Z,0.010890082,-0.012263337,0.9938535,0.24023438,-0.21655273,9.800278,1.9943237,-15.525818,-37.174988,0.23861061,-0.21566193,9.801374,-0.0009976625,-0.00089360774,0.00070858,-6.1035156e-05,1.5258789e-05,0.00010681152
2019-07-01T20:19:08.906Z,0.010898371,-0.012288668,0.9938518,0.23736572,-0.21128845,9.799561,2.9296875,-15.812683,-39.00757,0.23882915,-0.21613489,9.801359,0.0009485632,-0.00067679584,-0.001127243,-0.00012207031,0.0002593994,-6.1035156e-05
2019-07-01T20:19:09.110Z,0.010880972,-0.012220127,0.9938552,0.23904419,-0.21679688,9.804596,2.9464722,-15.59906,-38.13629,0.23833834,-0.21484162,9.801399,7.1674585e-06,0.0028193593,-0.00011730194,6.1035156e-05,1.5258789e-05,0.0
2019-07-01T20:19:09.310Z,0.010888323,-0.012274295,0.99385417,0.23808289,-0.21464539,9.801239,4.324341,-15.362549,-38.293457,0.23859833,-0.21588092,9.80137,0.00020501018,-0.0016360879,0.0012102127,-0.00036621094,1.5258789e-05,-7.6293945e-05
2019-07-01T20:19:09.513Z,0.010870968,-0.01225455,0.9938584,0.23760986,-0.21607971,9.800049,3.5064697,-15.788269,-37.365723,0.2382103,-0.21554166,9.801388,-0.0003939271,-0.0019521415,0.0008544922,6.1035156e-05,1.5258789e-05,0.00022888184
2019-07-01T20:19:09.715Z,0.010838945,-0.012231677,0.9938664,0.23928833,-0.21391296,9.800766,2.6916504,-15.908813,-38.18817,0.23752266,-0.21518062,9.801412,-0.0008737296,0.0007790476,-0.0018358231,-6.1035156e-05,-3.0517578e-05,4.5776367e-05
2019-07-01T20:19:09.960Z,0.010879156,-0.012232777,0.9938559,0.23736572,-0.21487427,9.804108,2.482605,-15.194702,-38.03253,0.23832849,-0.21509387,9.801394,0.0014535636,0.00044505298,-0.0016994476,6.1035156e-05,3.0517578e-05,-6.1035156e-05
2019-07-01T20:19:10.165Z,0.010851777,-0.012236814,0.9938631,0.23880005,-0.21440125,9.800049,2.8427124,-15.963745,-39.26239,0.23778977,-0.21524651,9.801403,-0.001145348,-0.0005853176,0.0020608902,6.1035156e-05,1.5258789e-05,-0.00012207031
2019-07-01T20:19:10.370Z,0.010865194,-0.012182879,0.9938587,0.23521423,-0.2131958,9.800049,3.312683,-15.995789,-40.646362,0.2379453,-0.21415585,9.801424,0.00084388256,0.0016869903,0.00057315826,6.1035156e-05,0.0001373291,-6.1035156e-05
2019-07-01T20:19:10.533Z,0.010830073,-0.01219037,0.993868,0.23857117,-0.21679688,9.8033905,2.1835327,-14.704895,-37.92267,0.2372592,-0.21439686,9.801435,-0.0010891706,-0.0004724264,-0.00042438507,0.0,0.0001373291,0.00010681152
2019-07-01T20:19:10.733Z,0.0108366255,-0.012207319,0.99386656,0.23760986,-0.2131958,9.804123,2.6107788,-15.837097,-38.77411,0.23742548,-0.21471061,9.801424,0.00088746846,-0.00086808205,0.000667572,0.00018310547,7.6293945e-05,6.1035156e-05
2019-07-01T20:19:10.936Z,0.010844657,-0.012182309,0.99386406,0.24095154,-0.21655273,9.801956,3.5461426,-14.758301,-38.290405,0.23753378,-0.21419999,9.801433,0.00028565526,0.0007774681,0.00044345856,6.1035156e-05,1.5258789e-05,-1.5258789e-05
2019-07-01T20:19:11.141Z,0.010876518,-0.012213502,0.99385625,0.23545837,-0.21534729,9.801727,3.086853,-15.872192,-39.479065,0.23823549,-0.21472408,9.801404,0.001963377,-0.001796633,0.0012426376,-6.1035156e-05,0.0001373291,-6.1035156e-05
2019-07-01T20:19:11.339Z,0.010820264,-0.012224909,0.99387115,0.23736572,-0.21511841,9.8033905,2.720642,-15.25116,-38.206482,0.23713523,-0.21509856,9.801423,-0.001936987,-0.00023423135,-0.0015611649,0.00012207031,0.00019836426,0.0
2019-07-01T20:19:11.577Z,0.0108340215,-0.012234679,0.9938677,0.23640442,-0.21487427,9.805069,3.112793,-15.594482,-37.53662,0.23743051,-0.21525258,9.801412,0.0011194944,-0.00056383014,0.00038814545,-0.00012207031,-9.1552734e-05,0.0
2019-07-01T20:19:11.777Z,0.01079249,-0.012209069,0.9938781,0.23880005,-0.21176147,9.800766,3.5308838,-15.19928,-38.153076,0.2365472,-0.21486351,9.801442,-0.002086997,0.000984028,0.0013818741,-6.1035156e-05,-9.1552734e-05,-6.1035156e-05
2019-07-01T20:19:11.956Z,0.010859822,-0.012173405,0.99385995,0.23760986,-0.21464539,9.799561,2.090454,-15.458679,-35.429382,0.2378182,-0.21398507,9.801431,0.0023909062,0.0020021945,-0.0009889603,-6.1035156e-05,1.5258789e-05,-6.1035156e-05
2019-07-01T20:19:12.155Z,0.010860859,-0.0121936,0.99386,0.23857117,-0.21343994,9.800522,2.8152466,-15.029907,-37.55951,0.23788106,-0.21437712,9.80142,-4.23491e-05,-0.0002682507,-0.0020895004,-0.00012207031,-9.1552734e-05,0.0
2019-07-01T20:19:12.361Z,0.010881078,-0.012168092,0.9938543,0.23857117,-0.2131958,9.799088,2.8121948,-15.026855,-38.087463,0.23823181,-0.21382391,9.801424,0.00057169795,0.0013421774,-0.00027179718,-6.1035156e-05,7.6293945e-05,-6.1035156e-05
2019-07-01T20:19:12.563Z,0.010886699,-0.012203714,0.99385345,0.2400055,-0.21751404,9.8033905,2.2888184,-16.011047,-37.8891,0.2384185,-0.21450527,9.801405,0.00039845705,-0.0013455302,-0.0011482239,0.00018310547,1.5258789e-05,-0.00019836426
2019-07-01T20:19:12.764Z,0.010893471,-0.012199032,0.9938516,0.23617554,-0.21247864,9.8022,2.9083252,-16.325378,-38.885498,0.238544,-0.21439546,9.801403,0.00076441467,-0.00026796758,-0.00028514862,-6.1035156e-05,0.0001373291,0.0
2019-07-01T20:19:12.968Z,0.010861004,-0.012185125,0.9938598,0.24047852,-0.2163086,9.802444,2.0385742,-16.018677,-39.01367,0.23786627,-0.21421102,9.801424,-0.00074733794,7.003546e-05,0.00315094,0.00012207031,0.00019836426,-0.00012207031
2019-07-01T20:19:13.165Z,0.0108650355,-0.012208931,0.9938592,0.23832703,-0.21368408,9.799576,3.0288696,-15.52124,-38.34839,0.23799653,-0.21466565,9.801412,0.00078482926,-0.0011530668,2.002716e-05,6.1035156e-05,1.5258789e-05,0.00010681152
2019-07-01T20:19:13.370Z,0.010871971,-0.01219418,0.9938571,0.23832703,-0.21247864,9.801727,3.804016,-16.200256,-38.293457,0.23810431,-0.21435855,9.801415,0.00045983493,0.0006670505,-0.0022172928,-0.00018310547,7.6293945e-05,0.0
2019-07-01T20:19:13.575Z,0.010884898,-0.012172151,0.9938534,0.24023438,-0.21368408,9.803635,3.3447266,-15.797424,-37.586975,0.23831658,-0.213893,9.80142,0.0007327348,0.0016386509,0.00027370453,-0.00012207031,7.6293945e-05,4.5776367e-05
2019-07-01T20:19:13.779Z,0.010908753,-0.0121950805,0.9938475,0.2368927,-0.21536255,9.800049,2.140808,-15.655518,-38.11493,0.23884113,-0.21427701,9.8014,0.0013782084,-0.00033962727,0.0016183853,6.1035156e-05,0.0001373291,4.5776367e-05
2019-07-01T20:19:13.983Z,0.010857699,-0.0122105265,0.99386114,0.23713684,-0.21440125,9.8029175,4.396057,-15.499878,-38.55133,0.23785329,-0.21471661,9.8014145,-0.0019302517,-0.0008672774,-0.0005187988,-6.1035156e-05,-9.1552734e-05,-6.1035156e-05
2019-07-01T20:19:14.180Z,0.010869247,-0.012198842,0.9938579,0.23808289,-0.21487427,9.800522,2.9785156,-15.019226,-37.564087,0.23805963,-0.21445705,9.8014145,0.00027106702,0.00054079294,-0.0009860992,0.00018310547,-9.1552734e-05,-0.00012207031
2019-07-01T20:19:14.383Z,0.010866323,-0.012168333,0.99385816,0.24095154,-0.21559143,9.8022,2.960205,-15.382385,-37.939453,0.23793748,-0.21386838,9.80143,-0.0005811751,0.00043690205,0.0010995865,0.0,1.5258789e-05,0.0
2019-07-01T20:19:14.590Z,0.010905056,-0.012223101,0.9938489,0.24023438,-0.2182312,9.8033905,2.2369385,-15.434265,-37.316895,0.23882578,-0.21483482,9.801387,0.002104193,-0.0024156868,0.00088977814,0.00012207031,0.0002593994,0.00016784668
2019-07-01T20:19:14.796Z,0.010917679,-0.012282445,0.9938466,0.23880005,-0.21440125,9.800766,2.6153564,-15.994263,-37.3703,0.23920204,-0.21596114,9.801354,0.001502499,-0.0022537112,-0.00036907196,-6.1035156e-05,-3.0517578e-05,-0.00024414062
2019-07-01T20:19:14.994Z,0.010929061,-0.012249226,0.9938431,0.24047852,-0.2163086,9.800278,3.0441284,-15.229797,-38.215637,0.23936005,-0.21528089,9.801365,0.00015412271,0.0013706684,-0.00121212,0.00012207031,-3.0517578e-05,-6.1035156e-05
2019-07-01T20:19:15.190Z,0.010920117,-0.012265579,0.9938457,0.23904419,-0.21296692,9.8022,2.7175903,-15.322876,-38.371277,0.23921548,-0.21562475,9.80136,-0.00041657686,-0.00092695653,-0.00016784668,6.1035156e-05,0.0001373291,-0.00012207031
2019-07-01T20:19:15.396Z,0.010949327,-0.01220673,0.99383706,0.23880005,-0.2141571,9.805313,3.07312,-16.467285,-38.015747,0.23967618,-0.21439528,9.801377,0.0014925748,0.0019407272,0.0021181107,0.00018310547,7.6293945e-05,-7.6293945e-05
2019-07-01T20:19:15.600Z,0.010868976,-0.01221229,0.9938582,0.2368927,-0.2163086,9.800522,3.3538818,-15.501404,-38.206482,0.23808227,-0.21472071,9.801408,-8.389354e-06,-0.001106754,-0.0017290115,0.00012207031,0.0002593994,4.5776367e-05
2019-07-01T20:19:15.802Z,0.010826553,-0.012193202,0.99386895,0.2400055,-0.21511841,9.8022,2.720642,-15.327454,-37.843323,0.23719478,-0.2144617,9.801435,-0.0010175854,0.00030311942,-0.0008459091,-6.1035156e-05,0.0001373291,-7.6293945e-05
2019-07-01T20:19:16.003Z,0.010894251,-0.012245145,0.99385214,0.23951721,-0.21534729,9.800766,3.35083,-15.649414,-37.70752,0.23865591,-0.21529499,9.801381,0.0032388568,-0.0014855713,0.0015106201,-0.00012207031,7.6293945e-05,-7.6293945e-05
2019-07-01T20:19:16.206Z,0.010878257,-0.012227702,0.993856,0.23832703,-0.21511841,9.799805,2.9281616,-16.038513,-38.449097,0.2382999,-0.21499704,9.801396,-0.00021989644,0.0010866672,-0.0012216568,-6.1035156e-05,0.0001373291,-0.00018310547
2019-07-01T20:19:16.409Z,0.0108915735,-0.012256287,0.99385303,0.23880005,-0.21583557,9.8033905,3.7628174,-15.249634,-38.85193,0.23862569,-0.21552007,9.801377,0.00067318976,-0.0007980615,-0.0011386871,-6.1035156e-05,7.6293945e-05,0.0
2019-07-01T20:19:16.610Z,0.0108736,-0.0122594,0.99385774,0.24023438,-0.21534729,9.801956,3.0548096,-14.933777,-38.684082,0.23827301,-0.21562937,9.801383,6.403029e-05,-0.00021526217,3.8146973e-05,0.0,-9.1552734e-05,-0.00018310547
2019-07-01T20:19:16.806Z,0.010930087,-0.01223708,0.9938426,0.23857117,-0.21463013,9.800049,3.100586,-15.809631,-38.03253,0.23935516,-0.21504062,9.80137,0.001359582,0.00136365,0.0014677048,-6.1035156e-05,-3.0517578e-05,-0.00012207031
2019-07-01T20:19:17.031Z,0.01089428,-0.012257695,0.9938523,0.23976135,-0.2163086,9.805542,2.4673462,-15.635681,-37.74414,0.2386827,-0.2155403,9.801375,-0.0013171732,-0.00076812506,-0.0006170273,6.1035156e-05,-3.0517578e-05,0.0
2019-07-01T20:19:17.229Z,0.010937301,-0.01225151,0.993841,0.23857117,-0.21368408,9.8033905,3.2058716,-16.888428,-39.086914,0.23952946,-0.21530329,9.801359,0.001399383,0.00044940412,0.0018196106,-6.1035156e-05,1.5258789e-05,0.00012207031
2019-07-01T20:19:17.429Z,0.010897619,-0.012233714,0.99385107,0.23857117,-0.21583557,9.804108,2.796936,-15.545654,-37.135315,0.23869935,-0.21506241,9.801386,-0.0013627559,0.00045852363,0.000579834,6.1035156e-05,7.6293945e-05,0.0
2019-07-01T20:19:17.630Z,0.010903412,-0.012250432,0.9938498,0.23617554,-0.21511841,9.800766,2.368164,-15.853882,-38.615417,0.23885003,-0.21537367,9.801375,0.00039066374,-0.0006630868,0.0014944077,-0.00012207031,7.6293945e-05,-0.00024414062
2019-07-01T20:19:17.833Z,0.010854927,-0.012234075,0.9938622,0.237854,-0.21343994,9.804108,3.7704468,-15.257263,-37.947083,0.237847,-0.2151845,9.801403,-0.0012477636,0.0005990118,0.00019836426,-0.00018310547,9.1552734e-05,4.5776367e-05
2019-07-01T20:19:18.034Z,0.010854139,-0.012232516,0.9938624,0.23928833,-0.21463013,9.8033905,2.6504517,-15.037537,-38.23242,0.237828,-0.21515612,9.801404,-7.3462725e-06,0.0010291785,-0.0012960434,0.00012207031,7.6293945e-05,4.5776367e-05
2019-07-01T20:19:18.237Z,0.010844969,-0.012197746,0.99386424,0.24119568,-0.21534729,9.799561,2.4749756,-15.41748,-37.625122,0.23757224,-0.214501,9.801426,0.00024949014,0.00037303567,-8.392334e-05,6.1035156e-05,0.0001373291,-0.00018310547
2019-07-01T20:19:18.443Z,0.010920359,-0.012234152,0.9938451,0.24095154,-0.21655273,9.801239,3.2669067,-15.574646,-38.520813,0.23915465,-0.21500963,9.801375,0.0032020211,-0.0010285825,-0.00037193298,6.1035156e-05,7.6293945e-05,-0.00018310547
2019-07-01T20:19:18.645Z,0.010916338,-0.012251554,0.9938465,0.2368927,-0.21487427,9.801712,1.953125,-16.326904,-37.864685,0.23911066,-0.21536073,9.801369,0.00039175153,-0.0009345263,-0.0012102127,-6.1035156e-05,0.00019836426,-0.00012207031
2019-07-01T20:19:18.844Z,0.010900368,-0.012237034,0.9938504,0.24191284,-0.21917725,9.800995,2.8671265,-15.605164,-38.056946,0.23876123,-0.21511991,9.801383,-0.00019480288,0.000494048,-0.00081157684,-6.1035156e-05,9.1552734e-05,-0.00036621094
2019-07-01T20:19:19.045Z,0.01093195,-0.012310109,0.9938433,0.23857117,-0.21464539,9.801239,2.2354126,-15.509033,-37.18109,0.239545,-0.2164635,9.801334,0.0018936843,-0.0019955486,-0.0003862381,-0.00012207031,1.5258789e-05,0.00010681152
2019-07-01T20:19:19.256Z,0.010932476,-0.012279142,0.9938427,0.2400055,-0.21798706,9.802673,3.7719727,-15.335083,-37.057495,0.2394908,-0.2158566,9.801349,-0.0002079308,0.0012161136,0.00038433075,6.1035156e-05,-3.0517578e-05,4.5776367e-05
2019-07-01T20:19:19.455Z,0.010915262,-0.012325259,0.99384797,0.23857117,-0.21702576,9.800049,2.445984,-15.99884,-38.11798,0.2392431,-0.21680476,9.801333,-0.00020202994,-0.001652509,-0.00022220612,-0.00012207031,0.00019836426,4.5776367e-05
2019-07-01T20:19:19.659Z,0.01090301,-0.012323886,0.9938511,0.23857117,-0.2163086,9.80101,3.4362793,-15.419006,-38.420105,0.2389954,-0.21681097,9.80134,-0.00019268692,0.00025580823,-0.0004644394,-0.00012207031,-3.0517578e-05,0.000289917
2019-07-01T20:19:19.864Z,0.010911334,-0.01232071,0.9938489,0.23976135,-0.21536255,9.800995,3.0441284,-15.306091,-37.852478,0.23915513,-0.21672642,9.801338,0.00037054718,0.0006542802,-0.00046920776,-6.1035156e-05,0.0001373291,-6.1035156e-05
2019-07-01T20:19:20.091Z,0.010890403,-0.012306505,0.99385417,0.23880005,-0.2163086,9.802444,1.3076782,-16.215515,-38.645935,0.23870713,-0.21650511,9.801353,-0.0003733486,0.0006634146,0.00016307831,-0.00018310547,7.6293945e-05,0.00010681152
2019-07-01T20:19:20.266Z,0.010882587,-0.012301758,0.99385613,0.23736572,-0.21272278,9.799576,3.5003662,-15.782166,-38.27057,0.23854104,-0.21643336,9.801359,0.00025099516,0.0008492023,0.0012283325,0.00018310547,-3.0517578e-05,-6.1035156e-05
2019-07-01T20:19:20.465Z,0.010878303,-0.012222013,0.9938559,0.23832703,-0.21343994,9.804352,2.7908325,-15.539551,-37.8891,0.23828894,-0.2148857,9.801399,-0.0009150654,0.002155587,-0.0012598038,0.00012207031,1.5258789e-05,-0.00024414062
2019-07-01T20:19:20.673Z,0.010875778,-0.012200619,0.99385625,0.23880005,-0.21607971,9.8022,2.3895264,-15.493774,-37.86316,0.23819382,-0.21447419,9.801411,0.00012850761,0.00056545436,0.0010690689,6.1035156e-05,7.6293945e-05,0.00016784668
2019-07-01T20:19:20.877Z,0.010896098,-0.012230623,0.9938514,0.23904419,-0.2172699,9.801483,2.4505615,-15.849304,-38.61847,0.23866251,-0.21500607,9.801388,0.0008445829,-0.0012934208,0.00039672852,0.00018310547,-3.0517578e-05,0.00010681152
2019-07-01T20:19:21.076Z,0.010893604,-0.012260039,0.99385256,0.23832703,-0.21343994,9.803879,2.835083,-16.41388,-37.69226,0.23867409,-0.21558796,9.801374,0.00010442734,-0.0014183521,0.0009031296,-0.00012207031,0.0001373291,-6.1035156e-05
2019-07-01T20:19:21.283Z,0.010883877,-0.01224163,0.99385476,0.23832703,-0.21559143,9.802444,2.7572632,-16.345215,-37.675476,0.23844127,-0.21525422,9.801387,-0.0003887564,0.00065152347,0.0007543564,6.1035156e-05,7.6293945e-05,-0.00012207031
2019-07-01T20:19:21.481Z,0.010872412,-0.012212766,0.9938573,0.23736572,-0.21463013,9.801239,2.1102905,-14.79187,-36.727905,0.23815192,-0.21472079,9.801407,-8.971989e-05,0.0008264631,-0.00077438354,-6.1035156e-05,1.5258789e-05,-0.00030517578
2019-07-01T20:19:21.689Z,0.010860748,-0.012233613,0.9938607,0.23857117,-0.21607971,9.802444,3.0838013,-15.640259,-41.244507,0.23796235,-0.21515979,9.801401,0.00034807622,-0.0006607771,-0.00035762787,0.00012207031,9.1552734e-05,4.5776367e-05
2019-07-01T20:19:21.891Z,0.010865043,-0.012225178,0.9938594,0.23880005,-0.21272278,9.801483,3.804016,-15.893555,-40.116882,0.23803058,-0.21498328,9.801403,-0.00019788742,-0.00011587143,0.00039196014,0.0,-0.00015258789,4.5776367e-05
2019-07-01T20:19:22.176Z,0.010876486,-0.01221978,0.9938564,0.23857117,-0.21559143,9.801956,3.6819458,-15.255737,-38.99994,0.23824799,-0.21484695,9.801402,0.0005258173,-0.001437977,0.0009088516,0.00018310547,1.5258789e-05,-0.00018310547
2019-07-01T20:19:22.382Z,0.010884448,-0.012220781,0.9938543,0.23928833,-0.21463013,9.80101,3.6697388,-15.54718,-38.682556,0.23840913,-0.21484502,9.801396,0.0006068945,-0.0009651631,0.000118255615,0.0,7.6293945e-05,-0.00012207031
2019-07-01T20:19:22.586Z,0.010885758,-0.012230106,0.9938541,0.23904419,-0.2182312,9.801956,2.8533936,-15.821838,-38.630676,0.23845479,-0.21502382,9.801392,0.00010842085,-8.741021e-05,-0.0016698837,0.0,7.6293945e-05,0.0
2019-07-01T20:19:22.791Z,0.010894554,-0.012265118,0.9938524,0.23951721,-0.21463013,9.801239,2.2994995,-15.794373,-37.768555,0.23870368,-0.2156847,9.801372,0.0008011013,-0.0013298392,0.00031852722,-6.1035156e-05,-3.0517578e-05,4.5776367e-05
2019-07-01T20:19:22.950Z,0.010906592,-0.01226134,0.99384916,0.23880005,-0.2163086,9.802673,3.3218384,-16.156006,-38.63983,0.23893635,-0.21557836,9.801368,0.00010249019,0.00046478212,-0.00057697296,-6.1035156e-05,-9.1552734e-05,0.0
2019-07-01T20:19:23.155Z,0.010902153,-0.012263724,0.99385035,0.23760986,-0.21463013,9.804352,2.7633667,-14.453125,-37.213135,0.23885265,-0.21563695,9.80137,-7.8350306e-05,6.876886e-05,0.0016813278,-6.1035156e-05,7.6293945e-05,-0.00012207031
2019-07-01T20:19:23.361Z,0.010890459,-0.012260079,0.9938534,0.23832703,-0.21463013,9.803879,3.8375854,-15.393066,-38.505554,0.23861131,-0.21559721,9.801375,-0.000569582,0.00028708577,0.0012865067,6.1035156e-05,-3.0517578e-05,4.5776367e-05
2019-07-01T20:19:23.562Z,0.010894989,-0.012223577,0.9938516,0.24023438,-0.21391296,9.800766,2.633667,-15.402222,-38.30719,0.23862563,-0.2148713,9.801392,-9.211898e-05,0.0009922236,-0.0002641678,0.0,-3.0517578e-05,0.00016784668
2019-07-01T20:19:23.765Z,0.010906083,-0.012208637,0.99384844,0.23904419,-0.21440125,9.8033905,3.7750244,-15.109253,-37.99286,0.2388161,-0.21454927,9.801394,0.00066943467,0.0006647855,-0.0004940033,0.00012207031,0.00019836426,4.5776367e-05
2019-07-01T20:19:23.968Z,0.010900338,-0.012213428,0.99385,0.23976135,-0.2163086,9.803162,3.112793,-15.591431,-37.76245,0.23871133,-0.21465844,9.801394,0.0005529821,-0.00043836236,-0.0006532669,0.0,1.5258789e-05,4.5776367e-05
2019-07-01T20:19:24.167Z,0.010915639,-0.012247585,0.9938466,0.23953247,-0.21607971,9.801483,3.4210205,-16.0141,-37.106323,0.23908842,-0.21528502,9.801372,0.0006478131,-0.0012451112,4.386902e-05,6.1035156e-05,-3.0517578e-05,0.00010681152
2019-07-01T20:19:24.375Z,0.010928363,-0.0122465165,0.99384326,0.2400055,-0.21655273,9.801239,2.6229858,-15.69519,-38.064575,0.23934045,-0.21522981,9.801367,0.00016643107,-0.00010973215,3.0517578e-05,-0.00012207031,-3.0517578e-05,0.00016784668
2019-07-01T20:19:24.575Z,0.010925651,-0.0122523215,0.99384403,0.2400055,-0.21846008,9.802444,2.658081,-14.967346,-37.841797,0.23929837,-0.21535061,9.801365,0.00019870698,-0.00046683848,-0.00046157837,0.00018310547,0.00019836426,-0.00012207031
2019-07-01T20:19:24.782Z,0.010921291,-0.012320779,0.9938463,0.23713684,-0.21536255,9.807465,3.6056519,-15.263367,-38.39569,0.23935428,-0.21670093,9.801334,0.0006340295,-0.0024607629,-0.00030994415,-0.00018310547,0.0002593994,-7.6293945e-05
2019-07-01T20:19:24.980Z,0.01087164,-0.012300721,0.99385893,0.23880005,-0.21559143,9.80722,2.281189,-16.311646,-36.96747,0.23832008,-0.21644257,9.801364,-0.00076678395,0.0009025037,0.0032863617,-6.1035156e-05,0.00019836426,0.0
2019-07-01T20:19:25.182Z,0.010866698,-0.012275267,0.9938598,0.24047852,-0.21606445,9.80484,2.8289795,-16.40625,-38.597107,0.23816818,-0.2159582,9.801378,0.0002989024,0.0009203404,0.0026750565,0.00018310547,0.00019836426,0.00016784668
2019-07-01T20:19:25.385Z,0.010898129,-0.012276024,0.9938516,0.24095154,-0.2163086,9.803879,2.8762817,-15.463257,-37.72583,0.2387979,-0.21588829,9.801365,0.0020538867,-0.00057426095,0.00081539154,6.1035156e-05,7.6293945e-05,4.5776367e-05
2019-07-01T20:19:25.589Z,0.01092382,-0.012282327,0.993845,0.23880005,-0.21751404,9.802673,2.9418945,-15.8203125,-37.878418,0.2393245,-0.21594225,9.801352,0.0015472472,-0.00053846836,-0.0017023087,0.00018310547,0.0001373291,4.5776367e-05
2019-07-01T20:19:25.789Z,0.010893171,-0.012292316,0.9938532,0.23760986,-0.21798706,9.806259,3.1799316,-15.803528,-38.261414,0.23873283,-0.21622021,9.801359,-0.0007060319,-0.0007547438,-0.0019350052,0.0,7.6293945e-05,-0.00012207031
2019-07-01T20:19:25.995Z,0.010868638,-0.012325332,0.9938601,0.237854,-0.22062683,9.8022,3.1295776,-15.2282715,-37.68921,0.23831144,-0.21693188,9.801354,-0.0005288571,-0.0014631897,0.001250267,-6.1035156e-05,0.00019836426,-0.00012207031
2019-07-01T20:19:26.203Z,0.010836597,-0.012391056,0.9938696,0.23904419,-0.21679688,9.8029175,2.3834229,-15.792847,-37.094116,0.23780803,-0.21830319,9.801335,-0.00050501525,-0.0027391165,-0.0007581711,0.00012207031,7.6293945e-05,0.0
2019-07-01T20:19:26.403Z,0.010875542,-0.012353405,0.9938588,0.24024963,-0.21774292,9.804596,1.6586304,-15.687561,-37.87384,0.238508,-0.21746218,9.801337,0.0014388412,0.0012070835,-0.0003566742,0.0,1.5258789e-05,-0.00030517578
2019-07-01T20:19:26.609Z,0.0108929295,-0.01237165,0.9938545,0.23760986,-0.21774292,9.800995,2.4658203,-15.634155,-37.96997,0.23889358,-0.21777204,9.80132,0.001295805,-0.00016011298,8.678436e-05,0.0,7.6293945e-05,-7.6293945e-05
2019-07-01T20:19:26.811Z,0.010877316,-0.0123443,0.99385816,0.2416687,-0.21702576,9.804108,2.178955,-14.700317,-38.449097,0.23852445,-0.21727936,9.801341,-0.00048843026,0.0005251914,-0.0010671616,6.1035156e-05,0.0002593994,-7.6293945e-05
2019-07-01T20:19:27.009Z,0.0109110465,-0.012318269,0.9938489,0.24047852,-0.21511841,9.800049,2.7786255,-15.679932,-38.74817,0.23914428,-0.21667947,9.801339,0.0008004457,0.00089894235,4.863739e-05,0.0,1.5258789e-05,-7.6293945e-05
2019-07-01T20:19:27.211Z,0.010939168,-0.01229556,0.99384123,0.23832703,-0.21798706,9.804352,3.2455444,-16.012573,-38.760376,0.23965885,-0.21615955,9.801338,0.0010278225,0.001073584,-0.002043724,0.0,1.5258789e-05,-0.00024414062
2019-07-01T20:19:27.410Z,0.010895578,-0.012319371,0.99385303,0.23857117,-0.21559143,9.798126,1.3076782,-16.293335,-38.13324,0.23883742,-0.21674271,9.801345,-0.0012758523,-0.0012005419,0.0010251999,6.1035156e-05,0.0001373291,4.5776367e-05
2019-07-01T20:19:27.622Z,0.010905951,-0.012289596,0.9938498,0.23976135,-0.21343994,9.803162,3.086853,-16.175842,-37.956238,0.23898256,-0.21613255,9.801354,0.0002862662,0.0010317713,-0.0023498535,-0.00012207031,0.0001373291,-0.00024414062
2019-07-01T20:19:27.816Z,0.01090932,-0.012255199,0.9938484,0.23857117,-0.21559143,9.802673,2.4780273,-15.342712,-38.06305,0.23897806,-0.21545094,9.801371,0.00075405836,0.0017932206,0.0008211136,-0.00012207031,0.00019836426,-0.00012207031
2019-07-01T20:19:28.021Z,0.010877281,-0.012261261,0.99385685,0.2416687,-0.21678162,9.806259,2.0980835,-14.930725,-37.661743,0.23835044,-0.21565582,9.80138,-0.00075672567,7.900596e-05,-0.0010499954,6.1035156e-05,0.00019836426,0.0
2019-07-01T20:19:28.224Z,0.010922172,-0.0122691,0.9938452,0.23928833,-0.21583557,9.801712,2.3254395,-15.133667,-38.01422,0.23926392,-0.21568806,9.801358,0.002613157,-0.00058829784,0.0015287399,0.0,1.5258789e-05,-0.00036621094
2019-07-01T20:19:28.425Z,0.010927295,-0.012275822,0.993844,0.23976135,-0.21534729,9.802444,3.5125732,-15.640259,-37.635803,0.23938034,-0.21580568,9.8013525,0.00010408461,-3.427267e-07,-0.00024986267,-0.00012207031,0.0001373291,0.00010681152
2019-07-01T20:19:28.667Z,0.01091703,-0.012265552,0.99384654,0.24047852,-0.21391296,9.804108,2.6062012,-15.985107,-38.65204,0.23915374,-0.21563256,9.801362,0.00032120943,0.00055225194,0.00078487396,-0.00012207031,0.0002593994,-0.00030517578
2019-07-01T20:19:28.832Z,0.010930624,-0.012257653,0.99384284,0.23736572,-0.21368408,9.80722,2.293396,-15.864563,-37.934875,0.2394089,-0.21544144,9.80136,0.0015016347,0.0008482188,-0.00012207031,6.1035156e-05,-3.0517578e-05,0.0
2019-07-01T20:19:29.038Z,0.01090272,-0.012209156,0.99384934,0.237854,-0.2141571,9.801239,3.3538818,-15.501404,-38.05542,0.23874995,-0.21456847,9.801394,-0.0012122691,0.0014375448,0.0026330948,6.1035156e-05,7.6293945e-05,-0.00032043457
2019-07-01T20:19:29.236Z,0.010873263,-0.012213605,0.9938571,0.23880005,-0.21464539,9.800293,2.4642944,-15.708923,-37.683105,0.23817068,-0.21473488,9.801406,-0.0013340861,-0.00033293664,-0.0012845993,6.1035156e-05,0.0001373291,-0.00024414062
2019-07-01T20:19:29.442Z,0.010872519,-0.012207921,0.9938572,0.23880005,-0.21702576,9.804108,2.230835,-15.4296875,-38.146973,0.23814395,-0.21462575,9.801409,0.0008698553,7.748604e-06,-0.0021371841,-0.00018310547,0.0001373291,-0.00024414062
2019-07-01T20:19:29.647Z,0.010882505,-0.012245506,0.9938552,0.24095154,-0.21343994,9.805069,2.935791,-15.818787,-38.25531,0.23842196,-0.2153337,9.801386,0.00083722174,-0.0007196814,-0.00014019012,0.0,0.0001373291,4.5776367e-05
2019-07-01T20:19:29.848Z,0.010907934,-0.012231359,0.9938483,0.237854,-0.21583557,9.800049,3.2073975,-15.296936,-37.6297,0.23890054,-0.21498854,9.801382,0.0015245378,0.0006353855,0.00196743,-6.1035156e-05,0.0001373291,-0.00018310547
2019-07-01T20:19:30.054Z,0.010880991,-0.012237734,0.9938555,0.23976135,-0.21559143,9.804596,2.1133423,-16.390991,-37.431335,0.23837546,-0.21518582,9.80139,-0.00079979,-0.00013060868,-0.0015573502,0.0,-0.00015258789,-6.1035156e-05
2019-07-01T20:19:30.258Z,0.010935112,-0.0122554405,0.9938416,0.24287415,-0.21751404,9.805069,2.546692,-15.629578,-37.898254,0.23949395,-0.21538606,9.801359,0.0014196932,-0.00017128885,0.00025177002,-6.1035156e-05,-9.1552734e-05,-7.6293945e-05
2019-07-01T20:19:30.455Z,0.010957412,-0.012288764,0.99383634,0.23880005,-0.2141571,9.803879,2.0645142,-15.737915,-37.295532,0.24000925,-0.2159774,9.801333,0.0013663918,-0.0014788806,0.002076149,0.0,0.00019836426,-0.0001373291
2019-07-01T20:19:30.660Z,0.010934467,-0.012265817,0.99384195,0.23976135,-0.21942139,9.801239,2.87323,-15.383911,-38.46588,0.23950276,-0.21559069,9.801354,-0.00027354062,0.0007696301,-0.0003824234,6.1035156e-05,0.0002593994,-0.00012207031
2019-07-01T20:19:30.862Z,0.0109192375,-0.012300767,0.99384654,0.23928833,-0.21559143,9.800049,4.0115356,-15.242004,-37.878418,0.23927142,-0.21631515,9.801344,0.00046274066,-0.0014031678,-0.0026540756,-0.00018310547,0.0001373291,-6.1035156e-05
2019-07-01T20:19:31.069Z,0.010920006,-0.012324851,0.9938467,0.23713684,-0.21678162,9.8033905,2.7008057,-15.765381,-37.931824,0.2393371,-0.216784,9.801332,0.00040474534,-0.00022408366,-0.00064754486,0.0,7.6293945e-05,-0.00012207031
2019-07-01T20:19:31.265Z,0.010865679,-0.0123200845,0.99386084,0.23928833,-0.21607971,9.800293,3.413391,-15.931702,-38.44757,0.23824136,-0.21683726,9.801358,-0.0021045804,-0.00015321374,0.0016431808,0.00018310547,7.6293945e-05,0.0
2019-07-01T20:19:31.471Z,0.010893967,-0.012286936,0.9938529,0.23904419,-0.21751404,9.803635,2.7877808,-15.536499,-38.34076,0.23873752,-0.21611288,9.801362,0.0014794618,0.0007813275,-0.0017824173,6.1035156e-05,9.1552734e-05,-0.00018310547
2019-07-01T20:19:31.675Z,0.010880056,-0.012312842,0.99385697,0.23832703,-0.21655273,9.801956,2.381897,-15.715027,-37.68158,0.23851356,-0.21665688,9.801354,4.8473477e-05,-0.0017948896,-0.0007200241,6.1035156e-05,0.0001373291,-0.00012207031
2019-07-01T20:19:31.875Z,0.010889345,-0.012294815,0.9938542,0.24023438,-0.21440125,9.804596,2.796936,-15.545654,-37.05902,0.2386616,-0.2162794,9.80136,0.0003619641,0.0009507835,0.00095558167,6.1035156e-05,1.5258789e-05,0.0
2019-07-01T20:19:32.079Z,0.010911023,-0.0122805685,0.9938483,0.23951721,-0.21534729,9.801483,3.2592773,-15.72113,-38.85193,0.23906507,-0.21594238,9.801357,0.0013732016,0.0006314516,0.0015888214,-0.00012207031,7.6293945e-05,-0.00018310547
2019-07-01T20:19:32.281Z,0.010912651,-0.012254235,0.9938475,0.23880005,-0.21607971,9.8029175,3.352356,-15.652466,-37.556458,0.2390426,-0.21542309,9.801369,0.0002181828,0.0012908429,-0.0010166168,-6.1035156e-05,0.00019836426,0.0
2019-07-01T20:19:32.481Z,0.010883978,-0.012277094,0.99385536,0.24095154,-0.21751404,9.803635,1.7440796,-15.611267,-37.78534,0.23851731,-0.21594734,9.80137,-0.0006942004,-0.0008215755,0.00027751923,6.1035156e-05,0.0001373291,-0.00030517578
2019-07-01T20:19:32.686Z,0.010919137,-0.012283067,0.99384624,0.24047852,-0.21583557,9.801239,2.9449463,-15.90271,-36.68518,0.23923244,-0.21596935,9.8013525,0.0024022907,-0.0005527139,0.00017356873,-6.1035156e-05,-3.0517578e-05,-6.1035156e-05
2019-07-01T20:19:32.939Z,0.010936646,-0.012290714,0.99384177,0.23832703,-0.21702576,9.800766,2.8549194,-15.975952,-37.527466,0.2395983,-0.2160716,9.801341,0.0006043464,0.00026464462,-0.00019550323,-6.1035156e-05,0.00019836426,-0.00018310547
2019-07-01T20:19:33.145Z,0.010896305,-0.012318028,0.9938528,0.23783875,-0.21511841,9.801483,3.6468506,-15.907288,-39.73694,0.23884915,-0.21671452,9.801346,-0.0007788092,-0.0007881522,-0.0015668869,-0.00012207031,0.00019836426,-7.6293945e-05
2019-07-01T20:19:33.349Z,0.01086102,-0.012303827,0.9938618,0.23976135,-0.2141571,9.803162,3.8482666,-15.022278,-39.26239,0.2381143,-0.21653192,9.801367,-0.0005095154,-0.0002450943,0.00013637543,0.0,7.6293945e-05,-6.1035156e-05
2019-07-01T20:19:33.508Z,0.010898591,-0.012263419,0.9938513,0.23880005,-0.21511841,9.802444,2.545166,-15.704346,-37.686157,0.23878081,-0.21564059,9.801371,0.0014298558,0.0017490387,0.001534462,6.1035156e-05,1.5258789e-05,-0.00012207031
2019-07-01T20:19:33.709Z,0.010906682,-0.012263565,0.99384916,0.23713684,-0.21487427,9.803635,3.390503,-16.366577,-38.838196,0.23894282,-0.21562165,9.801368,0.0008073598,-0.00043271482,-0.0010595322,6.1035156e-05,1.5258789e-05,-0.00012207031
2019-07-01T20:19:33.910Z,0.010851077,-0.012217129,0.9938629,0.23736572,-0.21440125,9.801727,3.1784058,-15.65094,-39.28528,0.23773472,-0.21486352,9.801414,-0.002312541,0.0017004162,0.002163887,0.00024414062,0.0001373291,-0.00024414062
2019-07-01T20:19:34.282Z,0.010846084,-0.0122000575,0.993864,0.23951721,-0.21487427,9.802673,3.0838013,-15.945435,-39.419556,0.23759934,-0.2145432,9.801424,-1.7985702e-05,-0.0005494803,-0.00064373016,0.00012207031,0.0001373291,-0.00018310547
2019-07-01T20:19:34.353Z,0.010872866,-0.012204694,0.993857,0.23568726,-0.21511841,9.8029175,3.4988403,-15.78064,-38.420105,0.23814416,-0.21456172,9.801411,0.0015913844,-0.00028930604,-0.00027179718,-6.1035156e-05,-3.0517578e-05,-0.00012207031
2019-07-01T20:19:34.558Z,0.010817089,-0.012214536,0.9938718,0.23880005,-0.21583557,9.802673,3.022766,-15.742493,-38.168335,0.23705018,-0.2149043,9.80143,-0.0025683343,-0.0006733537,-0.00081920624,0.00012207031,7.6293945e-05,-0.00044250488
2019-07-01T20:19:34.762Z,0.010856208,-0.012221904,0.9938617,0.23664856,-0.2131958,9.803635,2.859497,-15.90271,-37.43744,0.23784722,-0.21494307,9.801409,0.002123788,-0.00038832426,0.0015230179,0.00012207031,1.5258789e-05,-0.00024414062
2019-07-01T20:19:34.964Z,0.010833606,-0.0121644735,0.9938666,0.23904419,-0.21534729,9.8029175,3.6071777,-15.113831,-38.74359,0.23727576,-0.21388102,9.801446,-0.0008826554,0.001655221,-0.0005874634,-6.1035156e-05,1.5258789e-05,0.0
2019-07-01T20:19:35.184Z,0.010871161,-0.012210147,0.99385756,0.23736572,-0.21583557,9.800766,2.1453857,-15.505981,-38.38501,0.23812145,-0.21467292,9.801408,0.0015996993,-0.0013705343,0.001045227,0.0,7.6293945e-05,4.5776367e-05
2019-07-01T20:19:35.370Z,0.010830262,-0.012240352,0.99386877,0.23928833,-0.21559143,9.801712,3.616333,-15.2771,-36.662292,0.23736718,-0.21537359,9.80141,-0.0012247115,-0.0011491477,-0.0005750656,-6.1035156e-05,1.5258789e-05,0.00010681152
2019-07-01T20:19:35.568Z,0.010874682,-0.012225707,0.9938569,0.23976135,-0.21463013,9.801956,3.2928467,-15.296936,-36.802673,0.2382243,-0.21496767,9.801399,0.0019869655,0.00035840273,-0.00086688995,0.00018310547,1.5258789e-05,-0.00036621094
2019-07-01T20:19:35.774Z,0.010895057,-0.012234927,0.9938518,0.23857117,-0.21583557,9.798843,3.288269,-15.216064,-37.919617,0.23865071,-0.21509305,9.801387,0.0008558184,-0.0007328838,-0.0010595322,6.1035156e-05,0.0001373291,-0.00018310547
2019-07-01T20:19:35.978Z,0.010881613,-0.012233907,0.99385524,0.237854,-0.21534729,9.800766,2.0706177,-15.440369,-38.142395,0.23837993,-0.21510935,9.801393,-0.0002912432,-1.4290214e-05,-0.0013494492,0.0,-3.0517578e-05,-6.1035156e-05
2019-07-01T20:19:36.178Z,0.010867624,-0.012236099,0.99385893,0.23857117,-0.21846008,9.804825,2.697754,-16.067505,-36.558533,0.23810495,-0.21518987,9.801397,-0.0004898906,-0.00016210973,5.6266785e-05,0.00012207031,7.6293945e-05,-0.00018310547
2019-07-01T20:19:36.381Z,0.010876786,-0.012283743,0.9938573,0.24238586,-0.2141571,9.805069,2.9006958,-15.029907,-36.958313,0.23838748,-0.21609674,9.80137,0.00088341534,-0.0023475438,0.001791954,6.1035156e-05,1.5258789e-05,-6.1035156e-05
2019-07-01T20:19:36.607Z,0.010917514,-0.012279148,0.9938466,0.23664856,-0.21679688,9.803879,2.581787,-15.130615,-36.061096,0.23919182,-0.21589711,9.801355,0.0017156154,0.00034549832,0.0021505356,-6.1035156e-05,0.0001373291,-0.00018310547
2019-07-01T20:19:36.790Z,0.010897816,-0.0122340685,0.993851,0.23951721,-0.2141571,9.798843,2.2903442,-16.241455,-36.50055,0.23870403,-0.2150688,9.801385,-0.0008855015,0.0016608387,-0.0006427765,-0.00018310547,1.5258789e-05,0.0
2019-07-01T20:19:36.991Z,0.010898207,-0.012284132,0.9938517,0.2368927,-0.21655273,9.800049,2.6901245,-15.983582,-37.976074,0.2388164,-0.21604662,9.801361,0.0006913841,-0.0012147576,-0.0021877289,0.0,0.00015258789,-0.00024414062
2019-07-01T20:19:37.245Z,0.010876316,-0.012249272,0.9938569,0.24191284,-0.21536255,9.803162,2.7145386,-15.397644,-38.008118,0.23830613,-0.21542403,9.801387,-0.0006952286,0.0010218322,-0.00082206726,6.1035156e-05,0.00015258789,-6.1035156e-05
2019-07-01T20:19:37.398Z,0.010917138,-0.012261171,0.9938464,0.23664856,-0.21655273,9.800522,1.9882202,-15.52124,-37.927246,0.23914675,-0.21554661,9.801364,0.0022806078,-0.00052185357,0.001042366,0.00018310547,0.0002593994,-0.00024414062
2019-07-01T20:19:37.599Z,0.010851302,-0.012297938,0.99386424,0.24215698,-0.21798706,9.803879,3.0471802,-15.081787,-38.41095,0.23790781,-0.21644293,9.801374,-0.0015068352,-0.0022581667,-0.0007505417,0.0,3.0517578e-05,4.5776367e-05
2019-07-01T20:19:37.805Z,0.010928422,-0.012293938,0.993844,0.23545837,-0.21440125,9.799088,2.1072388,-16.31012,-38.624573,0.23944072,-0.21615684,9.801344,0.0031832904,0.00032670796,0.00013828278,0.00018310547,1.5258789e-05,-0.00024414062
2019-07-01T20:19:38.004Z,0.010856932,-0.012250187,0.993862,0.23951721,-0.21511841,9.800278,2.5512695,-15.483093,-37.867737,0.2379207,-0.21549414,9.801395,-0.0031795949,0.0006199926,-0.0003900528,6.1035156e-05,-3.0517578e-05,-0.0001373291
2019-07-01T20:19:38.203Z,0.01090551,-0.012258821,0.9938494,0.23928833,-0.21606445,9.804108,3.2730103,-15.582275,-37.76703,0.23890947,-0.21553202,9.80137,-0.0015497357,-5.4001808e-05,-0.0025281906,-6.1035156e-05,0.0002593994,-0.00032043457
2019-07-01T20:19:38.403Z,0.010946554,-0.012283648,0.9938391,0.24047852,-0.21583557,9.801727,2.886963,-15.167236,-38.046265,0.23978154,-0.21590668,9.80134,0.0018443912,-0.00085167587,0.0029420853,-0.00012207031,-9.1552734e-05,-0.00044250488
2019-07-01T20:19:38.609Z,0.010917167,-0.012253347,0.9938463,0.23832703,-0.21343994,9.804596,3.036499,-15.527344,-37.443542,0.23913099,-0.21539356,9.801368,-0.0010731965,0.0012590438,-0.0013856888,0.00012207031,0.0001373291,-0.00024414062
2019-07-01T20:19:38.821Z,0.010931295,-0.012240828,0.99384236,0.23783875,-0.21607971,9.802673,2.7877808,-15.689087,-37.542725,0.23938714,-0.21511064,9.801368,0.0005772561,0.0002733022,0.0013017654,6.1035156e-05,1.5258789e-05,-0.00036621094
2019-07-01T20:19:39.018Z,0.010880223,-0.012245318,0.9938558,0.23951721,-0.21534729,9.801239,3.6819458,-15.483093,-37.61139,0.23837596,-0.21533619,9.801388,-0.0015208274,-0.00093849003,-0.00025844574,6.1035156e-05,7.6293945e-05,-0.00019836426
2019-07-01T20:19:39.224Z,0.010917223,-0.012217546,0.99384564,0.23904419,-0.21607971,9.8033905,2.0202637,-14.868164,-37.268066,0.2390573,-0.2146934,9.801385,0.0013893843,0.0010379106,-0.0004892349,6.1035156e-05,-3.0517578e-05,-0.00024414062
2019-07-01T20:19:39.426Z,0.01089936,-0.0122624505,0.99385107,0.2400055,-0.21607971,9.801956,1.3412476,-15.640259,-37.39624,0.23879418,-0.2156196,9.801372,-0.0004953295,-0.001869008,-0.0003271103,-6.1035156e-05,0.00019836426,-0.00024414062
2019-07-01T20:19:39.629Z,0.010921474,-0.012236057,0.99384487,0.23832703,-0.2163086,9.803635,3.0960083,-15.805054,-38.560486,0.23918092,-0.21504387,9.801374,0.0012739748,0.0011368841,-0.00038528442,6.1035156e-05,1.5258789e-05,-0.00018310547
2019-07-01T20:19:39.831Z,0.010904943,-0.01227863,0.9938499,0.23951721,-0.21343994,9.800766,2.1377563,-15.805054,-37.765503,0.23893952,-0.2159209,9.801361,-0.00041803718,-0.001790911,0.0008611679,6.1035156e-05,-3.0517578e-05,-0.00030517578
2019-07-01T20:19:40.027Z,0.010917382,-0.012237389,0.99384594,0.23832703,-0.21606445,9.801956,3.768921,-15.255737,-38.09967,0.23910193,-0.21508093,9.801374,-8.331239e-05,0.0014198571,-0.00069618225,0.00018310547,7.6293945e-05,-0.00030517578
2019-07-01T20:19:40.229Z,0.01090011,-0.012235361,0.9938504,0.23976135,-0.21583557,9.801239,2.7114868,-15.620422,-37.374878,0.23875256,-0.21508788,9.801383,-0.0002013892,-0.0012027025,-0.00047683716,6.1035156e-05,1.5258789e-05,-0.00030517578
2019-07-01T20:19:40.430Z,0.01091516,-0.012245213,0.99384665,0.24119568,-0.21534729,9.8029175,3.8726807,-14.741516,-37.771606,0.23907386,-0.21523991,9.801372,0.0009113103,-0.00033321977,-4.7683716e-06,0.00012207031,0.0001373291,-7.6293945e-05
2019-07-01T20:19:40.634Z,0.010929745,-0.012245346,0.99384284,0.23855591,-0.21774292,9.80101,1.7486572,-15.539551,-37.469482,0.2393656,-0.21520317,9.801366,0.0011020154,-0.00013433397,-0.0008020401,0.0,0.0001373291,-0.00012207031
2019-07-01T20:19:40.836Z,0.010905707,-0.012269161,0.9938495,0.23951721,-0.21272278,9.8022,3.5308838,-15.2771,-37.33673,0.23893501,-0.21573366,9.801365,-0.0006085336,-0.0015357435,-0.0008659363,6.1035156e-05,1.5258789e-05,-0.00018310547
2019-07-01T20:19:41.044Z,0.010932703,-0.0122042345,0.9938414,0.2416687,-0.2131958,9.803146,2.62146,-15.69519,-38.365173,0.23933879,-0.21439135,9.801385,0.0011232644,0.0026446283,0.001332283,6.1035156e-05,0.00019836426,-6.1035156e-05
2019-07-01T20:19:41.246Z,0.010954471,-0.012202536,0.9938357,0.237854,-0.21511841,9.801727,3.768921,-15.330505,-37.58545,0.23977017,-0.21429935,9.801376,0.0013998151,-7.893145e-05,0.0007200241,6.1035156e-05,0.0001373291,-7.6293945e-05
2019-07-01T20:19:41.445Z,0.010892065,-0.012211029,0.99385214,0.23713684,-0.2141571,9.801239,3.1433105,-14.784241,-38.279724,0.238541,-0.21463385,9.801399,-0.0016832948,-0.00092609227,0.0007982254,0.00024414062,0.00019836426,-0.00018310547
2019-07-01T20:19:41.649Z,0.010867168,-0.012182989,0.99385816,0.23425293,-0.21798706,9.800995,2.1530151,-15.362549,-38.204956,0.23798497,-0.21415266,9.801422,-0.00039479136,0.00025741756,-0.0012388229,-0.00012207031,0.00032043457,-0.00030517578
2019-07-01T20:19:41.855Z,0.010783842,-0.012237566,0.9938808,0.2368927,-0.21440125,9.801239,3.3050537,-14.775085,-38.13324,0.23643379,-0.21544394,9.801433,-0.0021731406,-0.002550155,-0.0022687912,0.00018310547,0.0001373291,-6.1035156e-05
2019-07-01T20:19:42.055Z,0.010787088,-0.012190673,0.9938792,0.23545837,-0.21487427,9.804108,2.7496338,-14.820862,-37.0636,0.23640095,-0.21451834,9.801454,0.0007236451,0.0015625358,0.0016736984,0.00024414062,0.0002593994,-0.00044250488
2019-07-01T20:19:42.257Z,0.010761174,-0.012204838,0.99388623,0.23951721,-0.21870422,9.801239,3.8986206,-15.82489,-38.671875,0.2359126,-0.21486486,9.801456,-0.00024171174,-0.0019171089,0.0003080368,0.00018310547,7.6293945e-05,-0.00036621094
2019-07-01T20:19:42.465Z,0.010820957,-0.012250454,0.9938714,0.23928833,-0.21321106,9.799088,3.9276123,-15.318298,-37.815857,0.23720235,-0.21559618,9.801411,0.0025659204,-0.0021530092,-0.002038002,0.00018310547,1.5258789e-05,-0.00018310547
2019-07-01T20:19:42.665Z,0.010844064,-0.012200305,0.9938645,0.24095154,-0.21655273,9.80101,2.0980835,-14.932251,-37.51068,0.2375595,-0.21455348,9.801425,0.001240924,0.0015862137,0.0005464554,0.0,7.6293945e-05,-0.00012207031
2019-07-01T20:19:42.871Z,0.01091157,-0.012267769,0.99384797,0.23951721,-0.21392822,9.803162,2.1652222,-15.145874,-37.783813,0.23904926,-0.21569064,9.801363,0.0028598905,-0.00229308,0.00021266937,-0.00012207031,-0.00015258789,-0.00030517578
2019-07-01T20:19:43.069Z,0.010905386,-0.012204494,0.99384856,0.24215698,-0.21966553,9.80101,2.772522,-15.977478,-37.902832,0.23879352,-0.21447015,9.801396,-0.0006958246,0.0022070706,-0.0014562607,0.00024414062,0.0002593994,-0.00030517578
2019-07-01T20:19:43.274Z,0.0109430775,-0.012243751,0.9938393,0.23425293,-0.21104431,9.797409,3.5232544,-15.34729,-37.654114,0.23962872,-0.21513602,9.801362,0.0029800087,-0.0023589134,0.002837181,0.00030517578,0.00033569336,-0.00019836426
2019-07-01T20:19:43.472Z,0.010838246,-0.012201792,0.993866,0.2447815,-0.21679688,9.807709,2.3986816,-15.274048,-37.971497,0.23744635,-0.2145982,9.801427,-0.0036454499,0.0004221052,-0.0033798218,0.00018310547,0.00015258789,-0.00036621094
2019-07-01T20:19:43.679Z,0.010978488,-0.01226413,0.9938304,0.23402405,-0.21511841,9.801239,2.6062012,-16.21399,-37.41455,0.2403789,-0.21543877,9.801336,0.0065223426,-0.0022757053,0.004117012,-6.1035156e-05,0.00021362305,-0.00032043457
2019-07-01T20:19:43.884Z,0.010813493,-0.012178941,0.9938721,0.24072266,-0.21128845,9.803162,1.8829346,-14.445496,-36.572266,0.23690408,-0.21421798,9.801448,-0.005750954,0.0024585277,-0.0022096634,0.00018310547,0.00021362305,-0.00024414062
2019-07-01T20:19:44.090Z,0.0109178,-0.012219202,0.9938455,0.23808289,-0.22013855,9.800766,3.1021118,-15.734863,-38.319397,0.23907228,-0.21472423,9.801384,0.0042461455,-0.0015585572,0.0020341873,6.1035156e-05,-0.00015258789,-0.00024414062
2019-07-01T20:19:44.291Z,0.010862559,-0.012219468,0.99386,0.23928833,-0.21104431,9.801956,2.4429321,-14.399719,-37.7182,0.23796904,-0.21487835,9.801408,-0.0022529364,-0.0007253587,-0.0034389496,6.1035156e-05,0.0001373291,-0.00018310547
2019-07-01T20:19:44.487Z,0.010855819,-0.012259392,0.9938624,0.23880005,-0.21798706,9.8022,3.3035278,-16.442871,-39.30359,0.23791766,-0.2156771,9.801391,-0.0010308772,-0.0018315613,-0.0006246567,0.0,0.0001373291,-0.00018310547
2019-07-01T20:19:44.691Z,0.0108779585,-0.01225186,0.9938565,0.2368927,-0.21391296,9.801483,3.9154053,-15.309143,-39.24713,0.23834437,-0.2154702,9.801385,0.0016406626,0.00037027895,0.0011644363,0.0,0.00021362305,-0.00030517578
2019-07-01T20:19:44.891Z,0.010864023,-0.012260421,0.9938603,0.23976135,-0.21798706,9.801483,4.5394897,-15.625,-40.319824,0.23808375,-0.21567513,9.801387,-0.00047275424,-0.00063447654,-0.0017795563,0.00012207031,7.6293945e-05,-0.00012207031
2019-07-01T20:19:45.099Z,0.010888551,-0.01228226,0.9938542,0.23904419,-0.21583557,9.800522,2.0446777,-15.567017,-40.808105,0.23861952,-0.21603604,9.801366,0.0018485636,-0.0012244135,0.0008792877,6.1035156e-05,9.1552734e-05,-0.00018310547
2019-07-01T20:19:45.305Z,0.010870752,-0.012252313,0.9938584,0.24023438,-0.2141571,9.797897,3.2653809,-15.193176,-40.934753,0.2382013,-0.21549846,9.801388,-0.00058728456,0.0008493066,-0.0011672974,0.00024414062,9.1552734e-05,-0.00024414062
2019-07-01T20:19:45.501Z,0.010935686,-0.012241951,0.99384123,0.23928833,-0.21679688,9.8033905,3.2867432,-15.214539,-38.072205,0.23947722,-0.21512075,9.801365,0.0024311095,-0.00022247434,0.0006504059,0.00012207031,0.00015258789,-0.0002593994
2019-07-01T20:19:45.704Z,0.010888402,-0.012248191,0.9938537,0.2416687,-0.21583557,9.8029175,2.6229858,-15.544128,-38.938904,0.23854542,-0.21537033,9.801383,-0.0009199232,-0.0009523928,-0.0016527176,0.00012207031,0.0001373291,-0.00024414062
2019-07-01T20:19:45.906Z,0.010950454,-0.012259476,0.99383765,0.23617554,-0.21487427,9.800995,3.1906128,-15.661621,-37.70294,0.23980896,-0.21542354,9.801351,0.0030622184,-0.0004093796,0.0014457703,-6.1035156e-05,0.0002593994,-0.00036621094
2019-07-01T20:19:46.112Z,0.010861353,-0.012265941,0.9938611,0.2400055,-0.21583557,9.8029175,3.3554077,-15.42511,-38.417053,0.23804194,-0.21579026,9.801386,-0.0025800914,-0.00052148104,-0.00047683716,0.0,7.6293945e-05,-0.00024414062
2019-07-01T20:19:46.315Z,0.010905293,-0.01225463,0.9938494,0.23951721,-0.21463013,9.8029175,3.3752441,-14.9887085,-38.25226,0.2388964,-0.21545069,9.801373,0.0018021762,0.00084227324,0.0022363663,-0.00012207031,1.5258789e-05,-0.00032043457
2019-07-01T20:19:46.521Z,0.010892249,-0.012242354,0.9938526,0.24143982,-0.2163086,9.799561,2.859497,-15.675354,-38.75122,0.23861009,-0.21524583,9.801384,-0.0005456805,0.0006323457,-0.00043010712,0.0,0.0001373291,-0.00018310547
2019-07-01T20:19:46.725Z,0.010955692,-0.0122607965,0.99383634,0.23832703,-0.21104431,9.804352,3.0670166,-14.718628,-37.960815,0.23991638,-0.21543518,9.801347,0.002470687,-0.00038778782,-0.0004377365,6.1035156e-05,-0.00021362305,-0.00030517578
2019-07-01T20:19:46.931Z,0.010927776,-0.012185301,0.99384236,0.23976135,-0.21607971,9.801239,2.130127,-15.797424,-38.67035,0.23920077,-0.21403445,9.801396,-0.0013715774,0.002524063,0.0009775162,0.00024414062,1.5258789e-05,-0.00030517578
2019-07-01T20:19:47.135Z,0.010964431,-0.012216595,0.9938333,0.23832703,-0.21559143,9.8033905,2.722168,-15.3289795,-37.69226,0.23999858,-0.21454734,9.801365,0.001425013,-0.0019908994,-0.00078868866,0.0,7.6293945e-05,-0.00030517578
2019-07-01T20:19:47.340Z,0.010902297,-0.012201551,0.99384934,0.24047852,-0.21343994,9.800522,3.4759521,-16.51764,-37.738037,0.23872565,-0.21442093,9.801399,-0.0020764768,1.9133091e-05,-0.0013246536,0.00030517578,0.00019836426,-0.00024414062
2019-07-01T20:19:47.545Z,0.010931257,-0.012192107,0.9938416,0.23904419,-0.21463013,9.800278,2.7923584,-15.388489,-38.46283,0.23928453,-0.21415812,9.801391,0.0018966943,-0.00045907497,0.0011787415,6.1035156e-05,7.6293945e-05,-0.00036621094
2019-07-01T20:19:47.750Z,0.01091312,-0.012173578,0.993846,0.23857117,-0.21511841,9.801483,4.2510986,-15.296936,-37.825012,0.23888344,-0.21384479,9.801408,-0.0005568117,-0.0003119558,-0.0011463165,0.00018310547,0.0002593994,-0.00012207031
2019-07-01T20:19:47.955Z,0.010912679,-0.012199019,0.99384654,0.23904419,-0.21511841,9.803635,2.3376465,-14.840698,-38.105774,0.2389278,-0.21434341,9.801395,0.0005919486,-0.0012502968,-0.00028133392,6.1035156e-05,9.1552734e-05,-0.00036621094
2019-07-01T20:19:48.161Z,0.010896823,-0.012200938,0.9938507,0.23904419,-0.21343994,9.7986145,2.56958,-15.118408,-37.794495,0.23861498,-0.21442369,9.801401,0.00018024445,2.6777387e-05,0.0006008148,0.0,0.0002593994,-0.00036621094
2019-07-01T20:19:48.342Z,0.0108977705,-0.01218419,0.99385023,0.23832703,-0.21655273,9.802429,2.3849487,-15.562439,-38.55591,0.23859893,-0.21409366,9.801409,0.0004492253,0.00040601194,-0.0007238388,0.0,1.5258789e-05,-0.00019836426
2019-07-01T20:19:48.549Z,0.0108760875,-0.012231449,0.99385667,0.23545837,-0.21487427,9.799561,2.9968262,-16.403198,-37.69684,0.23826437,-0.21507615,9.801395,-0.00017015636,-0.0022039711,-0.00065135956,0.00018310547,0.00019836426,-0.00030517578
2019-07-01T20:19:48.749Z,0.010819603,-0.012198981,0.99387085,0.23880005,-0.2131958,9.800278,2.267456,-14.779663,-37.109375,0.23706794,-0.21459338,9.801435,-0.0016155392,0.00044168532,0.0014791489,-0.00024414062,3.0517578e-05,-0.00018310547
2019-07-01T20:19:48.951Z,0.0108404085,-0.012194589,0.9938654,0.23951721,-0.21440125,9.800766,3.4759521,-14.77356,-36.932373,0.23747452,-0.21445154,9.801429,0.0008674413,0.0009981245,-0.0017251968,6.1035156e-05,0.0001373291,-0.00018310547
2019-07-01T20:19:49.153Z,0.010885355,-0.012199714,0.9938537,0.23857117,-0.21247864,9.8022,2.1743774,-15.000916,-37.60376,0.23838331,-0.2144307,9.801408,0.002108097,-0.00021103024,0.00011730194,6.1035156e-05,1.5258789e-05,-0.00024414062
2019-07-01T20:19:49.354Z,0.010883492,-0.0121656805,0.9938536,0.2400055,-0.21679688,9.801712,3.2821655,-15.362549,-37.72278,0.23827499,-0.21377026,9.801424,0.00030058622,0.0010435134,0.0007133484,6.1035156e-05,7.6293945e-05,-0.00018310547
2019-07-01T20:19:49.559Z,0.010912918,-0.012197084,0.9938465,0.24119568,-0.21247864,9.799805,2.6916504,-15.985107,-37.825012,0.23892853,-0.21430495,9.801397,0.0008521974,-0.0010596961,-0.0012712479,0.00024414062,1.5258789e-05,-0.00012207031
2019-07-01T20:19:49.761Z,0.010932595,-0.012172924,0.99384093,0.23808289,-0.21440125,9.803162,2.3147583,-15.274048,-38.56964,0.23927115,-0.21377943,9.801399,0.0012193769,8.4623694e-05,0.0005750656,6.1035156e-05,7.6293945e-05,-0.00018310547
2019-07-01T20:19:49.968Z,0.010922858,-0.012164362,0.9938433,0.23880005,-0.21296692,9.8029175,1.8600464,-16.394043,-39.082336,0.23905875,-0.21363834,9.801409,-0.00050345063,-0.0002604574,0.0022935867,0.00012207031,1.5258789e-05,-0.00018310547
2019-07-01T20:19:50.172Z,0.010912887,-0.012139232,0.9938455,0.23904419,-0.21464539,9.801727,1.991272,-15.371704,-38.427734,0.238807,-0.21317387,9.801424,-0.00024276972,0.00045730174,-0.00071430206,-6.1035156e-05,-9.1552734e-05,-0.00018310547
2019-07-01T20:19:50.377Z,0.010910966,-0.012175469,0.9938466,0.23760986,-0.21487427,9.80101,2.5650024,-15.037537,-38.75885,0.2388444,-0.21388759,9.801409,-5.3584576e-05,-0.0009783953,0.00016880035,0.00012207031,0.0001373291,-0.00030517578
2019-07-01T20:19:50.574Z,0.010893238,-0.012181206,0.99385136,0.23904419,-0.21368408,9.802444,2.8884888,-15.170288,-37.81891,0.23850213,-0.21404755,9.801413,-0.0004260391,-0.00082062185,-0.00020885468,-6.1035156e-05,7.6293945e-05,-0.00036621094
2019-07-01T20:19:50.785Z,0.010890294,-0.012169169,0.9938519,0.237854,-0.21440125,9.803635,3.1845093,-15.808105,-37.583923,0.23841816,-0.21382014,9.801419,0.00013260543,0.0006426424,0.0011320114,-0.00012207031,-3.0517578e-05,0.00010681152
2019-07-01T20:19:51.013Z,0.01088639,-0.012156365,0.99385273,0.23736572,-0.21534729,9.800522,3.4851074,-16.070557,-38.62915,0.23831344,-0.21358034,9.801428,-0.00027051568,0.0011375248,0.001036644,0.0,1.5258789e-05,-6.1035156e-05
2019-07-01T20:19:51.205Z,0.010857864,-0.012199345,0.9938609,0.23760986,-0.2172699,9.804596,2.6519775,-15.116882,-37.57019,0.2378332,-0.21449752,9.801418,-0.00048322976,-0.0017968565,-0.0020189285,6.1035156e-05,7.6293945e-05,-0.00030517578
2019-07-01T20:19:51.447Z,0.010861383,-0.012225004,0.99386036,0.23951721,-0.21559143,9.8029175,3.4240723,-15.713501,-38.328552,0.23795709,-0.21498975,9.801405,0.00033147633,-0.0012841076,0.0018358231,6.1035156e-05,0.0001373291,0.0
2019-07-01T20:19:51.643Z,0.010869437,-0.0122320345,0.9938584,0.24072266,-0.21511841,9.8022,2.154541,-15.364075,-38.05542,0.2381327,-0.21510552,9.801398,0.0008752048,-0.00069727004,-0.00021839142,6.1035156e-05,7.6293945e-05,-6.1035156e-05
2019-07-01T20:19:51.864Z,0.010920655,-0.012254898,0.9938454,0.23951721,-0.21463013,9.801483,3.4851074,-16.148376,-38.34381,0.23920391,-0.21541446,9.801365,0.002198413,-0.00086037815,1.5258789e-05,0.00012207031,1.5258789e-05,-6.1035156e-05
2019-07-01T20:19:52.054Z,0.0108944,-0.012209503,0.9938515,0.23760986,-0.21487427,9.801483,3.3798218,-14.993286,-37.574768,0.23858449,-0.21459772,9.801399,-0.0005210489,0.0014194101,-0.0014314651,-0.00012207031,0.00019836426,0.0
2019-07-01T20:19:52.251Z,0.010880625,-0.012207504,0.99385506,0.23904419,-0.21559143,9.805786,2.7038574,-15.614319,-38.279724,0.23830503,-0.21459575,9.801405,-0.00024928153,-9.9390745e-06,0.00063991547,0.00018310547,7.6293945e-05,-0.00024414062
2019-07-01T20:19:52.455Z,0.0108853085,-0.012223171,0.9938541,0.2368927,-0.21368408,9.802673,2.8060913,-15.248108,-37.756348,0.23843133,-0.21488945,9.801395,0.0008029491,-0.0011415482,0.0021686554,0.00012207031,0.0002593994,-0.00030517578
2019-07-01T20:19:52.655Z,0.010838773,-0.012187962,0.99386567,0.24047852,-0.2131958,9.803162,2.015686,-15.013123,-37.373352,0.23742801,-0.21432637,9.801433,-0.0015304834,0.00091698766,-0.0015916824,-6.1035156e-05,-3.0517578e-05,-0.00012207031
2019-07-01T20:19:52.859Z,0.010907802,-0.012194181,0.9938477,0.2400055,-0.21583557,9.803162,2.972412,-15.092468,-37.730408,0.23882024,-0.21426196,9.8014,0.0030627549,-0.00011250377,-0.00042438507,0.00030517578,0.0002593994,-6.1035156e-05
2019-07-01T20:19:53.061Z,0.010894153,-0.012189226,0.99385124,0.24047852,-0.21511841,9.803635,1.9943237,-15.527344,-37.023926,0.23853716,-0.2142019,9.801408,0.00045913458,-0.00062935054,0.0014638901,-6.1035156e-05,0.00019836426,-0.00012207031
2019-07-01T20:19:53.266Z,0.010907351,-0.012210164,0.99384815,0.2359314,-0.21751404,9.801956,2.8625488,-15.7547,-37.9364,0.23884462,-0.21457571,9.801393,0.0013508648,-0.00050775707,-0.00078868866,6.1035156e-05,0.00019836426,-0.00018310547
2019-07-01T20:19:53.468Z,0.010881803,-0.012243256,0.99385536,0.24119568,-0.21440125,9.8022,2.6229858,-15.696716,-38.215637,0.23840325,-0.21529162,9.801388,-0.00059352815,-0.0016941577,0.00042629242,-0.00012207031,1.5258789e-05,-6.1035156e-05
2019-07-01T20:19:53.669Z,0.010878845,-0.012252418,0.99385625,0.23904419,-0.2163086,9.801956,3.0273438,-15.74707,-37.413025,0.23836324,-0.21547872,9.801384,0.00041216612,-0.00033456087,-0.0016326904,0.00012207031,0.00019836426,-1.5258789e-05
2019-07-01T20:19:53.869Z,0.010903783,-0.012261061,0.9938499,0.23904419,-0.21751404,9.805069,2.4887085,-15.124512,-37.716675,0.23887965,-0.21558048,9.80137,0.0010945648,-0.00022685528,0.0005083084,-0.00012207031,1.5258789e-05,-6.1035156e-05
2019-07-01T20:19:54.076Z,0.010884544,-0.012302468,0.9938556,0.23832703,-0.21463013,9.800995,2.0843506,-15.148926,-38.00659,0.23858161,-0.21644197,9.801358,0.00017884374,-0.0015091598,0.0006494522,0.00012207031,0.0001373291,-0.00018310547
2019-07-01T20:19:54.279Z,0.010897201,-0.012252797,0.9938515,0.23951721,-0.21487427,9.801239,2.9006958,-14.952087,-37.623596,0.23873086,-0.21543668,9.801377,0.00076316297,0.0015446395,-0.0013341904,0.0,0.00019836426,-0.00030517578
2019-07-01T20:19:54.484Z,0.010890801,-0.012246593,0.99385303,0.23832703,-0.21606445,9.799805,1.7211914,-16.122437,-37.738037,0.23859,-0.2153326,9.801382,0.00044755638,0.00046430528,-0.0013618469,0.0,0.0001373291,0.0
2019-07-01T20:19:54.688Z,0.010884175,-0.012258015,0.993855,0.24119568,-0.21751404,9.804596,3.3660889,-15.512085,-36.62262,0.23848143,-0.21557377,9.801379,6.908178e-05,-0.00048582256,-0.00011730194,0.0,-3.0517578e-05,0.00016784668
2019-07-01T20:19:54.886Z,0.01091229,-0.012285906,0.9938481,0.23760986,-0.2141571,9.803162,3.100586,-15.884399,-37.6709,0.23910154,-0.21604334,9.801354,0.0013504028,-0.0012025386,0.0016794205,6.1035156e-05,1.5258789e-05,-0.00024414062
2019-07-01T20:19:55.090Z,0.010898687,-0.01223062,0.9938507,0.23641968,-0.21583557,9.801727,2.6504517,-15.037537,-38.23242,0.23871423,-0.21499904,9.801387,-0.00089372694,0.0015892684,0.0006284714,0.00012207031,0.00019836426,-0.00036621094
2019-07-01T20:19:55.289Z,0.010843712,-0.012268664,0.9938657,0.237854,-0.21607971,9.801483,2.709961,-15.774536,-36.72638,0.23769505,-0.21589099,9.801392,-0.0013100207,-0.0018204749,9.727478e-05,0.0,1.5258789e-05,-0.00024414062
2019-07-01T20:19:55.494Z,0.010848509,-0.012243586,0.99386406,0.23976135,-0.21464539,9.8029175,2.7770996,-15.907288,-37.509155,0.23773862,-0.21538773,9.801402,9.556115e-05,0.00077554584,-0.0012083054,-6.1035156e-05,0.0001373291,-6.1035156e-05
2019-07-01T20:19:55.699Z,0.01086034,-0.012243274,0.99386096,0.23857117,-0.21655273,9.801956,2.0828247,-15.299988,-37.358093,0.23797439,-0.2153498,9.801397,0.00127469,0.0005110353,0.0015821457,0.00018310547,0.0001373291,-0.00030517578
2019-07-01T20:19:55.901Z,0.010892553,-0.01228687,0.9938533,0.23832703,-0.21606445,9.800766,3.0563354,-15.013123,-37.7182,0.23870912,-0.21611539,9.801362,0.0005583316,-0.0018527806,0.00021076202,0.0,0.0002593994,-0.00018310547
2019-07-01T20:19:56.101Z,0.010884557,-0.01226466,0.993855,0.23808289,-0.21583557,9.802444,2.3773193,-15.786743,-37.92267,0.23850295,-0.21570268,9.801376,0.0005360991,0.00036005676,-0.0012950897,0.0,1.5258789e-05,-0.00018310547
2019-07-01T20:19:56.309Z,0.0108812265,-0.012285938,0.9938562,0.23976135,-0.21607971,9.803162,2.7923584,-15.539551,-37.81433,0.23848079,-0.2161277,9.801367,-0.00063687563,-0.00017176569,0.00041866302,-6.1035156e-05,7.6293945e-05,-6.1035156e-05
2019-07-01T20:19:56.501Z,0.010897115,-0.012282008,0.99385196,0.24047852,-0.2163086,9.802673,2.871704,-15.611267,-37.454224,0.23879012,-0.21600804,9.801362,0.0014149994,0.0001989305,0.0015439987,-0.00012207031,-9.1552734e-05,-0.00018310547
2019-07-01T20:19:56.709Z,0.01091164,-0.012299266,0.9938485,0.24047852,-0.21679688,9.804108,2.709961,-15.46936,-38.249207,0.23911645,-0.2163063,9.801348,0.0005853176,-0.000192523,0.0024681091,0.00018310547,0.0002593994,-0.00024414062
2019-07-01T20:19:56.924Z,0.010928035,-0.012285855,0.993844,0.24095154,-0.21440125,9.804108,2.2079468,-16.015625,-37.887573,0.2394161,-0.21599984,9.801348,0.0012789667,-0.00052799284,-0.0026721954,0.00012207031,0.0001373291,-0.00024414062
2019-07-01T20:19:57.133Z,0.010969727,-0.0122393,0.9938323,0.24119568,-0.21655273,9.801712,3.0273438,-15.823364,-36.976624,0.24015191,-0.21497697,9.8013525,0.0017354488,0.001315698,-0.00019168854,0.00018310547,-3.0517578e-05,-0.00012207031
2019-07-01T20:19:57.328Z,0.010965345,-0.012276621,0.9938341,0.24023438,-0.21678162,9.801956,2.633667,-15.705872,-36.782837,0.24014239,-0.21571854,9.801336,5.3972006e-05,-0.0015172064,0.0009908676,-6.1035156e-05,1.5258789e-05,-0.00024414062
2019-07-01T20:19:57.527Z,0.01096812,-0.012290514,0.99383354,0.2400055,-0.21583557,9.800766,2.4627686,-15.710449,-37.683105,0.2402269,-0.21598269,9.801329,0.00021512806,-0.00053724647,-0.00014400482,6.1035156e-05,7.6293945e-05,-0.00012207031
2019-07-01T20:19:57.732Z,0.01094769,-0.012293267,0.99383897,0.23857117,-0.21702576,9.8022,2.784729,-15.684509,-37.99286,0.23982437,-0.21609169,9.801335,-0.0005556196,-0.00019924343,-0.00137043,0.0,1.5258789e-05,0.0
2019-07-01T20:19:57.930Z,0.01093253,-0.012298606,0.993843,0.23857117,-0.21559143,9.803162,3.3096313,-16.296387,-39.271545,0.23953259,-0.21623705,9.80134,-0.0005122572,-0.00029414892,0.00035762787,0.00012207031,7.6293945e-05,-0.0001373291
2019-07-01T20:19:58.212Z,0.010911144,-0.012271975,0.99384815,0.23880005,-0.21607971,9.803162,4.0390015,-16.177368,-39.128113,0.23904954,-0.21577403,9.801361,-0.000493139,0.00019592047,-0.0007276535,6.1035156e-05,0.0002593994,-0.00032043457
2019-07-01T20:19:58.417Z,0.01090036,-0.012282428,0.9938511,0.23951721,-0.2172699,9.802673,3.0807495,-16.020203,-39.35852,0.23885585,-0.21600752,9.801361,0.0006289929,-0.0005159676,0.0014190674,-6.1035156e-05,7.6293945e-05,-0.00024414062
2019-07-01T20:19:58.544Z,0.010884057,-0.012304783,0.9938558,0.24023438,-0.2182312,9.803635,3.7841797,-16.407776,-39.84375,0.23857671,-0.21648856,9.801357,-4.1902065e-05,-0.0009924769,0.00031089783,0.0,9.1552734e-05,0.0
2019-07-01T20:19:58.740Z,0.010925928,-0.012343316,0.99384546,0.24047852,-0.21391296,9.801712,3.3798218,-14.99176,-37.72583,0.23949403,-0.21712907,9.801321,0.0019041002,-0.0008201897,0.0003633499,-0.00012207031,0.00019836426,-0.00024414062
2019-07-01T20:19:58.949Z,0.010931211,-0.012288641,0.9938432,0.23951721,-0.21606445,9.800995,2.5268555,-15.991211,-38.34839,0.23948537,-0.21604575,9.801345,0.00024159253,0.0023926944,-0.00055217743,0.0,-3.0517578e-05,-0.00012207031
2019-07-01T20:19:59.149Z,0.010938305,-0.012293707,0.9938414,0.24143982,-0.21559143,9.801483,3.1845093,-15.655518,-38.607788,0.23963773,-0.21612564,9.801339,0.00034169853,8.46833e-05,-0.00069236755,-0.00030517578,1.5258789e-05,-0.00012207031
2019-07-01T20:19:59.353Z,0.010958023,-0.012308254,0.99383646,0.23808289,-0.21200562,9.800049,3.5949707,-15.330505,-39.164734,0.2400622,-0.21635681,9.801324,0.0006632507,0.0005187243,-0.002366066,6.1035156e-05,-3.0517578e-05,-0.00018310547
2019-07-01T20:19:59.552Z,0.010938121,-0.012219035,0.9938402,0.23640442,-0.21655273,9.800522,2.6306152,-15.551758,-37.95929,0.23947799,-0.21466611,9.801375,-0.0009012222,0.0031285137,-0.00013637543,-0.00012207031,0.0001373291,-0.00012207031
2019-07-01T20:19:59.760Z,0.010886318,-0.0122559555,0.9938544,0.23880005,-0.21534729,9.804596,2.937317,-15.8203125,-38.027954,0.23851998,-0.21552776,9.80138,-0.0018663853,-0.0010295212,6.580353e-05,-6.1035156e-05,-9.1552734e-05,-0.00018310547
2019-07-01T20:19:59.961Z,0.0108840745,-0.012255387,0.99385494,0.2400055,-0.2141571,9.8022,2.609253,-15.911865,-38.63678,0.23847394,-0.21552268,9.80138,-0.00016963482,-0.00029234588,0.002281189,0.00012207031,-3.0517578e-05,-0.00030517578
2019-07-01T20:20:00.165Z,0.010913221,-0.012235135,0.993847,0.23904419,-0.21511841,9.803635,2.2964478,-15.867615,-37.55951,0.23901409,-0.2150481,9.801378,0.0009597987,0.0006752908,0.0007162094,0.0,7.6293945e-05,-0.00024414062
2019-07-01T20:20:00.370Z,0.010907117,-0.012206783,0.99384815,0.23928833,-0.21511841,9.802444,2.760315,-14.450073,-37.66632,0.23883289,-0.21451022,9.801394,-0.0005234927,0.0006130785,-0.0011224747,0.00018310547,-3.0517578e-05,-6.1035156e-05
2019-07-01T20:20:00.570Z,0.0109229,-0.01223084,0.9938444,0.2368927,-0.21559143,9.801956,3.8513184,-15.254211,-37.72278,0.2391985,-0.21493798,9.801375,0.0010131747,-0.0011213124,0.0003671646,0.0,0.0001373291,-0.00030517578
2019-07-01T20:20:00.775Z,0.010875408,-0.012231342,0.99385685,0.23880005,-0.21583557,9.800278,2.9327393,-15.966797,-37.90741,0.23825054,-0.21507587,9.801395,-0.0018616617,-0.0007456839,-0.00055217743,0.00018310547,-3.0517578e-05,4.5776367e-05
2019-07-01T20:20:00.977Z,0.010879046,-0.012240493,0.993856,0.23808289,-0.21511841,9.801727,3.5995483,-15.335083,-38.41095,0.23834236,-0.21524501,9.80139,0.0006904304,-0.00080914795,-0.00037574768,6.1035156e-05,0.0002593994,-0.00024414062
2019-07-01T20:20:01.179Z,0.0108509725,-0.012233856,0.9938632,0.23641968,-0.21534729,9.7986145,3.3416748,-15.794373,-38.038635,0.23776753,-0.21519086,9.801405,-0.00016783178,8.164346e-05,-9.6321106e-05,0.00012207031,7.6293945e-05,-0.00036621094
2019-07-01T20:20:01.382Z,0.010840695,-0.012231835,0.9938659,0.23857117,-0.21583557,9.802444,3.1784058,-15.802002,-38.41095,0.23755795,-0.21517901,9.801411,-0.00041107833,-0.00042149425,-0.0016651154,0.00012207031,1.5258789e-05,0.0
2019-07-01T20:20:01.584Z,0.0108423205,-0.0122142555,0.9938652,0.23617554,-0.21368408,9.803162,2.3284912,-16.807556,-38.356018,0.23755375,-0.2148309,9.801418,0.00029860437,-4.185736e-05,0.000957489,0.00018310547,7.6293945e-05,-0.00024414062
2019-07-01T20:20:01.789Z,0.010833602,-0.012184987,0.993867,0.23951721,-0.21655273,9.8022,1.3442993,-15.490723,-37.895203,0.23731847,-0.2142821,9.801435,-0.00042904913,0.00060096383,0.00015640259,0.0,0.0001373291,-0.00030517578
2019-07-01T20:20:01.991Z,0.010844577,-0.0122324675,0.9938649,0.23641968,-0.21391296,9.79837,3.5858154,-15.777588,-37.89673,0.23763686,-0.21518095,9.80141,0.0013961792,-0.0018347353,0.0005760193,6.1035156e-05,0.0002593994,-0.00024414062
2019-07-01T20:20:02.218Z,0.010813532,-0.012187341,0.9938723,0.23617554,-0.21487427,9.799088,2.0004272,-15.151978,-38.383484,0.23692238,-0.21438213,9.801444,0.0006970316,0.0006894022,0.00018978119,0.0,0.0001373291,-6.1035156e-05
2019-07-01T20:20:02.411Z,0.010820013,-0.0121972775,0.99387074,0.2400055,-0.21511841,9.801483,3.2180786,-15.078735,-37.358093,0.23707259,-0.21455899,9.801436,0.0003182143,-0.0008109957,-0.0013113022,0.00018310547,1.5258789e-05,-0.00030517578
2019-07-01T20:20:02.654Z,0.010840888,-0.012193007,0.9938652,0.2359314,-0.21368408,9.800766,3.1173706,-15.292358,-38.83362,0.23748079,-0.2144193,9.801429,0.0010949969,-0.00022876263,0.0004014969,0.00012207031,1.5258789e-05,-0.00018310547
2019-07-01T20:20:02.854Z,0.010830794,-0.012190986,0.9938678,0.24023438,-0.21440125,9.801483,2.9678345,-15.084839,-38.635254,0.2372749,-0.21440697,9.8014345,-0.0001232475,-0.00023654103,0.00041675568,0.0,0.0001373291,-0.00018310547
2019-07-01T20:20:03.059Z,0.010864791,-0.012178682,0.99385875,0.23641968,-0.2141571,9.801483,4.3426514,-15.151978,-37.27112,0.2379285,-0.21407486,9.801426,0.001838237,0.0006300956,0.00075149536,0.00012207031,0.0002593994,-0.00024414062
2019-07-01T20:20:03.255Z,0.010813075,-0.012164969,0.993872,0.23904419,-0.21559143,9.800766,2.7572632,-16.192627,-38.700867,0.23686658,-0.21394593,9.801455,-0.0013969541,-0.00046548247,-0.00046634674,0.00012207031,0.0001373291,-0.00036621094
2019-07-01T20:20:03.461Z,0.010843127,-0.012184662,0.9938645,0.23832703,-0.21272278,9.803162,2.154541,-15.516663,-37.101746,0.23750812,-0.21425012,9.801433,0.0020194054,-0.0013506114,2.861023e-06,6.1035156e-05,0.00019836426,-0.00036621094
2019-07-01T20:20:03.659Z,0.010854035,-0.012163193,0.9938613,0.23880005,-0.21751404,9.800766,2.9556274,-15.380859,-38.015747,0.23768124,-0.21380097,9.801437,0.00088486075,0.0010827333,0.0012712479,6.1035156e-05,-3.0517578e-05,-0.00019836426
2019-07-01T20:20:03.869Z,0.010877173,-0.012217011,0.99385613,0.23736572,-0.21536255,9.799332,2.6412964,-15.409851,-37.252808,0.23825593,-0.21479094,9.801402,0.00077976286,-0.0027154237,0.0002040863,0.00018310547,7.6293945e-05,-0.00036621094
2019-07-01T20:20:04.084Z,0.010851643,-0.012211328,0.9938627,0.237854,-0.2131958,9.801956,2.4124146,-15.286255,-36.2381,0.23773395,-0.21474859,9.801416,-0.00058189034,-0.00013943017,-0.0019454956,6.1035156e-05,0.0001373291,-0.00018310547
2019-07-01T20:20:04.270Z,0.010843847,-0.012188052,0.99386436,0.2368927,-0.21702576,9.799805,2.0248413,-14.871216,-36.816406,0.23752958,-0.21431446,9.801431,0.0003399849,0.00061635673,-2.2888184e-05,0.0,0.00019836426,-0.00018310547
2019-07-01T20:20:04.474Z,0.010825012,-0.012227905,0.99386996,0.23760986,-0.21464539,9.800766,3.2241821,-14.929199,-37.70752,0.23723635,-0.21514437,9.801419,-8.024275e-05,-0.001669988,-0.0003452301,6.1035156e-05,0.0001373291,-0.00012207031
2019-07-01T20:20:04.675Z,0.010840242,-0.012213746,0.9938657,0.23712158,-0.21607971,9.803635,2.9052734,-14.805603,-37.745667,0.23751114,-0.21482654,9.801419,0.0008379072,0.000405401,-0.00023365021,0.0,-3.0517578e-05,-0.00012207031
2019-07-01T20:20:04.880Z,0.010815142,-0.012255037,0.99387294,0.23736572,-0.21751404,9.803635,2.9144287,-14.585876,-37.701416,0.2370957,-0.21570142,9.801411,-0.0009216815,-0.0022842735,0.0019168854,0.00012207031,7.6293945e-05,-0.00036621094
2019-07-01T20:20:05.082Z,0.0108277835,-0.01226352,0.9938698,0.2368927,-0.21559143,9.800049,1.9226074,-15.083313,-38.28888,0.237366,-0.21583326,9.801401,0.00046108663,-0.00020670891,0.0020837784,3.0517578e-05,-0.0001373291,-3.0517578e-05
2019-07-01T20:20:05.283Z,0.010837411,-0.012263368,0.9938673,0.23808289,-0.21751404,9.80101,2.546692,-15.629578,-37.973022,0.2375581,-0.2158044,9.801397,-0.00019553304,0.00021582842,-0.0019521713,-3.0517578e-05,-3.0517578e-05,-9.1552734e-05
2019-07-01T20:20:05.489Z,0.010837124,-0.012294396,0.9938679,0.23664856,-0.21534729,9.801712,2.4536133,-15.701294,-38.88855,0.23761706,-0.21641184,9.801382,0.00023378432,-0.0010993183,-2.9563904e-05,-0.00015258789,9.1552734e-05,-9.1552734e-05
2019-07-01T20:20:05.692Z,0.010808317,-0.012290304,0.9938753,0.23857117,-0.2141571,9.8029175,3.1707764,-15.94696,-38.591003,0.2370328,-0.21640931,9.801396,-0.000611797,0.00034366548,-0.00034713745,3.0517578e-05,3.0517578e-05,-9.1552734e-05
2019-07-01T20:20:05.894Z,0.010839611,-0.012249773,0.9938665,0.23880005,-0.21559143,9.80101,2.7908325,-15.692139,-37.164307,0.23757371,-0.21553268,9.801403,0.0009881258,0.0013840497,0.00088596344,3.0517578e-05,3.0517578e-05,-0.00015258789
2019-07-01T20:20:06.095Z,0.010862862,-0.012247563,0.99386036,0.237854,-0.21511841,9.798126,3.0944824,-15.957642,-37.835693,0.23803371,-0.21542686,9.8013935,0.0010072589,0.0005555153,-0.0005159378,-3.0517578e-05,-9.1552734e-05,-9.1552734e-05
2019-07-01T20:20:06.301Z,0.01086339,-0.012241136,0.9938601,0.23880005,-0.2163086,9.802673,3.7078857,-14.822388,-37.931824,0.23803088,-0.21529979,9.801397,-0.00016023219,0.00041045249,-0.0016241074,-9.1552734e-05,9.1552734e-05,9.1552734e-05
2019-07-01T20:20:06.497Z,0.010874897,-0.012269667,0.99385756,0.23904419,-0.21511841,9.800049,3.427124,-15.716553,-37.95166,0.23832037,-0.21582663,9.801378,0.00048592687,-0.0004876107,0.000834465,-0.00021362305,-3.0517578e-05,-3.0517578e-05
2019-07-01T20:20:06.705Z,0.010873216,-0.012267214,0.993858,0.23760986,-0.2131958,9.800766,2.9541016,-15.455627,-37.953186,0.23828167,-0.2157832,9.80138,4.6923757e-05,0.000663355,0.00039672852,-0.00015258789,9.1552734e-05,-9.1552734e-05
2019-07-01T20:20:06.906Z,0.010869554,-0.012225536,0.9938583,0.24023438,-0.21440125,9.799805,2.2125244,-15.945435,-37.493896,0.2381215,-0.21497816,9.801402,-1.6495585e-05,0.001991272,-0.0016479492,3.0517578e-05,9.1552734e-05,-3.0517578e-05
2019-07-01T20:20:07.109Z,0.010898732,-0.01222736,0.99385065,0.2368927,-0.21440125,9.800766,2.6687622,-16.419983,-38.29193,0.23870829,-0.21493515,9.801387,-0.0003655851,0.00029093027,0.00049495697,-9.1552734e-05,-9.1552734e-05,0.00015258789
2019-07-01T20:20:07.309Z,0.010873551,-0.012233494,0.9938573,0.23857117,-0.21487427,9.8029175,3.0960083,-15.882874,-37.971497,0.23821795,-0.21512298,9.801396,-0.0013133138,-0.0002503246,0.000333786,-3.0517578e-05,-0.0001373291,-3.0517578e-05