timestamp,rotationVector_x,rotationVector_y,rotationVector_z,accelerometer_x,accelerometer_y,accelerometer_z,magneticField_x,magneticField_y,magneticField_z,gravity_x,gravity_y,gravity_z,linearAcceleration_x,linearAcceleration_y,linearAcceleration_z,gyroscope_x,gyroscope_y,gyroscope_z
2019-07-01T19:43:23.193Z,-0.05411982,0.013174481,-0.98280215,0.9954071,-0.43788147,9.750748,-9.564209,-13.949585,-35.507202,0.9977202,-0.4408341,9.7458,0.00027537346,-0.00020104647,9.250641e-05,-0.00018310547,0.00012207031,-0.00015258789
2019-07-01T19:43:23.393Z,-0.054101124,0.0131687,-0.9827954,0.99302673,-0.43310547,9.757935,-10.194397,-13.702393,-35.279846,0.99736136,-0.44070283,9.745843,-0.0009185672,0.0012906492,-0.0023269653,-0.00018310547,-0.00022888184,0.00019836426
2019-07-01T19:43:23.592Z,-0.054105893,0.013111185,-0.9827943,1.0001984,-0.4355011,9.74118,-9.819031,-13.879395,-37.446594,0.99764824,-0.4396201,9.745862,5.942583e-05,0.002569586,-0.00137043,-6.1035156e-05,-0.00010681152,0.00019836426
2019-07-01T19:43:23.796Z,-0.05411443,0.013106368,-0.982797,1.0001984,-0.44267273,9.755539,-10.902405,-13.235474,-35.684204,0.9978369,-0.43953896,9.745847,0.00021034479,0.0012408197,-0.0018558502,-0.00024414062,0.00012207031,7.6293945e-05
2019-07-01T19:43:23.997Z,-0.054140814,0.013141767,-0.9828078,0.99780273,-0.4402771,9.765106,-10.403442,-12.683105,-36.64856,0.99825287,-0.4402396,9.745771,0.00077933073,-0.0006931126,-0.00058555603,-6.1035156e-05,-4.5776367e-05,7.6293945e-05
2019-07-01T19:43:24.204Z,-0.054110844,0.013144397,-0.9827976,0.99302673,-0.43788147,9.750748,-10.890198,-12.635803,-37.52594,0.9976383,-0.44025433,9.745834,-0.0007478595,0.00052294135,-8.392334e-05,-6.1035156e-05,0.00024414062,3.0517578e-05
2019-07-01T19:43:24.395Z,-0.054097194,0.013113261,-0.98279136,0.9954071,-0.4402771,9.750748,-9.872437,-13.606262,-35.575867,0.9974655,-0.43964916,9.745879,-2.2649765e-05,0.0013167858,-0.0015058517,-0.00012207031,6.1035156e-05,0.00019836426
2019-07-01T19:43:24.606Z,-0.054124486,0.013105362,-0.9828004,1.0049896,-0.46420288,9.745972,-10.435486,-13.720703,-34.97162,0.99804336,-0.43953165,9.745825,0.001505971,0.0004864335,0.00075149536,0.00048828125,-0.001159668,-0.0016937256
2019-07-01T19:43:24.803Z,-0.05428631,0.013071639,-0.9828546,0.9690857,-0.42114258,9.765106,-10.404968,-14.579773,-36.732483,1.0014266,-0.4390817,9.745499,0.0009847879,-0.0035476387,-0.0001707077,0.00048828125,0.00018310547,0.00019836426
2019-07-01T19:43:25.015Z,-0.054070987,0.01290507,-0.9827722,1.036087,-0.49771118,9.78186,-10.505676,-13.354492,-35.725403,0.9976261,-0.4356791,9.74604,-0.0052324533,0.006924212,0.0004453659,-0.0007324219,0.00093078613,0.0015563965
2019-07-01T19:43:25.210Z,-0.05421615,0.013176496,-0.9828355,1.0193481,-0.44267273,9.755539,-10.983276,-14.910889,-36.62567,0.99966127,-0.4409846,9.745594,0.0066851377,-0.0059923828,-0.0026082993,-0.0005493164,-0.00018310547,0.0002593994
2019-07-01T19:43:25.424Z,-0.05410018,0.013084325,-0.982791,1.0073853,-0.40438843,9.748352,-9.968567,-13.824463,-36.37085,0.9976218,-0.43910515,9.745888,-0.0041338205,0.0051303506,0.0042085648,-0.00012207031,6.1035156e-05,1.5258789e-05
2019-07-01T19:43:25.617Z,-0.05405631,0.013010927,-0.9827723,1.0073853,-0.42591858,9.757935,-10.220337,-14.059448,-36.483765,0.9969783,-0.43766478,9.746017,-0.0012976527,0.0024808645,-0.0005598068,0.00012207031,-4.5776367e-05,0.00019836426
2019-07-01T19:43:25.823Z,-0.05406556,0.013044993,-0.9827771,1.0001984,-0.44506836,9.748352,-9.887695,-13.972473,-35.421753,0.9970523,-0.43832028,9.745981,0.0009627938,-0.0013834536,0.0010471344,0.0,0.00024414062,-0.00010681152
2019-07-01T19:43:26.022Z,-0.054089982,0.013081111,-0.9827873,0.99780273,-0.44506836,9.745972,-11.228943,-13.404846,-35.6308,0.9974262,-0.43903235,9.745911,0.0010583997,-0.0016307533,-0.00011920929,6.1035156e-05,0.0,0.0001373291
2019-07-01T19:43:26.228Z,-0.054090418,0.013074409,-0.98278713,1.002594,-0.44506836,9.793823,-11.1831665,-14.051819,-36.141968,0.9974573,-0.43890607,9.7459135,-0.0005568862,0.0001154542,-0.0015010834,6.1035156e-05,-6.1035156e-05,-3.0517578e-05
2019-07-01T19:43:26.437Z,-0.054110695,0.013136363,-0.98279715,1.0001984,-0.43310547,9.753143,-10.623169,-14.161682,-36.035156,0.9976618,-0.4401021,9.745838,0.0005045533,-0.0020628273,-0.0016460419,-0.00024414062,1.5258789e-05,0.0001373291
2019-07-01T19:43:26.635Z,-0.0540633,0.013126437,-0.98278034,0.99302673,-0.43788147,9.750748,-10.131836,-13.983154,-36.01837,0.9967366,-0.43985865,9.745944,-0.0013149381,0.0010885298,0.0025758743,-6.1035156e-05,0.0001373291,1.5258789e-05
2019-07-01T19:43:26.834Z,-0.054067537,0.0131343445,-0.9827822,0.99302673,-0.43788147,9.76033,-10.066223,-14.042664,-37.316895,0.9967961,-0.4400133,9.745932,0.0003375411,-0.00021257997,-0.0010089874,0.0,-0.00018310547,0.0002593994
2019-07-01T19:43:27.039Z,-0.054061484,0.013121158,-0.98277944,1.0001984,-0.4402771,9.750748,-11.009216,-13.748169,-36.2381,0.9967174,-0.43975663,9.745951,-0.0009301901,0.00092610717,-0.0016031265,-0.00012207031,1.5258789e-05,0.0001373291
2019-07-01T19:43:27.238Z,-0.054034464,0.013144075,-0.9827712,0.99780273,-0.43788147,9.736389,-10.0997925,-13.179016,-36.23352,0.9960952,-0.44015846,9.745996,-0.0009407997,-0.00027954578,0.0032548904,-6.1035156e-05,0.0,-9.1552734e-05
2019-07-01T19:43:27.443Z,-0.05403767,0.013129106,-0.9827716,1.002594,-0.44267273,9.753143,-9.443665,-12.918091,-35.905457,0.9962097,-0.439879,9.745997,0.00018751621,0.0008519292,-0.0010232925,-0.00018310547,7.6293945e-05,7.6293945e-05
2019-07-01T19:43:27.647Z,-0.054057363,0.013151061,-0.98277944,0.99302673,-0.43310547,9.750748,-10.299683,-13.989258,-36.543274,0.99653494,-0.4403176,9.745944,0.0007967949,0.00011238456,0.0004491806,-0.00030517578,-4.5776367e-05,0.00019836426
2019-07-01T19:43:27.849Z,-0.054050993,0.013096712,-0.9827746,1.0073853,-0.44984436,9.750748,-10.928345,-13.8168335,-35.876465,0.9965863,-0.4392817,9.745985,-0.00017625093,0.0028881729,-0.0006380081,6.1035156e-05,-6.1035156e-05,0.00038146973
2019-07-01T19:43:28.054Z,-0.054042954,0.01308919,-0.98277146,0.99780273,-0.4402771,9.738785,-9.997559,-12.812805,-35.560608,0.99644876,-0.43912992,9.746006,0.00038260221,0.00037023425,0.0013084412,-0.00012207031,0.00019836426,7.6293945e-05
2019-07-01T19:43:28.257Z,-0.05406184,0.013100113,-0.98277855,1.0001984,-0.44267273,9.745972,-10.028076,-13.317871,-36.566162,0.9967944,-0.43935886,9.745961,0.00034743547,-0.00039803982,-0.0016756058,0.0,-4.5776367e-05,-9.1552734e-05
2019-07-01T19:43:28.460Z,-0.054085176,0.013120904,-0.9827876,1.0001984,-0.43788147,9.750748,-8.380127,-12.632751,-35.43701,0.9971973,-0.4397797,9.745901,0.0008185506,-0.0006557405,0.0016088486,-0.00012207031,-0.00010681152,0.00019836426
2019-07-01T19:43:28.660Z,-0.05407025,0.013032884,-0.9827782,0.99780273,-0.4355011,9.750748,-10.083008,-14.558411,-36.740112,0.99718726,-0.43809667,9.745977,0.00014603138,0.0038703382,-0.00052547455,6.1035156e-05,0.00012207031,-3.0517578e-05
2019-07-01T19:43:28.864Z,-0.054083277,0.012990755,-0.98278064,0.9954071,-0.4355011,9.753143,-10.128784,-13.760376,-36.5036,0.99759036,-0.43731484,9.745972,0.0009729862,0.0011630058,-0.00084400177,6.1035156e-05,6.1035156e-05,0.0001373291
2019-07-01T19:43:29.061Z,-0.05402064,0.012997847,-0.9827593,0.91645813,-0.4019928,9.765106,-10.177612,-13.188171,-35.70404,0.9963008,-0.4373753,9.7461,-0.002218902,-1.0341406e-05,-0.0010566711,0.00024414062,-0.00030517578,-0.0013275146
2019-07-01T19:43:29.262Z,-0.05299532,0.010372669,-0.97932076,0.94755554,-0.35414124,9.76033,-10.684204,-13.653564,-36.383057,0.978253,-0.40189362,9.749456,-0.024762213,0.060178965,0.0012292862,0.028167725,-0.010681152,0.29255676
2019-07-01T19:43:29.460Z,-0.05257284,0.007654147,-0.9701494,0.89730835,-0.38285828,9.772293,-10.877991,-14.472961,-35.862732,0.9648254,-0.38962403,9.751291,-0.018796384,0.034276724,0.004043579,0.050216675,-0.018615723,0.52090454
2019-07-01T19:43:29.669Z,-0.051947728,0.0041778665,-0.95281696,0.87338257,-0.40438843,9.774673,-14.616394,-13.633728,-35.1593,0.9462894,-0.38275546,9.75338,-0.02628702,0.021406561,0.0025930405,0.07159424,-0.027542114,0.76164246
2019-07-01T19:43:29.868Z,-0.05119105,2.5511039e-05,-0.92276615,0.899704,-0.42352295,9.779465,-17.687988,-12.010193,-35.760498,0.9262896,-0.38394442,9.755254,-0.028875947,0.0066040456,0.005331993,0.09188843,-0.035476685,0.9769745
2019-07-01T19:43:30.073Z,-0.050640855,-0.0041592354,-0.8788522,0.928421,-0.5383911,9.76033,-25.053406,-7.6950073,-34.806824,0.9116044,-0.39947757,9.756013,-0.016646147,-0.029603928,-0.0030603409,0.10446167,-0.039993286,1.1003113
2019-07-01T19:43:30.278Z,-0.049732678,-0.008681736,-0.82064617,0.92362976,-0.44984436,9.750748,-28.233337,-3.3187866,-34.088135,0.8973986,-0.41547468,9.756661,-0.0113379955,-0.04252678,0.000166893,0.11222839,-0.043411255,1.1732483
2019-07-01T19:43:30.486Z,-0.04840317,-0.013518238,-0.7506006,0.8949127,-0.5024872,9.755539,-29.486084,1.1138916,-33.813477,0.88726324,-0.42645705,9.757114,0.0042704344,-0.040857464,-0.001206398,0.11123657,-0.043121338,1.1753235
2019-07-01T19:43:30.688Z,-0.04680596,-0.018060124,-0.6719123,0.8685913,-0.48095703,9.767502,-30.673218,6.9366455,-33.18329,0.8785711,-0.44034773,9.757284,0.012229025,-0.0448924,-0.0025749207,0.10787964,-0.041900635,1.1516876
2019-07-01T19:43:30.887Z,-0.044426687,-0.02268973,-0.5856642,0.8638153,-0.47616577,9.772293,-29.951477,12.225342,-32.43866,0.87035006,-0.44430777,9.757841,0.019737124,-0.026326954,-0.002896309,0.10783386,-0.042129517,1.155716
2019-07-01T19:43:31.089Z,-0.04123308,-0.027318746,-0.4876703,0.84706116,-0.50727844,9.767502,-27.404785,16.833496,-31.001282,0.8614136,-0.4435993,9.758667,0.02122438,-0.02367416,-0.0020103455,0.1103363,-0.042999268,1.1813202
2019-07-01T19:43:31.295Z,-0.037828468,-0.031631052,-0.38273597,0.92123413,-0.5024872,9.757935,-24.18518,22.29309,-30.62439,0.856302,-0.44702566,9.75896,0.025881827,-0.03126332,-0.004347801,0.1076355,-0.042434692,1.1561432
2019-07-01T19:43:31.498Z,-0.04691519,-0.017634798,-0.660685,0.9523468,-0.5288086,9.757935,-20.913696,25.352478,-30.513,0.8669945,-0.46067476,9.757381,0.05869192,-0.057539582,-0.006497383,0.09701538,-0.037612915,1.0312805
2019-07-01T19:43:31.701Z,-0.044331204,-0.024903549,-0.53672135,0.9571228,-0.4857483,9.757935,-17.633057,26.734924,-30.291748,0.8780467,-0.47014314,9.755941,0.05867845,-0.041634202,-0.00814724,0.086013794,-0.0337677,0.9123535
2019-07-01T19:43:31.905Z,-0.042332016,-0.029098706,-0.46328592,0.9714813,-0.46180725,9.753143,-14.750671,29.98352,-29.74701,0.8895809,-0.4701487,9.754896,0.05758643,-0.025305629,-0.0046129227,0.07850647,-0.029922485,0.80545044
2019-07-01T19:43:32.150Z,-0.040021632,-0.03296886,-0.3942752,0.9643097,-0.45224,9.76033,-11.575317,29.180908,-30.795288,0.9027885,-0.46527025,9.753917,0.058186293,-0.0067073405,-0.0044527054,0.06854248,-0.026016235,0.7102661
2019-07-01T19:43:32.304Z,-0.037729017,-0.03623979,-0.3317058,0.98106384,-0.44984436,9.748352,-8.64563,29.882812,-30.244446,0.91496676,-0.46124968,9.752972,0.052108586,-0.0056525767,-0.0025892258,0.060791016,-0.022781372,0.6214447
2019-07-01T19:43:32.510Z,-0.035423305,-0.039112028,-0.2751708,0.9762726,-0.44984436,9.762711,-5.395508,30.381775,-29.066467,0.92756975,-0.45585176,9.752035,0.048002303,0.0015604198,-0.007218361,0.051864624,-0.019958496,0.54307556
2019-07-01T19:43:32.702Z,-0.033348,-0.041508857,-0.22486216,0.97387695,-0.5479584,9.767502,-2.8823853,30.993652,-30.027771,0.9391655,-0.45329586,9.751045,0.04279107,0.0052577555,-0.0025453568,0.04673767,-0.017654419,0.47613525
2019-07-01T19:43:32.924Z,-0.03042575,-0.043259304,-0.17545672,0.9786682,-0.279953,9.76033,-1.3092041,29.997253,-29.312134,0.93879324,-0.43777612,9.75179,0.019056499,0.03204623,-0.0013628006,0.051132202,-0.020141602,0.5546875
2019-07-01T19:43:33.118Z,-0.026277142,-0.04500714,-0.11480811,0.91166687,-0.4019928,9.762711,3.07312,29.20227,-30.18341,0.9348639,-0.40992302,9.753378,0.008475125,0.053662717,-0.00035953522,0.06719971,-0.026138306,0.69488525
2019-07-01T19:43:33.323Z,-0.022161325,-0.04630396,-0.03810509,0.899704,-0.36610413,9.755539,6.19812,27.305603,-31.454468,0.92287827,-0.3991615,9.754965,-0.008088648,0.025230318,0.0036268234,0.080825806,-0.03199768,0.85975647
2019-07-01T19:43:33.524Z,-0.017498005,-0.04764079,0.054160878,0.9523468,-0.46899414,9.755539,9.819031,23.75946,-31.9458,0.913228,-0.3928545,9.756129,-0.0060849786,0.009821713,0.0008468628,0.09725952,-0.037002563,1.0161896
2019-07-01T19:43:33.725Z,-0.013285547,-0.049314417,0.15708101,0.9403839,-0.49291992,9.767502,13.81073,21.257019,-32.09076,0.91300195,-0.40892592,9.755491,0.013065755,-0.04206574,-0.0033330917,0.09561157,-0.0370636,0.99909973
2019-07-01T19:43:33.929Z,-0.009473368,-0.051031727,0.25098866,0.9762726,-0.4905243,9.767502,14.570618,18.540955,-32.899475,0.92083323,-0.43081236,9.753812,0.033158362,-0.052189022,-0.0038309097,0.08534241,-0.032791138,0.89305115
2019-07-01T19:43:34.132Z,-0.005422329,-0.052356705,0.33276176,1.002594,-0.44984436,9.753143,15.254211,15.9729,-34.05609,0.93146753,-0.44184163,9.752309,0.045279503,-0.027286053,-0.0064144135,0.07496643,-0.029067993,0.79359436
2019-07-01T19:43:34.332Z,-0.0015709943,-0.05324158,0.40239078,0.9954071,-0.46899414,9.755539,15.629578,13.517761,-33.74176,0.941953,-0.44835374,9.751004,0.045337796,-0.011929929,-0.0053567886,0.06573486,-0.02558899,0.69425964
2019-07-01T19:43:34.536Z,0.0018061782,-0.053866867,0.4608345,1.0145569,-0.44984436,9.753143,16.978455,11.044312,-32.487488,0.9522298,-0.45549366,9.749676,0.0438807,-0.010274857,-0.0039281845,0.05619812,-0.021911621,0.5965271
2019-07-01T19:43:34.740Z,0.0049988264,-0.054241788,0.5094661,1.0265198,-0.46420288,9.755539,16.22467,8.59375,-32.955933,0.96355593,-0.4578046,9.748455,0.04420626,0.0016327202,-0.0030508041,0.047958374,-0.018447876,0.50575256
2019-07-01T19:43:34.941Z,0.007670739,-0.05442917,0.54875886,1.0217285,-0.447464,9.76033,17.350769,7.0022583,-34.381104,0.9730679,-0.46031976,9.747391,0.03762573,0.001019001,-0.005106926,0.039657593,-0.0155181885,0.42059326
2019-07-01T19:43:35.147Z,0.010025662,-0.05447324,0.5798382,1.0241241,-0.44506836,9.745972,15.235901,4.751587,-34.90753,0.98246264,-0.45966396,9.746479,0.03466761,0.008507729,-0.0025434494,0.03250122,-0.012451172,0.34344482
2019-07-01T19:43:35.349Z,0.011931136,-0.054447368,0.6042896,1.0169525,-0.45224,9.757935,15.075684,4.664612,-34.4635,0.9901838,-0.45932308,9.745714,0.027967334,0.0071677566,-0.004094124,0.0262146,-0.010131836,0.276062
2019-07-01T19:43:35.648Z,0.0005432203,-0.056007445,0.4248879,1.0408783,-0.40678406,9.722046,16.392517,2.4536133,-38.96942,1.0029389,-0.45438153,9.744641,0.01969564,0.010868549,-0.0021162033,0.020721436,-0.007873535,0.21681213
2019-07-01T19:43:35.853Z,0.0043330933,-0.05639396,0.48135552,1.0671997,-0.55992126,9.707687,15.834045,2.5619507,-38.92517,1.008388,-0.45807633,9.743906,0.018402457,-0.00594607,0.00092220306,0.007583618,-0.0012817383,0.06892395
2019-07-01T19:43:35.968Z,0.00411864,-0.05713315,0.48175925,1.0552368,-0.5240326,9.736389,15.315247,3.0136108,-35.64148,1.0187757,-0.4692083,9.742296,0.02454722,-0.029517025,-0.0045747757,-0.010986328,0.0053863525,-0.13198853
2019-07-01T19:43:36.173Z,0.002376206,-0.05835146,0.4586662,1.0384827,-0.58384705,9.743576,14.915466,3.211975,-36.566162,1.0361588,-0.48360297,9.739758,0.021618128,-0.043161213,-0.0064992905,-0.04170227,0.017471313,-0.45874023
2019-07-01T19:43:36.358Z,-0.0020310166,-0.059544705,0.40149373,0.9667053,-0.5934143,9.748352,15.742493,7.0404053,-34.46045,1.0513468,-0.5052978,9.737029,0.0015052557,-0.0831126,-0.0020112991,-0.085632324,0.032989502,-0.90882874
2019-07-01T19:43:36.563Z,-0.019051112,-0.05629069,0.14159654,0.8949127,-0.6053772,9.786652,15.953064,11.639404,-33.380127,1.0380429,-0.5255524,9.737384,-0.1250602,-0.12116355,0.010894775,-0.12527466,0.049728394,-1.3580017
2019-07-01T19:43:36.764Z,-0.02668802,-0.054103762,-0.038972717,0.8183441,-0.23449707,9.772293,14.103699,16.975403,-32.22046,1.0788127,-0.48073232,9.735268,-0.31633675,-0.026311725,0.028524399,-0.17591858,0.059326172,-1.7928162
2019-07-01T19:43:37.026Z,-0.03298227,-0.05009709,-0.2061524,0.7346039,-0.5862427,9.800995,10.247803,24.14093,-30.601501,1.0930139,-0.42924666,9.736091,-0.3003384,-0.009437472,0.024671555,-0.16546631,0.06707764,-1.7548828
2019-07-01T19:43:37.226Z,-0.037667323,-0.045337655,-0.3511131,0.7800598,-0.38763428,9.78186,3.956604,27.365112,-30.21698,1.0903512,-0.37815544,9.738507,-0.2835207,-0.06585413,0.023783684,-0.15136719,0.059143066,-1.5944061
2019-07-01T19:43:37.422Z,-0.04082546,-0.035973568,-0.47969875,0.830307,-0.4402771,9.769897,-2.4871826,30.723572,-29.644775,1.0019959,-0.36277145,9.748579,-0.17504978,-0.058104545,0.013437271,-0.13748169,0.053634644,-1.4462128
2019-07-01T19:43:37.627Z,-0.04402357,-0.028089534,-0.5862724,0.8685913,-0.40678406,9.765106,-8.609009,30.610657,-29.794312,0.9516021,-0.37504193,9.753163,-0.09871435,-0.05302483,0.006468773,-0.12527466,0.048324585,-1.3082123
2019-07-01T19:43:37.832Z,-0.04638922,-0.021715922,-0.67305285,0.8829498,-0.4283142,9.767502,-15.4953,29.418945,-29.302979,0.9266267,-0.38463387,9.755195,-0.055062354,-0.024047315,0.004422188,-0.113967896,0.043624878,-1.1815186
2019-07-01T19:43:38.038Z,-0.048612595,-0.015968068,-0.7443722,0.8949127,-0.40678406,9.757935,-19.851685,25.714111,-30.557251,0.91824424,-0.40168348,9.755299,-0.025491059,-0.03516361,0.003537178,-0.10267639,0.0398407,-1.0679626
2019-07-01T19:43:38.238Z,-0.049944583,-0.011365844,-0.8012033,0.92123413,-0.43310547,9.76033,-23.207092,22.651672,-31.045532,0.9177461,-0.40541485,9.755191,-0.015342057,-0.009691775,-0.0007343292,-0.09069824,0.03567505,-0.9614258
2019-07-01T19:43:38.437Z,-0.05122134,-0.0071632797,-0.8469388,0.9403839,-0.72024536,9.8033905,-25.158691,20.335388,-30.830383,0.92519706,-0.41262224,9.754185,0.002201736,-0.011394978,-0.00308609,-0.08050537,0.03189087,-0.85879517
2019-07-01T19:43:38.635Z,-0.05521171,0.0019988196,-0.90207666,0.93559265,-0.7680969,9.753143,-28.5141,17.269897,-31.167603,0.96006423,-0.49886584,9.746784,0.04283923,-0.18036085,-0.01054287,-0.08294678,0.03164673,-0.8738861
2019-07-01T19:43:38.844Z,-0.055896617,0.010735508,-0.96386814,0.77049255,-0.77526855,9.750748,-30.667114,12.39624,-32.22046,1.0019119,-0.4882431,9.743109,-0.11844432,-0.29363304,0.0019111633,-0.13497925,0.051864624,-1.4380798
2019-07-01T19:43:39.070Z,-0.053499416,0.020692833,-0.9973216,0.624527,-0.5144501,9.786652,-30.088806,3.918457,-34.048462,1.0280726,-0.45238346,9.742115,-0.35489,-0.1740177,0.025639534,-0.19729614,0.07801819,-2.0996094
2019-07-01T19:43:39.237Z,0.04885486,-0.029306205,0.98538804,0.7034912,-0.55513,9.762711,-27.76947,-4.029846,-32.36389,1.0364659,-0.41258726,9.742992,-0.3838147,-0.11598536,0.03569126,-0.21025085,0.08161926,-2.194107
2019-07-01T19:43:39.440Z,-0.046758875,-0.030957308,-0.59216094,0.73220825,-0.5623169,9.777069,-19.252014,-10.945129,-36.00769,1.0311557,-0.37767696,9.744971,-0.3279717,-0.13849378,0.026887894,-0.19265747,0.074783325,-2.029541
2019-07-01T19:43:39.662Z,-0.050076693,-0.022603922,-0.7258616,0.76091003,-0.5240326,9.78186,-10.6033325,-13.421631,-37.394714,1.0168902,-0.3516158,9.747445,-0.26702487,-0.14687821,0.020373344,-0.17897034,0.0692749,-1.8666687
2019-07-01T19:43:39.855Z,-0.050510738,-0.010239844,-0.8315822,0.79681396,-0.4665985,9.774673,-3.0319214,-13.28125,-37.30011,0.93489766,-0.38083994,9.754553,-0.14887387,-0.11523712,0.011187553,-0.16656494,0.06402588,-1.723053
2019-07-01T19:43:40.059Z,-0.05047595,-0.00057527266,-0.9046944,0.830307,-0.45463562,9.769897,4.0008545,-10.627747,-37.501526,0.90042084,-0.40862188,9.756673,-0.079686284,-0.06398523,0.005174637,-0.14988708,0.05847168,-1.588913
2019-07-01T19:43:40.265Z,-0.049935486,0.007031714,-0.9522715,0.94755554,-0.3900299,9.934998,9.989929,-6.451416,-35.916138,0.8911339,-0.42618877,9.756773,-0.044344544,-0.02641216,0.009027481,-0.13676453,0.05357361,-1.4445038
2019-07-01T19:43:40.467Z,-0.05000247,0.017475313,-0.9868052,0.933197,-0.78245544,9.762711,14.445496,-0.24871826,-36.042786,0.9153318,-0.48827788,9.751623,0.016205668,-0.14413163,-0.0144815445,-0.11972046,0.050460815,-1.3274078
2019-07-01T19:43:40.669Z,0.047704,-0.028365333,0.9965883,0.7465668,-0.99302673,9.640686,15.771484,5.8792114,-34.77478,0.96642506,-0.49728593,9.746236,-0.18571532,-0.4169716,0.015572548,-0.16815186,0.06451416,-1.79422
2019-07-01T19:43:40.875Z,0.041011415,-0.039992973,0.9387141,0.2679901,-0.04067993,9.74118,14.483643,16.490173,-32.258606,1.0216912,-0.4629139,9.742292,-0.51198983,-0.33236745,0.03008461,-0.2436676,0.09114075,-2.6116333
2019-07-01T19:43:41.075Z,0.029416686,-0.048951067,0.79874086,0.5694885,-0.90927124,9.7986145,7.142639,26.7807,-30.917358,1.0358955,-0.4212905,9.74268,-0.6483574,-0.21166757,0.062203407,-0.3062744,0.10972595,-3.1244507
2019-07-01T19:43:41.275Z,0.016233524,-0.052868273,0.6019981,0.39720154,-0.6077728,9.810577,-5.9646606,30.348206,-29.73175,1.0176628,-0.3705992,9.746661,-0.61007094,-0.25214234,0.060652733,-0.28111267,0.11039734,-2.9523163
2019-07-01T19:43:41.475Z,0.0027375047,-0.053151157,0.37590182,0.5431671,-0.5407715,9.777069,-27.107239,18.318176,-31.993103,0.9846025,-0.34219462,9.751095,-0.51233,-0.27219033,0.052767754,-0.2637024,0.10116577,-2.7288513
2019-07-01T19:43:41.673Z,-0.01493808,-0.04424794,0.1163998,0.5694885,-0.5670929,9.793823,-31.15387,8.876038,-33.676147,0.8268921,-0.39168894,9.763873,-0.28405875,-0.15705258,0.027048111,-0.2388916,0.09346008,-2.5205536
2019-07-01T19:43:41.877Z,-0.028479809,-0.035935882,-0.12674944,0.62931824,-0.5168457,9.793823,-28.735352,0.0045776367,-34.59778,0.7691894,-0.46414992,9.765413,-0.15916318,-0.07581857,0.017754555,-0.21891785,0.08583069,-2.331009
2019-07-01T19:43:42.080Z,-0.04464045,-0.020861562,-0.5054792,0.72024536,-0.50727844,9.784256,-24.5224,-8.1588745,-36.20758,0.79503715,-0.54739875,9.75903,-0.08391154,0.034482062,0.012164116,-0.1902771,0.07411194,-1.983841
2019-07-01T19:43:42.301Z,-0.048643284,-0.014420578,-0.6404231,0.77526855,-0.55513,9.767502,-16.905212,-12.388611,-36.550903,0.82774824,-0.550001,9.756163,-0.077184916,0.066541195,0.011548042,-0.17366028,0.06756592,-1.8287964
2019-07-01T19:43:42.488Z,-0.049291383,-0.0109611815,-0.7353727,0.73220825,-0.31106567,9.848862,-10.403442,-12.683105,-36.64856,0.85621625,-0.49522662,9.756641,-0.060957134,0.19164643,0.0059022903,-0.15997314,0.061828613,-1.6777954
2019-07-01T19:43:42.687Z,-0.050442718,-0.0076155467,-0.7825298,0.73698425,-0.21774292,9.820145,-3.0426025,-11.680603,-37.200928,0.8668789,-0.49702662,9.755607,-0.12648213,0.26216462,0.03920746,-0.13682556,0.051132202,-1.2761536
2019-07-01T19:43:42.905Z,-0.048554566,-0.010240363,-0.755144,0.68673706,-0.12921143,9.767502,-2.1316528,-12.702942,-38.65509,0.85042465,-0.47083902,9.758354,-0.101928115,0.43292162,0.038433075,-0.018203735,0.010391235,-0.2026062
2019-07-01T19:43:43.104Z,-0.043529857,-0.017600749,-0.642069,0.28234863,0.124420166,9.84407,-7.684326,-13.012695,-36.827087,0.81233186,-0.43165898,9.76341,-0.22413594,0.37576455,0.033768654,0.09085083,-0.03816223,0.970871
2019-07-01T19:43:43.300Z,-0.033086874,-0.028882282,-0.40706477,-0.0143585205,-0.33259583,9.74118,-18.605042,-10.751343,-36.44867,0.78098285,-0.36146554,9.768818,-0.64898014,0.08728567,0.07428455,0.20544434,-0.0869751,2.2218018
2019-07-01T19:43:43.503Z,-0.03237989,-0.028435068,-0.47752202,-0.18902588,-0.7680969,9.506683,-28.208923,0.98724365,-34.41925,0.79268444,-0.2910026,9.770228,-1.2736008,-0.78971803,0.10892773,0.33140564,-0.14305115,3.459076
2019-07-01T19:43:43.712Z,-0.019315924,-0.04044003,-0.14317474,0.13160706,-1.1509552,9.779465,-27.92511,16.297913,-32.44629,0.8384271,-0.26100045,9.767256,-0.71154547,-0.7472279,0.0636673,0.37991333,-0.15667725,3.8809967
2019-07-01T19:43:43.912Z,-0.0054068305,-0.04726573,0.18416981,0.41156006,-1.0384827,9.765106,-16.217041,28.00293,-31.221008,0.8905811,-0.27484187,9.7622595,-0.6501843,-0.97786546,0.06279373,0.3386078,-0.13143921,3.5637054
2019-07-01T19:43:44.117Z,0.0092986645,-0.04896216,0.4724267,0.5264282,-1.0384827,9.784256,-1.4831543,29.997253,-30.740356,0.9311938,-0.29319102,9.757936,-0.35836136,-0.66771483,0.042359352,0.3140564,-0.12136841,3.2031708
2019-07-01T19:43:44.308Z,0.02205054,-0.04600583,0.6988459,0.54556274,-0.78723145,9.767502,9.768677,24.182129,-30.499268,0.9460047,-0.3220311,9.755602,-0.4358012,-0.44227028,0.06193161,0.2803955,-0.10810852,2.9223633
2019-07-01T19:43:44.518Z,0.03216412,-0.039973214,0.8590923,0.55513,-0.28234863,9.911072,15.689087,14.756775,-33.1131,0.9412033,-0.35228112,9.75502,-0.33890855,-0.4348452,0.04205513,0.25871277,-0.09992981,2.6924896
2019-07-01T19:43:44.726Z,0.03970046,-0.0313139,0.96334803,-0.25602722,-0.32063293,9.858429,16.015625,4.071045,-34.321594,0.91191816,-0.38652417,9.756505,-0.6469429,0.037210464,0.10712528,0.22407532,-0.08905029,2.4584656
2019-07-01T19:43:44.927Z,-0.04385291,0.013470364,-0.9911199,-1.105484,-0.6628113,9.9062805,7.6904297,-7.3272705,-36.90338,0.81948876,-0.36919856,9.765373,-1.6861993,0.19600943,0.2243452,0.28692627,-0.11929321,3.0918121
2019-07-01T19:43:45.128Z,-0.045757376,-0.0044260565,-0.8695174,-0.057434082,-1.552948,9.777069,-12.265015,-13.1073,-35.75287,0.82304037,-0.36584756,9.7652,-1.0750829,-1.6923947,0.07459736,0.4000702,-0.17475891,4.1704865
2019-07-01T19:43:45.333Z,-0.04132238,-0.020330573,-0.6566481,0.66041565,-1.1629181,9.7005005,-26.460266,-5.0994873,-33.7677,0.83236706,-0.34827402,9.765053,-0.5526916,-1.1250234,0.092598915,0.37794495,-0.1457367,3.8262024
2019-07-01T19:43:45.536Z,-0.032063197,-0.032626167,-0.39833403,0.43788147,-0.8518524,9.769897,-30.517578,6.7230225,-32.629395,0.8367163,-0.32120606,9.765608,-0.39635038,-0.6339129,0.08112526,0.32774353,-0.12728882,3.3808746
2019-07-01T19:43:45.732Z,-0.020906579,-0.041132886,-0.12236319,0.49531555,-0.8422699,9.793823,-26.911926,20.803833,-31.26831,0.8499981,-0.30780894,9.764894,-0.39881724,-0.5232617,0.0863657,0.29414368,-0.1131134,3.1042175
2019-07-01T19:43:45.935Z,-0.008287509,-0.046083063,0.14547813,-0.2416687,-0.08135986,9.628723,-15.960693,28.155518,-30.070496,0.8695766,-0.29212505,9.763651,-0.33044976,-0.5693909,0.09905529,0.27153015,-0.105789185,2.8717804
2019-07-01T19:43:46.139Z,0.007724209,-0.04667947,0.44842342,-0.42352295,-1.0193481,9.958923,-0.5126953,30.06134,-30.541992,0.8851153,-0.2753273,9.762743,-1.0690081,-0.23800275,0.148839,0.2772827,-0.10810852,2.8582764
2019-07-01T19:43:46.340Z,0.026367849,-0.037900243,0.8043731,-1.5098724,-1.1437683,10.088135,13.438416,18.162537,-31.271362,0.8562962,-0.29160118,9.76484,-2.0790877,-0.74429893,0.28294468,0.39193726,-0.14860535,3.9744568
2019-07-01T19:43:46.540Z,0.040210623,-0.021439599,0.9889718,-1.134201,-1.3471527,10.535599,12.435913,-1.9866943,-36.087036,0.83922213,-0.3047264,9.765923,-1.9489166,-0.9050733,0.25597954,0.46505737,-0.17512512,4.7909546
2019-07-01T19:43:46.752Z,-0.04523701,0.0036868285,-0.95759237,-0.73220825,-1.483551,9.860825,-2.3513794,-12.591553,-36.054993,0.8290464,-0.3216921,9.766248,-1.5937889,-1.2448759,0.32623386,0.42736816,-0.16436768,4.4742737
2019-07-01T19:43:46.958Z,-0.043785006,-0.011430511,-0.79612345,-0.3134613,-1.7419739,9.784256,-17.964172,-9.336853,-34.90448,0.8189709,-0.3397322,9.766486,-1.3354158,-1.3378992,0.19437504,0.38180542,-0.1572876,4.0343933
2019-07-01T19:43:47.152Z,-0.038673338,-0.023193303,-0.5794555,-0.0023956299,-1.8113708,9.894318,-27.468872,-0.79956055,-32.777405,0.8096988,-0.35365033,9.766765,-1.0143107,-1.3372571,0.2142725,0.33885193,-0.13400269,3.5608368
2019-07-01T19:43:47.357Z,-0.030900976,-0.032854393,-0.3471539,0.5096741,-0.65563965,9.722046,-29.655457,11.207581,-30.088806,0.81400794,-0.34401965,9.76675,-0.5290326,-1.1514866,0.17272282,0.2942047,-0.1199646,3.081787
2019-07-01T19:43:47.560Z,-0.022808632,-0.038915597,-0.17388557,0.65563965,-0.63648987,9.78186,-23.678589,21.011353,-30.375671,0.82863486,-0.30735466,9.766744,-0.19988954,-0.36951464,0.15374374,0.26042175,-0.10231018,2.672882
2019-07-01T19:43:47.762Z,-0.0133436285,-0.043873407,0.05010362,0.6412811,-0.9308014,10.088135,-16.589355,26.504517,-29.397583,0.84540236,-0.3042225,9.765405,-0.21553367,-0.42983508,0.14050865,0.23414612,-0.08843994,2.4708557
2019-07-01T19:43:47.963Z,-0.0041416176,-0.04713823,0.23895526,0.77049255,-0.4737854,9.76033,-7.3516846,29.663086,-28.453064,0.8772758,-0.29970667,9.7627325,-0.077510715,-0.4012836,0.14168453,0.19041443,-0.084106445,2.0901642
2019-07-01T19:43:48.167Z,0.0046802415,-0.047660895,0.40654463,0.8111725,-0.5814514,9.724426,1.1489868,29.060364,-28.396606,0.8901954,-0.2962814,9.761668,-0.10067999,-0.2532312,0.1322298,0.18075562,-0.06498718,1.8602295
2019-07-01T19:43:48.376Z,0.009870263,-0.046892468,0.5579403,0.8374939,-0.5479584,9.51387,7.48291,25.117493,-29.760742,0.87354875,-0.34744632,9.761485,-0.08390814,-0.1520811,0.09151554,0.16622925,-0.06535339,1.7194366
2019-07-01T19:43:48.570Z,0.021529645,-0.042921927,0.75632036,1.0791626,-0.59103394,9.772293,12.365723,22.973633,-30.924988,0.86861724,-0.36119846,9.761426,0.2017374,-0.15108189,0.051624298,0.12585449,-0.04611206,1.3768463
2019-07-01T19:43:48.780Z,0.02293894,-0.04269038,0.7864387,1.1652985,-0.30389404,9.743576,14.474487,19.534302,-30.052185,0.8694042,-0.38144714,9.760585,0.28985888,-0.09924191,0.04499054,0.060302734,-0.017578125,0.79133606
2019-07-01T19:43:48.976Z,0.024050985,-0.042632185,0.8000845,1.0049896,-0.5048828,9.789032,14.0182495,18.266296,-30.140686,0.8773431,-0.38696218,9.759658,0.14931619,-0.0694474,0.055124283,0.025482178,-0.009033203,0.30239868
2019-07-01T19:43:49.175Z,0.028686991,-0.046783105,0.80633956,1.5792694,-0.34457397,9.743576,15.237427,16.970825,-31.285095,0.99404305,-0.4085305,9.747582,0.21333921,-0.05030641,0.028933525,0.014297485,-0.010314941,0.18315125
2019-07-01T19:43:49.373Z,0.030234238,-0.046720657,0.8028081,1.1413727,-0.31106567,9.166901,14.079285,16.314697,-31.748962,1.0200347,-0.38362888,9.745909,0.4627849,0.2119213,0.020773888,0.01234436,-0.008239746,0.05206299
2019-07-01T19:43:49.579Z,0.027567418,-0.04705821,0.7872649,0.25842285,-0.8063812,10.116852,15.029907,17.834473,-31.855774,0.9925494,-0.3945297,9.748312,-0.27168447,-0.28810075,0.013975143,-0.012817383,0.011062622,-0.13772583
2019-07-01T19:43:49.780Z,0.026209228,-0.04835213,0.76371145,1.146164,-0.69869995,9.765106,13.996887,18.208313,-32.266235,1.002571,-0.3936197,9.747323,-0.22527987,-0.21877143,0.07271576,-0.038589478,0.011184692,-0.41781616
2019-07-01T19:43:49.981Z,0.023302097,-0.048453197,0.74558747,0.2416687,-0.624527,9.779465,14.16626,20.26062,-32.30896,0.97199744,-0.40497577,9.749953,-0.27781183,-0.3203084,0.05599022,-0.026809692,0.013015747,-0.31983948
2019-07-01T19:43:50.184Z,0.021773113,-0.049564138,0.7184143,0.9786682,-0.5001068,9.738785,13.417053,21.447754,-31.809998,0.9809618,-0.40222582,9.74917,-0.10311812,0.04790491,0.04024887,-0.03504944,0.011367798,-0.4009552
2019-07-01T19:43:50.386Z,0.020786053,-0.049920388,0.70477545,1.0193481,-0.41874695,9.748352,13.15918,22.583008,-30.133057,0.9799102,-0.40166673,9.749299,-0.048684657,-0.0016259551,0.04382801,-0.033950806,0.013076782,-0.2924652
2019-07-01T19:43:50.592Z,0.020648506,-0.050056882,0.69933873,0.9499512,-0.41635132,9.767502,13.336182,22.732544,-29.28009,0.98297286,-0.39794946,9.749144,-0.017925918,0.019865751,0.03465748,-0.011291504,0.003616333,-0.12954712
2019-07-01T19:43:50.796Z,0.021525195,-0.049600415,0.70129955,1.0504456,-0.4905243,9.74118,10.905457,22.732544,-31.066895,0.98757356,-0.38215256,9.74931,-0.0087662935,0.0082193315,0.027162552,0.003921509,-0.0026245117,-0.014709473
2019-07-01T19:43:50.994Z,0.021190934,-0.050232727,0.70590764,0.9882355,-0.3397827,9.745972,12.358093,22.981262,-31.982422,0.98916394,-0.40196624,9.748352,0.008414626,-0.041198224,0.019112587,0.007217407,-0.0018310547,0.035202026
2019-07-01T19:43:51.197Z,0.021289963,-0.05026672,0.7059179,0.98106384,-0.42352295,9.757935,11.431885,22.11914,-32.269287,0.9909946,-0.40108183,9.748201,0.0057653785,0.0021795928,0.011288643,0.00079345703,0.00012207031,0.012359619
2019-07-01T19:43:51.413Z,-0.0034920434,-0.054456707,0.31421646,0.9762726,-0.4139557,9.755539,11.199951,22.24884,-32.084656,0.9907819,-0.40052104,9.748247,0.0011310577,0.0010231733,0.0058984756,-6.1035156e-05,0.0002593994,-0.0004119873
2019-07-01T19:43:51.623Z,-0.0034953377,-0.054439224,0.31420207,0.9882355,-0.39720154,9.750748,11.950684,22.731018,-31.411743,0.99044365,-0.40045953,9.748283,0.0010668635,-0.0005388558,0.007884026,0.0,0.00019836426,-0.00022888184
2019-07-01T19:43:51.821Z,-0.0035443427,-0.05442283,0.31419182,0.9906311,-0.3900299,9.748352,11.413574,23.350525,-31.414795,0.9898421,-0.40125883,9.748312,-0.00095021725,-0.0018158257,0.004468918,0.00012207031,0.00012207031,-3.0517578e-05
2019-07-01T19:43:52.023Z,-0.003737172,-0.054650724,0.31454438,0.92123413,-0.25842285,9.726822,11.222839,22.683716,-31.542969,0.9927242,-0.40661606,9.747797,0.00949198,-0.017957568,-0.00027179718,-0.00012207031,0.0,-9.1552734e-05
2019-07-01T19:43:52.224Z,-0.0071783955,-0.05476707,0.2919779,1.0671997,-1.2729797,9.867996,11.627197,22.787476,-31.991577,0.98453355,-0.44806415,9.746811,0.18948174,-0.2093111,-0.028028488,-0.0043945312,0.0049591064,-0.014587402
2019-07-01T19:43:52.423Z,-0.01632644,-0.0541997,0.12419293,0.83509827,-1.1868439,9.736389,10.322571,24.230957,-31.947327,1.0133188,-0.4492403,9.743806,-0.035806656,-0.67303216,-0.014505386,-0.09742737,0.03855896,-0.9142761
2019-07-01T19:43:52.625Z,-0.02858623,-0.047931056,-0.15921097,0.2871399,-0.77049255,9.82254,2.9693604,28.61023,-29.846191,1.0158758,-0.40296158,9.7455635,-0.4856099,-0.52943057,0.034175873,-0.22436523,0.08912659,-2.4323425
2019-07-01T19:43:52.827Z,-0.03875084,-0.037029747,-0.44470227,0.33499146,-0.6388855,9.753143,-11.087036,29.13208,-29.693604,0.98733145,-0.35654777,9.750304,-0.6728104,-0.33835775,0.0605278,-0.2820282,0.11357117,-3.036621
2019-07-01T19:43:53.071Z,-0.04549904,-0.023842271,-0.6744817,0.4665985,-0.6077728,9.786652,-24.649048,22.84851,-31.17218,0.9463057,-0.3418398,9.754898,-0.5543104,-0.2954709,0.04714775,-0.27700806,0.10850525,-2.9328918
2019-07-01T19:43:53.238Z,-0.04895473,-0.009837346,-0.8413463,0.81355286,-0.37806702,9.647858,-30.123901,11.769104,-31.239319,0.91166914,-0.3544139,9.757747,-0.43034965,-0.2628382,0.04044342,-0.26242065,0.10189819,-2.7245178
2019-07-01T19:43:53.439Z,-0.04924668,0.0033757042,-0.9443209,0.97387695,-0.279953,9.643082,-29.196167,0.4837036,-34.48181,0.8905722,-0.3767282,9.75886,-0.33728307,-0.2015129,0.04817772,-0.24409485,0.09732056,-2.5234833
2019-07-01T19:43:53.644Z,-0.046875812,0.014281216,-0.9913876,0.38763428,-0.34695435,9.86322,-24.911499,-7.9696655,-35.62317,0.87745386,-0.3893462,9.759553,-0.2748183,-0.06616452,0.019094467,-0.21995544,0.086746216,-2.3015594
2019-07-01T19:43:53.847Z,0.045280218,-0.020038942,0.9987167,0.9954071,-0.34934998,9.714859,-17.83905,-11.799622,-35.862732,0.89113355,-0.38308325,9.758561,-0.16750681,0.1441612,0.03789711,-0.16259766,0.06506348,-1.8157349
2019-07-01T19:43:54.049Z,-0.044575084,0.017580887,-0.9988513,0.9786682,-0.011962891,9.839294,-12.786865,-13.937378,-36.27777,0.8732398,-0.344475,9.761618,-0.23190045,0.6475326,0.039660454,-0.061813354,0.029327393,-0.75624084
2019-07-01T19:43:54.244Z,-0.04560479,0.008931623,-0.98735356,0.32781982,0.035888672,9.836899,-15.869141,-12.535095,-36.849976,0.856597,-0.3085362,9.764294,-0.16506839,0.23163542,0.034466743,0.0818634,-0.03816223,0.9208374
2019-07-01T19:43:54.448Z,-0.04652511,-0.0042424966,-0.91027206,0.50727844,-0.8949127,9.7986145,-24.354553,-8.003235,-36.332703,0.86486274,-0.29963306,9.763843,-0.54795825,-0.06682965,0.06361771,0.20117188,-0.07518005,2.1866913
2019-07-01T19:43:54.652Z,-0.042097323,-0.019896938,-0.7285983,0.1531372,-0.46899414,9.92543,-30.766296,4.8171997,-33.309937,0.8682562,-0.27989388,9.764128,-0.81648564,-0.31043866,0.0780077,0.29493713,-0.110061646,3.0454407
2019-07-01T19:43:54.854Z,-0.031050684,-0.03489903,-0.4021962,-1.1605225,-0.91166687,10.045074,-25.897217,20.144653,-31.74591,0.87080663,-0.28155437,9.763852,-1.2496573,-0.49263886,0.14759922,0.3540039,-0.13070679,3.7563782
2019-07-01T19:43:55.079Z,0.002827544,-0.04753925,0.4292381,-0.124420166,-1.1485596,9.894318,-7.0495605,29.55017,-29.924011,0.86477005,-0.35020328,9.762168,-1.0869508,-1.1190226,0.15190601,0.41870117,-0.15960693,4.373291
2019-07-01T19:43:55.275Z,0.01999309,-0.043250415,0.7288905,0.48812866,-1.2035828,9.714859,10.272217,23.059082,-31.803894,0.86517245,-0.35049224,9.762121,-0.69364256,-0.8744276,0.14443493,0.3833313,-0.14994812,3.944397
2019-07-01T19:43:55.481Z,0.0014079893,-0.047319923,0.3961594,0.38285828,-0.8039856,9.805786,9.288025,-5.836487,-36.592102,0.86197096,-0.3423533,9.762693,-0.43526375,-0.6408607,0.11366558,0.34539795,-0.134552,3.5722046
2019-07-01T19:43:55.723Z,0.016216565,-0.044349227,0.65872747,0.4785614,-0.89730835,9.796219,-3.6468506,-12.898254,-35.838318,0.8626725,-0.334153,9.762916,-0.4059487,-0.51158136,0.12165356,0.31027222,-0.120147705,3.2573547
2019-07-01T19:43:55.920Z,0.028598828,-0.037798293,0.8460307,0.5312042,-0.79681396,9.784256,-16.816711,-12.541199,-34.69696,0.8682268,-0.32934418,9.762587,-0.35236472,-0.5030781,0.11358452,0.28399658,-0.109817505,2.9773865
2019-07-01T19:43:56.124Z,0.03817847,-0.028766429,0.9558861,0.6197357,-0.6915283,9.772293,-27.050781,-5.567932,-34.820557,0.8792918,-0.32229513,9.761831,-0.30119675,-0.471185,0.10714245,0.25975037,-0.101638794,2.7312164
2019-07-01T19:43:56.326Z,0.041040257,-0.024372395,0.9984473,0.6316986,0.27278137,9.085556,-30.297852,4.4815063,-33.096313,0.8174129,-0.45416474,9.761965,-0.1622445,-0.3660879,0.08642197,0.23788452,-0.09484863,2.5172272
2019-07-01T19:43:56.532Z,-0.04032396,0.005967216,-0.948137,-1.2993011,-0.45463562,9.913467,-27.041626,17.803955,-30.967712,0.71297383,-0.3602838,9.77406,-0.8368247,0.25600615,0.12169266,0.2719574,-0.09631348,2.7535095
2019-07-01T19:43:56.734Z,-0.03592828,-0.015088248,-0.72065216,-0.9451599,-1.4404755,9.714859,-10.795593,30.322266,-30.065918,0.7126667,-0.27451175,9.776867,-1.8469875,-0.97109485,0.2282877,0.3899231,-0.15966797,4.18985
2019-07-01T19:43:56.934Z,-0.02376097,-0.032179866,-0.3918312,-0.8446655,-0.7848511,10.226929,7.6034546,26.306152,-31.33545,0.76274097,-0.18105483,9.775267,-1.571242,-1.0282373,0.21876526,0.42633057,-0.16149902,4.5203247
2019-07-01T19:43:57.141Z,-0.010161965,-0.045015827,-0.024300111,0.04067993,-1.4596252,9.379868,15.275574,11.016846,-34.236145,0.88655055,-0.17758363,9.76488,-1.2588313,-1.0742058,0.24474812,0.4053192,-0.15887451,4.1784973
2019-07-01T19:43:57.342Z,0.0026713966,-0.05197332,0.32537124,0.21296692,-2.2014008,9.9015045,10.246277,-3.942871,-37.52899,0.97948766,-0.28220433,9.7535305,-0.7232079,-1.6300453,0.112371445,0.3617096,-0.14628601,3.8190613
2019-07-01T19:43:57.540Z,0.015062624,-0.05136699,0.5935465,0.6699829,-0.78245544,9.748352,-0.9460449,-11.616516,-37.04834,0.98437107,-0.36075032,9.750449,-0.6915997,-0.873289,0.17988682,0.3177185,-0.12106323,3.2456207
2019-07-01T19:43:57.751Z,0.026557373,-0.046763804,0.7899995,0.6460571,-0.8638153,9.485153,-12.904358,-12.776184,-36.943054,0.9716633,-0.40645856,9.749926,-0.2713554,-0.4780222,0.18757343,0.27215576,-0.10877991,2.8631592
2019-07-01T19:43:57.948Z,0.035233844,-0.032532234,0.9504146,-1.1102753,-0.7537384,9.894318,-25.790405,-6.063843,-35.27527,0.8528413,-0.394089,9.761543,-0.98310965,0.3306438,0.18543148,0.28515625,-0.089538574,2.747406
2019-07-01T19:43:58.151Z,-0.043240357,0.014410152,-0.9905985,0.110076904,-1.660614,9.853638,-29.634094,12.327576,-33.410645,0.8036577,-0.3893641,9.765906,-1.2317609,-1.0204186,0.21533108,0.37928772,-0.16070557,4.2144623
2019-07-01T19:43:58.352Z,-0.042980507,-0.005791981,-0.8645757,-0.17706299,-0.5431671,10.016357,-17.990112,25.985718,-30.654907,0.78569955,-0.32380822,9.76976,-0.70728755,-0.9447031,0.19154358,0.40794373,-0.1609497,4.2129974
2019-07-01T19:43:58.556Z,-0.03637238,-0.022980152,-0.62060964,-0.22013855,-0.727417,10.1766815,-0.75683594,29.969788,-30.096436,0.7956154,-0.27881548,9.770346,-1.0005085,-0.7909069,0.18630981,0.38406372,-0.14793396,4.0438538
2019-07-01T19:43:58.758Z,-0.025052223,-0.03746863,-0.3020487,0.15792847,-1.179657,9.812973,12.408447,20.507812,-32.26013,0.8481891,-0.24591227,9.766806,-0.8017043,-0.7098955,0.27095985,0.36579895,-0.14152527,3.8377533
2019-07-01T19:43:58.959Z,-0.00920285,-0.04724703,0.07564787,-0.24645996,-1.036087,9.765106,14.2074585,3.3721924,-35.14557,0.90928334,-0.24987185,9.761207,-1.003833,-0.74618447,0.25845242,0.3801422,-0.14579773,3.8957825
2019-07-01T19:43:59.168Z,0.008745895,-0.048454408,0.4888438,-0.94755554,-1.6582336,9.865616,2.0141602,-9.877014,-38.475037,0.9115916,-0.31516874,9.759102,-1.5908184,-0.82208085,0.3285389,0.40592957,-0.15368652,4.1888123
2019-07-01T19:43:59.369Z,0.026563823,-0.039024085,0.8444156,-0.933197,-1.8807526,9.970886,-18.408203,-9.934998,-36.743164,0.84836024,-0.368298,9.762941,-1.8162539,-0.91238976,0.3792324,0.4466095,-0.16841125,4.68544
2019-07-01T19:43:59.576Z,-0.0121718,-0.04297893,0.1831532,-1.0504456,-1.8376923,9.7986145,-28.987122,7.05719,-34.20868,0.7841196,-0.38883913,9.767515,-1.8685634,-1.6986787,0.44043732,0.47410583,-0.18844604,5.058197
2019-07-01T19:43:59.776Z,0.010203302,-0.0387289,0.64018536,-1.3304138,-1.3447723,10.72702,-20.075989,26.29242,-31.713867,0.71086204,-0.33275822,9.775189,-1.9237986,-1.2929895,0.40533638,0.46713257,-0.18405151,4.883255
2019-07-01T19:43:59.972Z,-0.042285476,0.0090205455,-0.9920493,0.2632141,-0.68196106,10.0785675,-0.47912598,29.194641,-31.323242,0.80185336,-0.27353734,9.769984,-0.80445254,-2.24427,0.40716934,0.40794373,-0.16668701,4.28508
2019-07-01T19:44:00.176Z,-0.04444017,-0.010627863,-0.8763288,-0.13160706,-0.928421,9.827316,13.372803,18.753052,-32.80945,0.86378354,-0.23530856,9.7657,-0.7706243,-0.6886193,0.42085743,0.3764801,-0.15068054,3.9150238
2019-07-01T19:44:00.368Z,-0.039910085,-0.027325705,-0.6432456,-0.59103394,-0.9451599,10.064209,14.915466,1.4648438,-36.77063,0.9130461,-0.25339165,9.760765,-1.1245553,-0.689464,0.43870068,0.38571167,-0.14756775,4.0266266
2019-07-01T19:44:00.583Z,-0.03097399,-0.03997877,-0.31069997,-0.45942688,-1.2849426,9.879959,1.7120361,-11.207581,-38.81073,0.9330033,-0.33299306,9.756485,-1.2303894,-0.8626745,0.4671793,0.4144745,-0.15966797,4.3363953
2019-07-01T19:44:00.781Z,-0.015973687,-0.046107214,0.09354859,-0.83509827,-1.5074768,9.894318,-18.362427,-10.810852,-36.2442,0.86995846,-0.3961453,9.75995,-1.452625,-0.85204804,0.5229759,0.44172668,-0.16957092,4.6416473
2019-07-01T19:44:00.987Z,0.004639518,-0.04460958,0.53394264,-0.73698425,-1.3232269,9.772293,-29.70581,5.332947,-34.23004,0.78732616,-0.39033747,9.767198,-1.5889097,-1.1080277,0.5454426,0.45352173,-0.17988586,4.7567444
2019-07-01T19:44:01.180Z,0.02765827,-0.03376338,0.88445854,-0.7010956,-0.84706116,9.099899,-23.461914,22.5708,-32.183838,0.78743774,-0.33368155,9.769288,-0.8316597,-1.3224168,0.50972366,0.43170166,-0.1947937,4.583252
2019-07-01T19:44:01.389Z,-0.040508647,0.014058434,-0.99904966,-0.43070984,-1.3543396,9.856033,-3.7994385,30.278015,-30.210876,0.7915963,-0.2816851,9.770589,-0.9959654,-0.8723686,0.46333408,0.437088,-0.15055847,4.3897247
2019-07-01T19:44:01.648Z,-0.04486161,-0.0068662516,-0.899211,-0.44267273,-1.3351898,9.489929,12.635803,20.23468,-32.77893,0.84980386,-0.26178938,9.7662525,-1.3356428,-1.0684748,0.5807409,0.42425537,-0.16223145,4.5045776
2019-07-01T19:44:01.800Z,-0.042503484,-0.02269822,-0.68971854,0.119644165,-1.2945099,9.789032,13.978577,1.979065,-36.024475,0.89660794,-0.29522365,9.761113,-1.087004,-1.1021266,0.4885378,0.4175415,-0.17012024,4.34404
2019-07-01T19:44:02.001Z,-0.035422225,-0.035425894,-0.4239174,0.5694885,-1.2370911,9.796219,1.9851685,-10.76355,-37.220764,0.92284966,-0.33372363,9.757425,-0.61396897,-0.88362694,0.45938206,0.38015747,-0.14982605,3.9249115
2019-07-01T19:44:02.208Z,-0.02519881,-0.044421356,-0.13093942,0.5312042,-0.8183441,9.789032,-13.412476,-13.316345,-37.332153,0.9273159,-0.3752452,9.755494,-0.25877875,-0.88925195,0.42568588,0.3387909,-0.13328552,3.5317535
2019-07-01T19:44:02.409Z,-0.013296689,-0.04875765,0.14677301,0.59580994,-1.0001984,10.195816,-26.010132,-5.5664062,-35.466003,0.9064293,-0.3979895,9.756556,-0.28105015,-0.4805942,0.3791914,0.3012848,-0.11592102,3.1106262
2019-07-01T19:44:02.616Z,-0.0061491495,-0.051961828,0.33459488,1.4931183,-0.9690857,9.707687,-30.166626,4.2160034,-35.26764,0.91856617,-0.45447835,9.752952,0.2732175,-1.0118622,0.3701048,0.22450256,-0.093811035,2.5292053
2019-07-01T19:44:02.816Z,-0.007004025,-0.053478923,0.3321104,1.2849426,-0.9643097,9.676575,-31.008911,6.6986084,-33.744812,0.94212174,-0.47771284,9.749594,0.3623386,-0.50855684,0.31988716,0.058410645,-0.0236969,0.5104523
2019-07-01T19:44:03.015Z,-0.015902538,-0.053872082,0.18257682,0.90927124,-1.1174469,9.743576,-29.79126,1.5350342,-34.16748,0.9802068,-0.49907023,9.744769,0.12567216,-0.556442,0.3161621,-0.0974884,0.0385437,-1.019455
2019-07-01T19:44:03.216Z,-0.032611527,-0.047744874,-0.15131122,0.19381714,-1.0695953,9.772293,-24.769592,-6.576538,-35.72235,1.0208493,-0.48947963,9.741081,-0.41971892,-0.7183415,0.35914803,-0.22601318,0.0896759,-2.4023438
2019-07-01T19:44:03.420Z,-0.057180427,-0.003447243,-0.8922486,0.04067993,-1.146164,9.887146,-11.790466,-12.988281,-37.561035,1.030937,-0.4419876,9.742289,-0.87116253,-0.58995414,0.39090347,-0.34646606,0.13684082,-3.5659943
2019-07-01T19:44:03.627Z,-0.05147199,0.01696949,-0.9971056,-0.38523865,-1.1581268,9.860825,8.361816,-8.36792,-37.74872,0.98886675,-0.385694,9.749039,-1.0211596,-0.7265934,0.4193716,-0.40266418,0.16078186,-4.1207275
2019-07-01T19:44:03.823Z,0.03586126,-0.03469786,0.93020797,-0.8446655,-1.2035828,10.023529,14.801025,9.385681,-34.474182,0.90173,-0.37728485,9.7578125,-1.4336867,-0.6871035,0.47094536,-0.42160034,0.169281,-4.4476013
2019-07-01T19:44:04.162Z,0.0123781795,-0.04628565,0.6682433,-1.1318054,-0.6771698,9.949356,6.690979,25.888062,-32.29065,0.836194,-0.42640367,9.761626,-1.5934755,-0.48800862,0.532547,-0.45129395,0.17459106,-4.6628113
2019-07-01T19:44:04.367Z,-0.014170957,-0.04611676,0.23303816,-1.2299042,-0.7776642,10.10968,-14.276123,26.76239,-33.36792,0.81374514,-0.4807375,9.760999,-2.074741,-0.17665216,0.61756516,-0.46168518,0.18356323,-4.877838
2019-07-01T19:44:04.483Z,-0.037020847,-0.037828796,-0.23036283,-0.33738708,-0.21296692,9.772293,-29.441833,13.072205,-33.569336,0.88819045,-0.5346092,9.751701,-1.4668646,-0.21665972,0.5800905,-0.4566803,0.16842651,-4.7362976
2019-07-01T19:44:04.688Z,-0.04679127,-0.029273048,-0.51476765,0.5312042,-1.5314026,9.241089,-28.69873,-2.3788452,-36.97357,0.9636255,-0.48961684,9.7469015,-0.87748027,1.0453777,0.5843506,-0.4149475,0.17367554,-4.0868225
2019-07-01T19:44:04.844Z,-0.05451322,-0.015250758,-0.7672234,0.30867004,-0.110076904,9.810577,-17.295837,-11.665344,-39.02893,1.0114026,-0.45358714,9.743804,-0.37762278,-0.2911416,0.40127945,-0.2704773,0.08302307,-2.9750366
2019-07-01T19:44:05.047Z,-0.05400844,0.0051613185,-0.94907075,-0.34457397,-0.4139557,9.76033,-0.21514893,-11.117554,-38.789368,0.97391766,-0.42483053,9.748918,-1.2252078,-0.43929508,0.5198736,-0.36186218,0.13946533,-3.6438751
2019-07-01T19:44:05.245Z,0.04539638,-0.025666235,0.99425244,-0.5264282,-0.5001068,9.812973,13.026428,0.6866455,-37.379456,0.93232405,-0.41725495,9.75331,-1.3599175,-0.4598334,0.5180235,-0.40963745,0.15687561,-4.2006226
2019-07-01T19:44:05.448Z,0.027412264,-0.04166531,0.84940225,-1.2035828,-1.2155609,10.064209,11.497498,19.862366,-32.05414,0.8860176,-0.4116565,9.757863,-1.483124,-0.25688627,0.5779152,-0.4449463,0.18107605,-4.5799866
2019-07-01T19:44:05.650Z,0.0017631393,-0.047809616,0.5013052,-1.552948,-0.3517456,10.025925,8.410645,24.456787,-30.690002,0.8274624,-0.44019997,9.761758,-2.0562491,-0.28619072,0.7027006,-0.4698639,0.18388367,-4.9458313
2019-07-01T19:44:05.854Z,-0.022595717,-0.044630334,0.05403319,-0.74894714,-0.5312042,9.533005,-16.737366,27.168274,-31.448364,0.8490255,-0.4892713,9.757568,-1.8378353,-0.11520088,0.6552496,-0.45446777,0.17129517,-4.7865753
2019-07-01T19:44:06.053Z,-0.04211324,-0.028468229,-0.39836964,-1.2251282,-0.63648987,10.325027,-29.838562,11.445618,-33.883667,0.8403961,-0.53401273,9.75597,-1.9382815,-0.3778916,0.6329155,-0.4283905,0.16189575,-4.474045
2019-07-01T19:44:06.285Z,-0.054858573,0.006791538,-0.94192845,-2.1343994,-0.7393799,10.17189,-25.660706,-6.324768,-37.9776,0.96935344,-0.48186162,9.74672,-1.7814622,-0.04921195,0.68458176,-0.42948914,0.15760803,-4.5084534
2019-07-01T19:44:06.459Z,0.049220666,-0.023840576,0.99668485,-0.095718384,-0.3254242,9.82254,-7.255554,-12.171936,-38.337708,0.9903449,-0.40789238,9.747986,-1.097425,-0.20497921,0.5938444,-0.40426636,0.15577698,-4.2422943
2019-07-01T19:44:06.656Z,0.03614131,-0.037096497,0.9142479,-0.055038452,-0.7154541,9.997208,8.216858,-6.112671,-38.191223,0.94043136,-0.3803545,9.754041,-1.0658052,-0.23606184,0.58161926,-0.37890625,0.14595032,-3.9321442
2019-07-01T19:44:06.866Z,0.021114955,-0.045632128,0.731671,0.22013855,-0.20578003,9.951752,14.071655,9.487915,-35.403442,0.9114294,-0.37331438,9.757065,-0.730315,-0.106371135,0.54191494,-0.34140015,0.13018799,-3.5759583
2019-07-01T19:44:07.076Z,0.0061597205,-0.048983805,0.4949792,0.42352295,-0.047851562,9.853638,9.893799,23.770142,-32.777405,0.89323753,-0.37073845,9.758845,-0.54476726,0.321003,0.5221081,-0.3119049,0.11845398,-3.2210388
2019-07-01T19:44:07.267Z,-0.008502955,-0.048692577,0.2484399,0.5288086,-0.5647125,9.779465,-3.5324097,29.13208,-30.83191,0.8824418,-0.39859742,9.75873,-0.33848566,-0.19541863,0.4549961,-0.27053833,0.10354614,-2.8083344
2019-07-01T19:44:07.471Z,-0.03217318,-0.03817728,-0.25197122,0.55274963,-0.55992126,9.7986145,-15.412903,26.237488,-31.689453,0.8826573,-0.4211773,9.757762,-0.3369521,-0.16072819,0.43678093,-0.24354553,0.096221924,-2.5793762
2019-07-01T19:44:07.676Z,-0.041556936,-0.029786646,-0.46580282,0.6316986,-0.5934143,9.784256,-24.6109,20.233154,-32.157898,0.89576226,-0.44791117,9.755377,-0.2735684,-0.12077057,0.408638,-0.22827148,0.08961487,-2.3919678
2019-07-01T19:44:07.876Z,-0.048164714,-0.020803653,-0.641356,0.67237854,-0.55513,9.774673,-28.778076,11.581421,-33.070374,0.91819334,-0.46140313,9.752662,-0.24236685,-0.12293297,0.39233685,-0.21470642,0.08332825,-2.2255554
2019-07-01T19:44:08.087Z,-0.05025394,-0.007973702,-0.7818307,0.7130585,-0.49531555,9.78186,-24.3927,-5.1605225,-36.50818,0.8677909,-0.4902201,9.755871,-0.15120065,-0.06768045,0.26067638,-0.19973755,0.07722473,-2.073883
2019-07-01T19:44:08.276Z,-0.05119611,0.0026979966,-0.8803059,0.7657013,-0.5742798,9.777069,-18.624878,-11.112976,-37.202454,0.8589799,-0.5201564,9.7551,-0.101694465,-0.028852165,0.1731062,-0.18667603,0.07196045,-1.9337463
2019-07-01T19:44:08.496Z,-0.050795782,0.01130884,-0.94570166,0.80158997,-0.5120697,9.765106,-9.40094,-13.334656,-38.48419,0.8710128,-0.5294074,9.753535,-0.07988775,0.00067412853,0.11808491,-0.17274475,0.06726074,-1.8081512
2019-07-01T19:44:08.689Z,-0.049358066,0.018270481,-0.98316556,0.8374939,-0.47138977,9.767502,-3.8665771,-11.946106,-38.128662,0.88907707,-0.5216985,9.75232,-0.0644899,0.029222727,0.081585884,-0.15905762,0.06213379,-1.6732178
2019-07-01T19:44:08.892Z,-0.0477498,0.024244567,-0.9979247,1.0289154,-0.5288086,9.652649,3.2165527,-10.093689,-37.815857,0.91758543,-0.5080149,9.750402,-0.030853152,0.029983878,0.05131054,-0.14530945,0.05670166,-1.5305786
2019-07-01T19:44:09.097Z,0.04426395,-0.028981922,0.9941741,0.94277954,-0.5024872,9.765106,8.702087,-6.1584473,-37.765503,0.91648406,-0.48359296,9.751747,-0.07226169,0.033314705,0.043039322,-0.13076782,0.054870605,-1.4106598
2019-07-01T19:44:09.298Z,0.04151359,-0.03363971,0.9748675,0.8757782,-0.37806702,9.779465,12.026978,-2.0080566,-36.83014,0.93645555,-0.46710214,9.750654,-0.023047268,0.032417953,0.0240736,-0.12753296,0.048812866,-1.3401031
2019-07-01T19:44:09.506Z,0.038505174,-0.035455626,0.9472094,0.83509827,-0.37327576,9.78186,13.885498,1.9104004,-37.316895,0.9353107,-0.4198065,9.752914,-0.033503532,0.10364935,0.020601273,-0.11280823,0.04185486,-1.1675415
2019-07-01T19:44:09.711Z,0.03716241,-0.035001364,0.92573327,0.9571228,-0.27757263,9.777069,14.804077,4.296875,-36.338806,0.9319855,-0.36238694,9.755535,-0.017902493,0.106973976,0.014492989,-0.07621765,0.031341553,-0.7969818
2019-07-01T19:44:09.909Z,0.03705263,-0.034559358,0.9195192,0.9690857,-0.49771118,9.786652,15.159607,5.0476074,-36.201477,0.93242913,-0.34001908,9.756298,0.0019261241,0.038148314,0.012618065,-0.035964966,0.015213013,-0.3496399
2019-07-01T19:44:10.117Z,0.038524564,-0.036685254,0.9206621,1.1126556,-0.2368927,9.745972,14.628601,5.7388306,-35.96344,0.97389805,-0.37023157,9.751145,0.06689298,-0.0705497,-0.0036115646,0.0070343018,-0.0032958984,-0.0017547607
2019-07-01T19:44:10.317Z,0.03926874,-0.03670546,0.9196106,1.1006927,-0.4785614,9.734009,13.696289,6.326294,-34.82361,0.9884196,-0.362333,9.749981,0.030342042,0.02085796,-0.001906395,-0.0021972656,-0.002746582,0.023101807
2019-07-01T19:44:10.517Z,0.039580442,-0.038126014,0.9200719,1.0217285,-0.33259583,9.74118,15.344238,5.567932,-35.95276,1.004299,-0.3868996,9.747414,0.034647107,-0.05190149,-0.002661705,0.002029419,0.0008544922,0.00093078613
2019-07-01T19:44:10.720Z,0.039840918,-0.038408224,0.91974896,1.0337067,-0.46180725,9.757935,15.24353,5.1239014,-35.887146,1.0114295,-0.389212,9.746585,0.014829397,-0.0031541288,-0.0016212463,-0.00048828125,0.00038146973,0.0006866455
2019-07-01T19:44:10.925Z,0.040010538,-0.03883413,0.91970426,1.0241241,-0.39959717,9.762711,14.599609,5.2352905,-36.897278,1.0177354,-0.39553195,9.745673,0.013278842,-0.012616128,-0.0015802383,-6.1035156e-05,1.5258789e-05,-0.000289917
2019-07-01T19:44:11.116Z,0.040134,-0.03912464,0.91969067,1.0241241,-0.39482117,9.757935,14.976501,4.524231,-35.998535,1.0221587,-0.39982864,9.745036,0.009244204,-0.0087668,0.0005350113,0.0,0.00012207031,-0.0004119873
2019-07-01T19:44:11.327Z,0.04019324,-0.039262883,0.91968334,1.0337067,-0.40438843,9.753143,15.531921,4.4189453,-36.497498,1.024273,-0.40186715,9.744729,0.0046720505,-0.0038342178,0.0005121231,-6.1035156e-05,0.00018310547,1.5258789e-05
2019-07-01T19:44:11.527Z,0.039850198,-0.03974885,0.91557825,1.0241241,-0.41156006,9.743576,14.8376465,4.7973633,-34.95636,1.0260351,-0.4025743,9.744515,0.0039032698,-0.0012170076,-0.0011062622,-0.00012207031,7.6293945e-05,3.0517578e-05
2019-07-01T19:44:11.730Z,0.039891083,-0.039816596,0.9155414,1.031311,-0.41635132,9.750748,15.142822,4.6829224,-36.125183,1.0273272,-0.403385,9.744346,0.0035487413,-0.0013639927,-0.00028896332,0.0,0.00012207031,-0.00010681152
2019-07-01T19:44:11.933Z,0.039917253,-0.039889693,0.91555494,1.0289154,-0.4091797,9.765106,14.352417,5.2215576,-37.191772,1.0283465,-0.40453583,9.74419,0.0034703016,-0.0023559928,-8.9645386e-05,0.0,0.00024414062,1.5258789e-05
2019-07-01T19:44:12.131Z,0.03994335,-0.039989155,0.91560143,1.0217285,-0.41156006,9.743576,14.839172,5.253601,-37.20398,1.0295346,-0.40624812,9.743993,0.002490878,-0.0030241907,0.00026988983,-6.1035156e-05,0.0002593994,-9.1552734e-05
2019-07-01T19:44:12.343Z,0.039923184,-0.039973963,0.91564226,1.031311,-0.40438843,9.755539,15.464783,4.7805786,-36.569214,1.0290151,-0.4062356,9.744049,-0.0006734133,0.00026273727,-0.0027103424,-0.00012207031,0.00012207031,-0.00021362305
2019-07-01T19:44:12.549Z,0.039934844,-0.040008474,0.91565067,1.0432739,-0.40678406,9.757935,14.51416,5.079651,-36.5448,1.0294816,-0.4067896,9.743977,0.0014609098,-0.0010962784,0.0002412796,-0.00012207031,0.00018310547,-0.00010681152
2019-07-01T19:44:12.748Z,0.039969698,-0.040011592,0.9155513,1.0384827,-0.40678406,9.745972,15.87677,6.6223145,-35.68268,1.0302303,-0.40631947,9.7439165,0.002321601,0.00038287044,0.001086235,0.00012207031,0.00012207031,-3.0517578e-05
2019-07-01T19:44:12.949Z,0.03998017,-0.04000339,0.91551006,1.0289154,-0.40678406,9.74118,14.619446,5.519104,-35.705566,1.0305531,-0.40556315,9.743915,0.0011136532,0.00078591704,0.00037765503,6.1035156e-05,0.00024414062,-0.00021362305
2019-07-01T19:44:13.145Z,0.040013343,-0.039960388,0.9153581,1.0337067,-0.40678406,9.743576,13.690186,6.1782837,-34.777832,1.0308111,-0.40455878,9.743929,0.0008840561,0.0019210875,-0.0005578995,-0.00012207031,0.00032043457,-9.1552734e-05
2019-07-01T19:44:13.350Z,0.03998095,-0.03995266,0.91544455,1.0337067,-0.40678406,9.753143,15.155029,4.824829,-35.7193,1.0300845,-0.4048936,9.743992,-0.0011755228,-0.001834929,-0.0015230179,0.00024414062,0.0,-0.00021362305
2019-07-01T19:44:13.551Z,0.039981704,-0.039980974,0.91547763,1.0241241,-0.40438843,9.755539,14.715576,5.8151245,-35.499573,1.0302835,-0.40548387,9.743947,0.001210928,-0.00074991584,0.00087833405,0.00018310547,0.00024414062,-9.1552734e-05
2019-07-01T19:44:13.755Z,0.039999813,-0.039976824,0.91541874,1.0337067,-0.40438843,9.757935,14.990234,4.815674,-36.01532,1.0306349,-0.40511677,9.743925,0.0014396906,0.0006149411,0.002491951,-0.00024414062,6.1035156e-05,1.5258789e-05
2019-07-01T19:44:13.959Z,0.039983213,-0.039966736,0.9154554,1.0408783,-0.40438843,9.748352,14.86969,5.680847,-35.83374,1.0302228,-0.40515795,9.743966,6.3061714e-05,0.00021135807,0.0021209717,6.1035156e-05,0.00024414062,-9.1552734e-05
2019-07-01T19:44:14.158Z,0.03999498,-0.039955687,0.9154067,1.0265198,-0.4019928,9.765106,14.785767,5.7540894,-36.49597,1.030397,-0.40474176,9.743964,0.00083339214,0.0014797449,0.00028800964,-0.00012207031,0.00012207031,-0.00015258789
2019-07-01T19:44:14.359Z,0.039992236,-0.039944623,0.91540104,1.0217285,-0.40438843,9.748352,16.525269,6.587219,-34.88922,1.0302682,-0.40454894,9.743987,0.00022673607,0.00010380149,0.00033473969,-0.00012207031,0.00018310547,-0.00015258789
2019-07-01T19:44:14.568Z,0.03994652,-0.03996145,0.91555756,1.0337067,-0.41156006,9.753143,15.805054,5.088806,-36.143494,1.0294219,-0.40561053,9.744032,-0.0012042522,-0.0017637312,-0.002199173,0.0,0.0,7.6293945e-05
2019-07-01T19:44:14.779Z,0.03995793,-0.04000831,0.91558206,1.031311,-0.4019928,9.755539,14.352417,4.99115,-35.87799,1.0299633,-0.40643087,9.743941,0.0013906956,-0.0016692579,-0.0006761551,-4.5776367e-05,0.00015258789,4.5776367e-05
2019-07-01T19:44:14.977Z,0.039972313,-0.04004897,0.91559005,1.036087,-0.40438843,9.750748,13.258362,5.570984,-35.035706,1.0305265,-0.4070738,9.7438545,0.0011211634,-0.0008074343,-0.001405716,-4.5776367e-05,3.0517578e-05,-3.0517578e-05
2019-07-01T19:44:15.167Z,0.039981864,-0.04003365,0.9155427,1.0337067,-0.4019928,9.76033,13.6276245,4.942322,-35.932922,1.0306271,-0.406601,9.743863,-0.00062930584,0.0013478696,-0.00042629242,-4.5776367e-05,-9.1552734e-05,4.5776367e-05
2019-07-01T19:44:15.382Z,0.040003438,-0.040055845,0.9155065,1.031311,-0.40438843,9.750748,14.260864,6.439209,-35.351562,1.0312215,-0.40674067,9.743794,0.0013719797,-0.0006619394,0.0006637573,1.5258789e-05,-7.6293945e-05,-3.0517578e-05
2019-07-01T19:44:15.585Z,0.04000523,-0.03998308,0.9154105,1.036087,-0.40678406,9.762711,13.687134,6.0302734,-34.506226,1.0307884,-0.40516618,9.743906,-0.000400424,0.0035361946,0.0012292862,-0.00010681152,9.1552734e-05,-0.00019836426
2019-07-01T19:44:15.847Z,0.040008876,-0.039992105,0.91541094,1.0289154,-0.40678406,9.755539,13.508606,6.033325,-36.462402,1.030923,-0.4053019,9.743886,0.0011211634,0.00032386184,0.00032138824,-0.00010681152,0.00015258789,4.5776367e-05
2019-07-01T19:44:16.043Z,0.039989825,-0.03996476,0.91543335,1.0193481,-0.40678406,9.757935,13.496399,5.3604126,-34.257507,1.0303482,-0.40501413,9.743959,-0.0004862547,0.0005363822,0.00067043304,-0.00016784668,0.00021362305,0.00010681152
2019-07-01T19:44:16.245Z,0.039970607,-0.039917924,0.9154319,1.0289154,-0.40438843,9.750748,13.647461,5.381775,-35.694885,1.0296437,-0.40431446,9.744062,-0.001548171,0.0019264817,-0.002737999,7.6293945e-05,3.0517578e-05,4.5776367e-05
2019-07-01T19:44:16.448Z,0.039990824,-0.03994286,0.91540307,1.0241241,-0.4019928,9.745972,14.468384,5.6518555,-35.220337,1.0302273,-0.40453318,9.743992,0.0010029078,-0.0002590716,-0.00054740906,-0.00010681152,4.5776367e-05,4.5776367e-05
2019-07-01T19:44:16.644Z,0.039987296,-0.039935768,0.9154047,1.0337067,-0.39720154,9.74118,14.335632,6.1447144,-34.432983,1.0301077,-0.4044368,9.744009,-0.0005005598,9.5784664e-05,-0.0010023117,1.5258789e-05,-3.0517578e-05,-0.00032043457
2019-07-01T19:44:16.849Z,0.040007014,-0.039934516,0.9153446,1.031311,-0.39720154,9.743576,15.260315,5.5664062,-36.3266,1.0305113,-0.40410632,9.7439785,0.0007394552,0.0009840727,0.0006227493,-0.00010681152,-0.00015258789,-0.0001373291
2019-07-01T19:44:17.057Z,0.040018573,-0.03997524,0.91536117,1.0289154,-0.40678406,9.748352,14.952087,5.6869507,-35.458374,1.0310165,-0.40479392,9.743897,0.000762105,-0.00074511766,-0.0011692047,-4.5776367e-05,9.1552734e-05,-0.00015258789
2019-07-01T19:44:17.253Z,0.04003024,-0.03998383,0.91533726,1.0265198,-0.4019928,9.745972,14.697266,5.606079,-36.74774,1.0313158,-0.40479678,9.743866,0.00023317337,0.0006862879,-0.00028038025,-0.00022888184,-3.0517578e-05,-1.5258789e-05
2019-07-01T19:44:17.460Z,0.04005757,-0.03996524,0.91523296,1.036087,-0.39959717,9.762711,15.736389,5.380249,-36.53412,1.0317659,-0.40398017,9.743852,0.00028192997,0.0017874241,-0.00016403198,-0.00016784668,-0.00019836426,4.5776367e-05
2019-07-01T19:44:17.663Z,0.040044066,-0.039974656,0.9152848,1.0289154,-0.40438843,9.753143,14.616394,5.522156,-36.158752,1.0315449,-0.4043886,9.743857,-0.00070393085,-0.00019288063,0.00038814545,-0.00016784668,-0.00015258789,4.5776367e-05
2019-07-01T19:44:17.879Z,0.040052712,-0.039960664,0.91524166,1.0337067,-0.4019928,9.755539,15.148926,4.676819,-35.446167,1.0316348,-0.40395778,9.743866,0.000192523,-0.0013722181,-0.00067329407,-4.5776367e-05,-3.0517578e-05,-7.6293945e-05
2019-07-01T19:44:18.075Z,0.040020525,-0.039975297,0.91535544,1.031311,-0.41156006,9.765106,14.1922,4.9057007,-35.510254,1.0310575,-0.40476504,9.743894,-0.0007150173,-0.001978755,0.0009689331,7.6293945e-05,-3.0517578e-05,-0.0001373291
2019-07-01T19:44:18.330Z,0.039978147,-0.039928712,0.915423,1.0289154,-0.4019928,9.762711,15.09552,5.484009,-36.486816,1.029871,-0.40442768,9.744034,-0.002171874,0.00080418587,0.0006418228,7.6293945e-05,0.00010681152,-0.0001373291
2019-07-01T19:44:18.519Z,0.039972607,-0.039940655,0.9154543,1.036087,-0.40438843,9.748352,15.202332,5.996704,-36.009216,1.0298326,-0.4047669,9.744024,0.00019693375,-2.0951033e-05,0.0012254715,-0.00022888184,-3.0517578e-05,0.00021362305
2019-07-01T19:44:18.726Z,0.039985035,-0.039957,0.9154379,1.0241241,-0.4091797,9.762711,14.332581,6.300354,-35.610962,1.0301979,-0.4049229,9.7439785,0.00097191334,-0.0010507405,0.0008020401,0.00019836426,3.0517578e-05,4.5776367e-05
2019-07-01T19:44:18.930Z,0.039969802,-0.039948642,0.9154726,1.0337067,-0.4091797,9.743576,13.861084,6.4834595,-35.10132,1.0298256,-0.40497988,9.744016,-0.0006021261,0.00022122264,0.00053596497,-0.00010681152,0.00015258789,-1.5258789e-05
2019-07-01T19:44:19.129Z,0.03998788,-0.039980356,0.91545856,1.031311,-0.40438843,9.748352,14.451599,5.3604126,-35.658264,1.0304084,-0.40537554,9.7439375,0.0014768839,-0.0003530085,-0.0006055832,-4.5776367e-05,-3.0517578e-05,4.5776367e-05
2019-07-01T19:44:19.331Z,0.040007345,-0.039996102,0.9154205,1.0265198,-0.39720154,9.765106,13.748169,5.7495117,-35.32257,1.0309169,-0.40541044,9.743882,0.00078237057,0.0003760755,-0.0011873245,-0.00016784668,3.0517578e-05,-3.0517578e-05
2019-07-01T19:44:19.537Z,0.04001492,-0.039984062,0.915383,1.0265198,-0.40678406,9.74118,15.386963,6.4422607,-35.47516,1.0309972,-0.40503782,9.743889,-0.00022506714,0.0009570718,-0.00029850006,1.5258789e-05,-9.1552734e-05,4.5776367e-05
2019-07-01T19:44:19.742Z,0.040024575,-0.039964158,0.9153295,1.0289154,-0.4019928,9.753143,14.816284,4.664612,-36.793518,1.03107,-0.40446588,9.743905,0.000674963,0.0013354123,-0.00053310394,-0.00010681152,9.1552734e-05,-1.5258789e-05
2019-07-01T19:44:19.946Z,0.03992149,-0.04109796,0.9170254,1.0384827,-0.275177,9.731613,14.701843,5.445862,-34.968567,1.0361716,-0.4301429,9.742264,0.023681998,-0.047305018,-0.011330605,0.00032043457,3.0517578e-05,0.00016784668
2019-07-01T19:44:20.143Z,0.0383833,-0.04621698,0.90322673,1.2514496,-0.71784973,9.683746,14.752197,6.768799,-35.98633,1.0651624,-0.49884254,9.73586,0.06402767,-0.14858407,0.00026226044,-0.018112183,0.013961792,-0.11212158
2019-07-01T19:44:20.347Z,0.033958446,-0.05040371,0.84235007,0.9260254,-0.76091003,9.722046,14.831543,10.269165,-35.427856,1.0904157,-0.47607493,9.734204,-0.06678915,-0.26971734,-0.0041122437,-0.08317566,0.032226562,-0.8886566
2019-07-01T19:44:20.548Z,0.025780722,-0.05444259,0.7215353,0.6316986,-0.83270264,9.793823,13.821411,18.057251,-33.270264,1.1013573,-0.42168477,9.73548,-0.27532554,-0.40578154,0.009066582,-0.16142273,0.06436157,-1.7015381
2019-07-01T19:44:20.748Z,0.013052887,-0.05634775,0.5152751,0.42352295,-1.0671997,9.8033905,7.8536987,25.175476,-33.918762,1.0769103,-0.35055733,9.7410345,-0.494707,-0.5562608,0.03268814,-0.22348022,0.09136963,-2.391159
2019-07-01T19:44:20.958Z,-0.0022395207,-0.054026347,0.22808887,0.55752563,-0.7082825,9.662216,-4.7195435,29.562378,-30.621338,1.0200924,-0.2843915,9.749304,-0.7166718,-0.4103465,0.06152439,-0.28622437,0.1071167,-3.0249329
2019-07-01T19:44:21.157Z,-0.01674114,-0.046375178,-0.07035929,0.38046265,-0.68673706,9.810577,-18.547058,26.31836,-31.547546,0.9293096,-0.2631382,9.758972,-0.54468274,-0.34651795,0.03913212,-0.28952026,0.113601685,-3.0410614
2019-07-01T19:44:21.360Z,-0.028827773,-0.036019776,-0.33832428,0.47138977,-0.5766754,9.796219,-27.661133,16.75415,-32.43866,0.8552978,-0.2924108,9.764904,-0.42388678,-0.32373366,0.035206795,-0.2662506,0.10443115,-2.8129578
2019-07-01T19:44:21.561Z,-0.03843152,-0.02412339,-0.5625774,0.5383911,-0.5790558,9.808182,-29.701233,5.329895,-33.70056,0.81462914,-0.35605767,9.766268,-0.29967803,-0.24837905,0.029859543,-0.2501831,0.09741211,-2.6038513
2019-07-01T19:44:21.763Z,-0.044118736,-0.0077585285,-0.7438957,0.63409424,-0.63648987,9.78186,-26.255798,-3.8345337,-35.331726,0.7451694,-0.46378618,9.767292,-0.15952462,-0.101896346,0.01925373,-0.23271179,0.09031677,-2.4193726
2019-07-01T19:44:21.970Z,-0.04740272,0.0052231145,-0.86621857,0.6915283,-0.5934143,9.78186,-20.487976,-9.559631,-37.261963,0.7543907,-0.5511676,9.762044,-0.09842187,-0.026491463,0.013985634,-0.21633911,0.0834198,-2.24411
2019-07-01T19:44:22.172Z,-0.048250724,0.015107079,-0.9435557,0.73220825,-0.5383911,9.772293,-11.628723,-12.826538,-38.28888,0.7959512,-0.5893479,9.756512,-0.089612305,0.03236878,0.012227058,-0.20283508,0.07817078,-2.0879211
2019-07-01T19:44:22.373Z,-0.04727784,0.022325408,-0.9850716,0.76330566,-0.46899414,9.76033,-3.1585693,-12.261963,-38.523865,0.8416144,-0.5834235,9.753035,-0.08446151,0.07460946,0.014944077,-0.18426514,0.07217407,-1.9383698
2019-07-01T19:44:22.577Z,-0.045078028,0.026701333,-0.9984284,0.88534546,-0.33499146,9.76033,3.691101,-10.203552,-38.23242,0.87232155,-0.54046595,9.752811,-0.080127776,0.119188726,0.005959511,-0.16490173,0.06594849,-1.743393
2019-07-01T19:44:22.842Z,0.04134961,-0.03178364,0.9772496,0.9140625,-0.279953,9.767502,7.814026,-6.1401367,-38.027954,0.9207066,-0.4424739,9.753302,-0.011754632,0.1103777,0.004890442,-0.107055664,0.041885376,-1.1296539
2019-07-01T19:44:23.036Z,0.040347528,-0.031399168,0.96307415,1.0456696,-0.021530151,9.734009,11.448669,-2.3361206,-37.023926,0.9249169,-0.3839179,9.755384,-0.006706536,0.10660598,0.006453514,-0.077804565,0.030822754,-0.78297424
2019-07-01T19:44:23.248Z,0.04082655,-0.031284504,0.957152,1.0624084,-0.37806702,9.743576,12.521362,-1.6052246,-37.524414,0.9412957,-0.359104,9.754763,0.03040868,0.04903716,0.0010299683,-0.026184082,0.010910034,-0.31114197
2019-07-01T19:44:23.438Z,0.027231576,-0.04578849,0.78174245,1.1581268,-0.14356995,9.743576,13.330078,0.19378662,-36.964417,0.9755158,-0.37020573,9.750985,0.060504436,-0.016027719,-0.010806084,-0.0034637451,-1.5258789e-05,-0.0345459
2019-07-01T19:44:23.644Z,0.027690336,-0.046965424,0.7865988,1.105484,-0.3517456,9.736389,13.482666,-0.015258789,-36.93695,0.9937548,-0.3905387,9.748349,0.037719905,-0.037223905,-0.0009584427,0.0017242432,-0.0024719238,0.01713562
2019-07-01T19:44:23.871Z,0.028101863,-0.047583517,0.7868281,1.0528412,-0.43070984,9.734009,12.060547,0.46691895,-36.10077,1.0073508,-0.39552233,9.746753,0.027747035,-0.008567601,-0.0038347244,-0.0005950928,9.1552734e-05,0.001449585
2019-07-01T19:44:24.051Z,0.028368155,-0.048088755,0.78772193,1.0432739,-0.4283142,9.743576,12.432861,-0.08544922,-36.83319,1.0169194,-0.4016182,9.74551,0.019901633,-0.011108816,-0.0035276413,-0.00022888184,0.0002746582,-3.0517578e-05
2019-07-01T19:44:24.248Z,0.028536787,-0.048400797,0.7884904,1.031311,-0.4139557,9.745972,12.719727,0.8041382,-36.05957,1.022741,-0.4057108,9.744732,0.011957765,-0.008222818,-0.002530098,-0.00016784668,0.00010681152,-0.00015258789
2019-07-01T19:44:24.454Z,0.028674735,-0.048653364,0.78908765,1.0337067,-0.41635132,9.743576,14.729309,0.8682251,-36.732483,1.0274843,-0.40897718,9.744095,0.009554267,-0.0058946013,-0.0002412796,-0.00010681152,4.5776367e-05,0.00015258789
2019-07-01T19:44:24.652Z,0.028773975,-0.04880165,0.7892432,1.031311,-0.4139557,9.753143,12.802124,0.95977783,-36.787415,1.0306792,-0.41035312,9.743701,0.0064173937,-0.0016730726,-0.0019006729,-0.00022888184,4.5776367e-05,-9.1552734e-05
2019-07-01T19:44:24.854Z,0.028825313,-0.04889286,0.78943974,1.0289154,-0.41156006,9.745972,13.494873,0.3540039,-37.46643,1.0324262,-0.4114867,9.743468,0.0034383535,-0.0017126799,0.00034332275,-0.00022888184,-3.0517578e-05,-0.00019836426
2019-07-01T19:44:25.059Z,0.028843397,-0.048958458,0.7897773,1.0384827,-0.41156006,9.753143,13.818359,0.22277832,-36.523438,1.0332588,-0.41285995,9.743321,0.0020887852,-0.0022345781,0.00022411346,-0.00022888184,-1.5258789e-05,-0.00019836426
2019-07-01T19:44:25.259Z,0.028887192,-0.048980996,0.78950065,1.0432739,-0.4091797,9.753143,14.268494,-0.5508423,-36.39984,1.0343902,-0.41221827,9.743229,0.0026243925,0.001186341,-2.670288e-05,1.5258789e-05,0.00021362305,-0.0001373291
2019-07-01T19:44:25.475Z,0.028925844,-0.049032062,0.7895066,1.0456696,-0.4139557,9.745972,14.099121,-0.55236816,-37.29706,1.035591,-0.4125592,9.743086,0.0020354986,-0.00033822656,0.0017585754,1.5258789e-05,-0.00015258789,-1.5258789e-05
2019-07-01T19:44:25.671Z,0.028957356,-0.049062975,0.7894257,1.031311,-0.41635132,9.743576,13.500977,-1.322937,-37.35504,1.0365003,-0.41252518,9.742991,0.001879096,-0.0001579225,-0.0009012222,-4.5776367e-05,3.0517578e-05,0.00015258789
2019-07-01T19:44:25.875Z,0.02895074,-0.049060956,0.7894784,1.0408783,-0.41156006,9.750748,12.944031,0.4547119,-36.366272,1.0363384,-0.41266248,9.743002,-6.1035156e-05,-2.4944544e-05,-0.0009365082,-4.5776367e-05,9.1552734e-05,-1.5258789e-05
2019-07-01T19:44:26.073Z,0.028930653,-0.04904863,0.78958905,1.0337067,-0.41874695,9.76033,13.531494,-0.66833496,-37.071228,1.0358069,-0.41289875,9.74305,-0.00040400028,-0.00021389127,0.0030412674,1.5258789e-05,9.1552734e-05,4.5776367e-05
2019-07-01T19:44:26.275Z,0.028943568,-0.049057275,0.78952366,1.0408783,-0.41156006,9.753143,13.447571,-0.89416504,-36.51123,1.0361534,-0.41276783,9.743018,0.0011276007,0.00038978457,0.0007352829,-0.00016784668,3.0517578e-05,-1.5258789e-05
2019-07-01T19:44:26.479Z,0.028948393,-0.04909978,0.78981316,1.031311,-0.4139557,9.76033,13.040161,-0.76904297,-37.675476,1.036538,-0.41386148,9.74293,0.00070858,-0.0013704896,0.0005168915,-0.00010681152,3.0517578e-05,-3.0517578e-05
2019-07-01T19:44:26.675Z,0.028920328,-0.04904924,0.7897015,1.0337067,-0.4139557,9.755539,12.611389,0.44250488,-37.48932,1.0355786,-0.4132223,9.743059,-0.0013998747,0.001084894,-0.0006465912,-0.00010681152,3.0517578e-05,-1.5258789e-05
2019-07-01T19:44:26.877Z,0.028925978,-0.04906811,0.78979355,1.0432739,-0.41156006,9.745972,13.786316,-0.2822876,-37.382507,1.0358282,-0.413604,9.743017,0.0006953478,-0.0011526644,0.0008420944,0.0001373291,0.00015258789,-3.0517578e-05
2019-07-01T19:44:27.079Z,0.028940013,-0.04909632,0.78987277,1.0432739,-0.42114258,9.753143,13.581848,0.579834,-37.576294,1.036327,-0.414009,9.742947,0.0014569759,-0.00077548623,-0.0015354156,-4.5776367e-05,9.1552734e-05,-7.6293945e-05
2019-07-01T19:44:27.303Z,0.028950283,-0.049109828,0.7898737,1.036087,-0.4139557,9.762711,12.960815,-0.84991455,-36.9339,1.0366458,-0.41409776,9.742909,0.000992775,-0.00023791194,-0.0020017624,7.6293945e-05,0.00015258789,3.0517578e-05
2019-07-01T19:44:27.482Z,0.025017511,-0.051230848,0.739019,1.036087,-0.4091797,9.76033,13.682556,-0.9490967,-36.98578,1.0371128,-0.41319573,9.742898,0.00072956085,0.0014997423,0.000746727,1.5258789e-05,9.1552734e-05,-1.5258789e-05
2019-07-01T19:44:27.689Z,0.02496795,-0.05126905,0.73913527,1.036087,-0.40438843,9.76033,13.07373,-0.19073486,-36.653137,1.0368245,-0.4145821,9.742869,0.00089359283,-0.001219362,-0.0002527237,-0.000289917,0.00021362305,-3.0517578e-05
2019-07-01T19:44:27.899Z,0.024983663,-0.05125708,0.73909855,1.0384827,-0.40678406,9.748352,13.554382,-0.077819824,-37.48169,1.0369177,-0.41414487,9.742878,0.0003119707,0.0012178719,0.0003118515,-4.5776367e-05,3.0517578e-05,9.1552734e-05
2019-07-01T19:44:28.105Z,0.024997035,-0.0512391,0.7390579,1.0384827,-0.41156006,9.750748,13.212585,-0.4638672,-37.773132,1.0369008,-0.41364494,9.742901,-7.2717667e-06,0.0012272894,0.0018043518,-0.00010681152,-3.0517578e-05,-0.0002593994
2019-07-01T19:44:28.305Z,0.024982864,-0.051251747,0.73909324,1.036087,-0.41635132,9.743576,12.997437,-1.7181396,-37.716675,1.0368396,-0.41406962,9.742889,0.00074493885,-0.00096166134,0.00037956238,7.6293945e-05,0.00015258789,-0.0002593994
2019-07-01T19:44:28.507Z,0.02497066,-0.0512581,0.73911816,1.0408783,-0.41635132,9.753143,12.588501,-0.06866455,-37.591553,1.0367309,-0.41436088,9.742888,0.00044047832,-0.00046524405,-0.0012083054,-0.00016784668,0.00015258789,-7.6293945e-05
2019-07-01T19:44:28.705Z,0.025015922,-0.051278286,0.7390787,1.036087,-0.41635132,9.757935,13.07373,-0.19073486,-36.653137,1.0376738,-0.41399834,9.742804,0.0027934313,0.0011124909,0.0006055832,1.5258789e-05,0.00021362305,-7.6293945e-05
2019-07-01T19:44:28.912Z,0.025015654,-0.051301017,0.73910666,1.0408783,-0.41635132,9.748352,12.600708,0.07171631,-36.808777,1.0379503,-0.41437545,9.742759,0.00073480606,-0.0001410842,0.002175331,-0.00018310547,0.00010681152,-4.5776367e-05
2019-07-01T19:44:29.117Z,0.025030129,-0.05129979,0.7390848,1.036087,-0.41635132,9.748352,13.220215,-0.39367676,-37.22992,1.038157,-0.41413346,9.742746,0.0003837347,0.00078222156,-0.0019102097,-0.00012207031,0.00010681152,7.6293945e-05
2019-07-01T19:44:29.316Z,0.025007885,-0.051287506,0.73910123,1.036087,-0.41156006,9.753143,13.771057,-0.7247925,-36.943054,1.0376644,-0.41427284,9.742793,-0.0009661913,0.00040772557,-0.0011072159,0.0,-1.5258789e-05,-0.00012207031
2019-07-01T19:44:29.520Z,0.025013166,-0.051275562,0.7390793,1.0408783,-0.41635132,9.755539,12.93335,0.31433105,-36.997986,1.037598,-0.41399595,9.742812,0.00013685226,0.0005827844,-0.0017108917,-0.00024414062,0.00010681152,-0.00016784668
2019-07-01T19:44:29.725Z,0.025015082,-0.05127768,0.7390792,1.0337067,-0.4139557,9.748352,13.388062,-0.46539307,-36.117554,1.0376534,-0.41400123,9.7428055,0.00030004978,0.000109910965,0.0004529953,0.0,0.00010681152,-0.00016784668
2019-07-01T19:44:29.921Z,0.02502769,-0.051291708,0.7390784,1.0384827,-0.4139557,9.757935,12.80365,-0.71258545,-37.353516,1.0380199,-0.4140382,9.742765,0.00065624714,0.00014469028,-0.0001707077,-6.1035156e-05,-1.5258789e-05,-0.00022888184
2019-07-01T19:44:30.124Z,0.025014846,-0.05125461,0.7390515,1.036087,-0.41874695,9.745972,13.412476,0.4257202,-37.976074,1.0373652,-0.41362646,9.742852,-0.0010027885,0.00066143274,-0.0014152527,0.0,4.5776367e-05,7.6293945e-05
2019-07-01T19:44:30.328Z,0.023720762,-0.05339427,0.73470247,0.8063812,-0.39242554,9.7986145,11.880493,-1.651001,-36.901855,1.0496101,-0.45496532,9.739697,0.055156708,-0.08551052,-0.009231567,-0.0028686523,0.0051879883,0.0041046143
2019-07-01T19:44:30.534Z,0.019546071,-0.057422534,0.6922316,1.1772614,-0.90927124,9.705292,14.724731,2.545166,-36.69281,1.0752834,-0.50393796,9.734485,0.014369845,-0.13663071,-0.003312111,-0.03315735,0.015380859,-0.39578247
2019-07-01T19:44:30.735Z,0.010535113,-0.060358625,0.5986271,0.9571228,-0.9690857,9.765106,14.302063,7.3898315,-35.31189,1.0691974,-0.54364365,9.733019,-0.06434226,-0.15521634,0.0010557175,-0.095581055,0.037017822,-1.0095825
2019-07-01T19:44:30.940Z,0.0017445168,-0.06196048,0.4264879,0.7417755,-0.8685913,9.729218,13.848877,15.150452,-34.01642,1.1111934,-0.48741403,9.731293,-0.2553923,-0.27136284,0.010315895,-0.15911865,0.0655365,-1.6703644
2019-07-01T19:44:31.144Z,-0.009627971,-0.059676994,0.1735086,0.4402771,-0.68673706,9.810577,8.543396,24.266052,-33.224487,1.1177715,-0.3887068,9.7349825,-0.53814185,-0.53557974,0.037817,-0.22576904,0.09069824,-2.3613129
2019-07-01T19:44:31.337Z,-0.022408776,-0.052650914,-0.12836462,0.49291992,-0.46420288,9.805786,-4.7973633,29.785156,-31.706238,1.0788265,-0.30259112,9.742432,-0.7016138,-0.35484895,0.049856186,-0.27700806,0.10157776,-2.939804
2019-07-01T19:44:31.548Z,-0.0028696444,-0.052111536,0.19292165,0.40678406,-0.67477417,9.808182,-16.897583,27.154541,-31.065369,0.9906007,-0.2523289,9.753226,-0.59614724,-0.36092088,0.050870895,-0.28263855,0.10920715,-2.9453735
2019-07-01T19:44:31.748Z,-0.015901051,-0.045233008,-0.06679628,0.5048828,-0.5814514,9.789032,-24.659729,19.212341,-32.58972,0.90499645,-0.25155652,9.761561,-0.44294292,-0.3327794,0.03490925,-0.25868225,0.10115051,-2.7200165
2019-07-01T19:44:31.954Z,-0.027296059,-0.03630278,-0.3038142,0.5790558,-0.5264282,9.791428,-29.626465,8.831787,-33.59375,0.84024155,-0.2931588,9.766188,-0.3015797,-0.27802277,0.025252342,-0.23883057,0.09388733,-2.5181274
2019-07-01T19:44:32.152Z,-0.038025852,-0.021553753,-0.5177391,0.6412811,-0.59580994,9.793823,-28.237915,0.63323975,-36.00006,0.74733454,-0.41836888,9.769178,-0.14220345,-0.149066,0.014530182,-0.22589111,0.08782959,-2.3346863
2019-07-01T19:44:32.356Z,-0.045098156,-0.009824223,-0.68220705,0.69392395,-0.51924133,9.784256,-23.240662,-6.3964844,-36.506653,0.74403095,-0.51398623,9.764867,-0.08078486,-0.04843998,0.011518478,-0.20805359,0.0803833,-2.1672363
2019-07-01T19:44:32.557Z,-0.04929159,-0.00030357932,-0.8074289,0.7537384,-0.51924133,9.769897,-16.461182,-11.260986,-37.31842,0.7840991,-0.56355894,9.758995,-0.06190437,0.031161487,0.010388374,-0.19424438,0.07446289,-2.0043182
2019-07-01T19:44:32.762Z,-0.05111166,0.0077809785,-0.8960469,0.79441833,-0.5144501,9.765106,-9.602356,-12.548828,-37.78839,0.83096665,-0.5787735,9.754225,-0.064269304,0.046610236,0.007891655,-0.17927551,0.06980896,-1.8639374
2019-07-01T19:44:32.961Z,-0.051132746,0.014264567,-0.9537181,0.83270264,-0.47138977,9.765106,-1.3885498,-12.290955,-38.449097,0.873659,-0.5636589,9.751379,-0.06170869,0.069484055,0.008551598,-0.1642456,0.063827515,-1.7213593
2019-07-01T19:44:33.167Z,-0.050127715,0.019660968,-0.9859827,0.91166687,-0.38763428,9.911072,5.7037354,-10.066223,-38.816833,0.9084919,-0.5354735,9.749784,-0.05501479,0.07440615,-0.0044698715,-0.1492157,0.058151245,-1.568039
2019-07-01T19:44:33.370Z,-0.048098188,0.023610344,-0.99793315,0.899704,-0.29670715,9.767502,8.618164,-6.161499,-37.913513,0.9249865,-0.49558604,9.750342,-0.049684405,0.07363099,0.022896767,-0.13328552,0.052459717,-1.4001007
2019-07-01T19:44:33.574Z,0.046126936,-0.02473905,0.9968951,0.94277954,-0.34695435,9.748352,11.885071,-3.3248901,-37.54425,0.93043554,-0.43048808,9.752915,-0.03426963,0.12786508,0.008530617,-0.109573364,0.04360962,-1.1475677
2019-07-01T19:44:33.778Z,0.04519048,-0.023936855,0.9928255,0.9643097,-0.18664551,9.757935,12.882996,-2.6809692,-36.701965,0.93071926,-0.37031314,9.755359,-0.009595931,0.11643162,0.0041856766,-0.06932068,0.028396606,-0.7395172
2019-07-01T19:44:33.979Z,0.045964714,-0.022764942,0.99236596,1.0241241,-0.48095703,9.777069,11.849976,-2.307129,-37.261963,0.94471437,-0.34197685,9.755048,0.024510324,0.050031632,-0.00084495544,-0.02192688,0.009216309,-0.22987366
2019-07-01T19:44:34.242Z,0.048211228,-0.024172414,0.9930694,1.0001984,-0.39959717,9.777069,12.776184,-1.3702393,-37.260437,0.9885357,-0.37207302,9.749602,0.018663764,0.0011048019,-0.0053396225,-0.00024414062,-0.0019073486,0.035125732
2019-07-01T19:44:34.437Z,0.049181625,-0.023858445,0.99463814,1.0241241,-0.44267273,9.748352,11.917114,-2.5177002,-37.835693,1.0005221,-0.3807513,9.748045,0.02448988,-0.018164873,-0.0006980896,0.014602661,-0.005203247,0.14404297
2019-07-01T19:44:34.639Z,0.050108247,-0.024140524,0.99571276,1.0576324,-0.45703125,9.755539,11.448669,-2.1087646,-37.96234,1.0135686,-0.39880875,9.745975,0.027601838,-0.03211087,-0.0018892288,0.017349243,-0.0066070557,0.17904663
2019-07-01T19:44:34.838Z,0.05090537,-0.02486682,0.99600726,1.0432739,-0.447464,9.745972,11.445618,-2.2598267,-37.612915,1.0280844,-0.41689053,9.743697,0.029061198,-0.03483036,-0.0037908554,0.012710571,-0.0048980713,0.124313354
2019-07-01T19:44:35.041Z,0.050981984,-0.025191525,0.99584794,1.031311,-0.4402771,9.772293,11.260986,-2.8533936,-37.651062,1.0308956,-0.42095765,9.743225,0.0046952963,-0.008259714,-0.0004196167,0.00036621094,-0.0006866455,0.010147095
2019-07-01T19:44:35.241Z,0.050906412,-0.025870293,0.9953616,1.031311,-0.7154541,9.750748,10.473633,-2.546692,-36.950684,1.0330966,-0.427745,9.742696,-0.0046372414,0.005796939,0.004324913,-0.0025634766,0.0006713867,-0.03744507
2019-07-01T19:44:35.442Z,0.03249058,-0.04687655,0.83204144,0.9020996,-0.39720154,9.779465,11.541748,-2.0401,-36.74164,1.0375191,-0.41336584,9.742847,0.009832025,0.020257413,-0.0046281815,-0.012878418,0.0018157959,-0.074157715
2019-07-01T19:44:35.653Z,0.032419443,-0.047089323,0.83224994,0.96191406,-0.37088013,9.769897,11.903381,-2.9632568,-37.01935,1.0384899,-0.4180093,9.742545,0.0007971525,-0.008372873,-0.0017662048,-0.00091552734,0.0009765625,-0.018997192
2019-07-01T19:44:35.857Z,0.03240705,-0.047113553,0.83229136,0.99780273,-0.41156006,9.748352,10.800171,-2.3757935,-37.384033,1.0385171,-0.4186178,9.742517,-0.0009959936,-0.0005571246,0.001745224,-0.00024414062,-0.0005645752,0.00061035156
2019-07-01T19:44:36.058Z,0.032388594,-0.04708355,0.83230186,1.0265198,-0.42591858,9.757935,12.872314,-2.822876,-37.257385,1.0378867,-0.4183451,9.742596,-0.001548171,0.00060144067,5.4359436e-05,-0.00018310547,-0.00019836426,0.0
2019-07-01T19:44:36.266Z,0.032387305,-0.047105774,0.83233595,1.036087,-0.42114258,9.750748,12.2039795,-3.2241821,-38.293457,1.0380785,-0.41878712,9.742557,0.00032150745,-0.00059852004,0.0016469955,6.1035156e-05,-7.6293945e-05,0.00036621094
2019-07-01T19:44:36.456Z,0.03236301,-0.04711745,0.83239067,1.036087,-0.42352295,9.745972,11.485291,-3.2791138,-37.217712,1.0377668,-0.4193431,9.742565,-0.00011706352,-0.00097456574,0.00060653687,-6.1035156e-05,4.5776367e-05,0.00012207031
2019-07-01T19:44:36.663Z,0.032374404,-0.047116186,0.83236957,1.0432739,-0.42114258,9.750748,11.181641,-2.861023,-37.27112,1.0379547,-0.41915998,9.742553,0.00014448166,0.00029203296,0.00072956085,-6.1035156e-05,4.5776367e-05,-0.00010681152
2019-07-01T19:44:36.857Z,0.032395814,-0.047123753,0.8323408,1.0432739,-0.42114258,9.753143,11.236572,-3.5171509,-36.953735,1.0384063,-0.4189991,9.742513,0.0009458065,0.0008227527,-0.0012626648,-6.1035156e-05,-7.6293945e-05,-0.00016784668
2019-07-01T19:44:37.071Z,0.032381035,-0.047116976,0.83235896,1.0408783,-0.4139557,9.753143,10.739136,-3.767395,-37.36267,1.0380791,-0.4190815,9.742543,-0.00057828426,-0.00032278895,-0.0010137558,-6.1035156e-05,0.00010681152,1.5258789e-05
2019-07-01T19:44:37.279Z,0.032403756,-0.04712558,0.83232903,1.036087,-0.41874695,9.74118,11.148071,-3.590393,-37.493896,1.038564,-0.4189213,9.742498,0.00054883957,0.0009869933,0.0009498596,-6.1035156e-05,4.5776367e-05,7.6293945e-05
2019-07-01T19:44:37.479Z,0.032395817,-0.04713667,0.83235484,1.0384827,-0.42591858,9.753143,11.460876,-3.8635254,-37.260437,1.0385342,-0.41923705,9.742488,-6.3061714e-05,-0.00040593743,-0.0014448166,-6.1035156e-05,-0.0001373291,-0.00010681152
2019-07-01T19:44:37.732Z,0.03240398,-0.047180723,0.83238864,1.0408783,-0.42114258,9.753143,11.801147,-3.4805298,-36.894226,1.0391141,-0.41993442,9.742396,0.001942277,-0.0013646483,0.0007638931,0.0,0.00010681152,0.0
2019-07-01T19:44:37.928Z,0.032403436,-0.047224004,0.8324367,1.0408783,-0.42352295,9.743576,11.112976,-2.6489258,-37.072754,1.0395331,-0.42073977,9.742317,0.0006378889,-0.00058954954,-0.001540184,-0.00012207031,4.5776367e-05,6.1035156e-05
2019-07-01T19:44:38.133Z,0.03241592,-0.047205184,0.83239466,1.0432739,-0.42591858,9.750748,10.644531,-2.468872,-36.187744,1.0395664,-0.4202177,9.742336,0.0005660057,0.000810951,0.0007047653,-0.00018310547,0.00010681152,0.00012207031
2019-07-01T19:44:38.343Z,0.032452453,-0.047197107,0.8323227,1.0480499,-0.42114258,9.753143,11.442566,-2.407837,-37.265015,1.040129,-0.41955614,9.742305,0.0011715889,0.0013692379,0.0006341934,6.1035156e-05,-1.5258789e-05,0.00012207031
2019-07-01T19:44:38.541Z,0.032450747,-0.047237236,0.8323693,1.0432739,-0.41635132,9.745972,11.154175,-1.8508911,-36.384583,1.0404963,-0.42031974,9.742232,0.0001193285,-0.0017158687,-0.0009965897,6.1035156e-05,-0.0001373291,0.00018310547
2019-07-01T19:44:38.743Z,0.032461453,-0.04722882,0.8323417,1.0480499,-0.4139557,9.745972,10.806274,-2.381897,-36.63025,1.0406013,-0.42001432,9.742234,0.00047039986,0.0011042953,0.00060749054,-6.1035156e-05,4.5776367e-05,0.00012207031
2019-07-01T19:44:38.942Z,0.032463286,-0.047258552,0.8323708,1.0384827,-0.42591858,9.738785,10.557556,-2.3910522,-37.680054,1.040928,-0.4205367,9.742177,0.00014400482,-0.0005246103,-4.7683716e-05,-0.00012207031,-0.0001373291,-4.5776367e-05
2019-07-01T19:44:39.146Z,0.032450717,-0.047247406,0.8323804,1.0456696,-0.42114258,9.755539,11.164856,-3.227234,-37.420654,1.0405965,-0.4205076,9.742213,-0.0006482601,0.00013047457,-0.0014724731,-0.00012207031,0.00016784668,7.6293945e-05
2019-07-01T19:44:39.354Z,0.032447334,-0.047196105,0.83233047,1.0480499,-0.41874695,9.745972,10.876465,-4.3411255,-37.257385,1.0400289,-0.4196095,9.742312,-0.001712203,0.0020878315,-0.00031852722,6.1035156e-05,-0.00019836426,7.6293945e-05
2019-07-01T19:44:39.554Z,0.030438319,-0.04852581,0.80823153,1.036087,-0.41874695,9.750748,10.984802,-3.4500122,-38.516235,1.0403059,-0.41935274,9.742294,0.00027549267,0.000916183,0.0022039413,-0.00012207031,-0.0001373291,0.00012207031
2019-07-01T19:44:39.758Z,0.030412197,-0.04848682,0.808231,1.0337067,-0.41635132,9.755539,11.297607,-3.7979126,-37.693787,1.0394483,-0.41903126,9.742399,-0.0017346144,0.00036543608,0.00019454956,6.1035156e-05,-6.1035156e-05,-4.5776367e-05
2019-07-01T19:44:39.955Z,0.030378325,-0.048481923,0.8082717,1.031311,-0.40678406,9.755539,10.9939575,-3.5308838,-37.173462,1.038828,-0.41941383,9.74245,-0.00031387806,-0.0016808212,-0.001961708,6.1035156e-05,6.1035156e-05,-0.00016784668
2019-07-01T19:44:40.155Z,0.030357758,-0.048498455,0.8083141,1.0408783,-0.42114258,9.750748,10.30426,-4.525757,-37.272644,1.0386612,-0.41998765,9.742442,0.00011360645,-0.0006401837,-0.00035190582,0.0,0.00012207031,-0.00016784668
2019-07-01T19:44:40.396Z,0.030394197,-0.048521962,0.80828685,1.0337067,-0.43070984,9.748352,10.220337,-2.8579712,-36.854553,1.039525,-0.41989547,9.742354,0.002145052,0.00044676661,-0.00072574615,-6.1035156e-05,6.1035156e-05,6.1035156e-05
2019-07-01T19:44:40.579Z,0.030372871,-0.048532348,0.8083247,1.0456696,-0.42114258,9.750748,11.585999,-2.835083,-37.43286,1.0392793,-0.4203722,9.742359,-1.3709068e-05,-0.00097996,0.00013065338,-6.1035156e-05,0.00018310547,1.5258789e-05
2019-07-01T19:44:40.758Z,0.030363416,-0.048526835,0.80833226,1.0432739,-0.4139557,9.734009,11.164856,-3.07312,-38.294983,1.0390615,-0.4204063,9.742381,-0.0004644394,-4.1127205e-06,-0.00087070465,6.1035156e-05,0.0,1.5258789e-05
2019-07-01T19:44:40.978Z,0.030393373,-0.048512563,0.8082794,1.036087,-0.42114258,9.748352,11.445618,-2.5650024,-35.862732,1.03941,-0.41974226,9.7423725,0.00020492077,0.0012158453,-0.0010471344,0.0,1.5258789e-05,6.1035156e-05
2019-07-01T19:44:41.174Z,0.030386483,-0.048483904,0.80826265,1.0432739,-0.4139557,9.750748,11.128235,-2.3590088,-36.790466,1.0389861,-0.41933578,9.742436,-0.00057804585,0.00057187676,0.00040912628,0.0,-4.5776367e-05,0.00012207031
2019-07-01T19:44:41.378Z,0.030383935,-0.048454486,0.80823934,1.0384827,-0.41635132,9.748352,10.809326,-2.3101807,-36.540222,1.0386266,-0.4188559,9.742495,9.1433525e-05,0.00064587593,0.003121376,0.00018310547,0.00012207031,0.00018310547
2019-07-01T19:44:41.571Z,0.030403778,-0.0484588,0.8082168,1.036087,-0.41635132,9.753143,11.418152,-2.9190063,-37.368774,1.0390055,-0.41865703,9.742463,0.0007709265,0.00040763617,-0.001914978,0.0,6.1035156e-05,-0.00010681152
2019-07-01T19:44:41.801Z,0.030710118,-0.048328664,0.8076902,0.98583984,-0.19142151,9.755539,10.333252,-1.9683838,-37.506104,1.0427312,-0.41213968,9.742343,0.010322452,0.012350231,0.0016527176,-6.1035156e-05,6.1035156e-05,0.0
2019-07-01T19:44:41.975Z,0.031043377,-0.045446865,0.8174803,0.83270264,-0.24885559,9.777069,11.44104,-4.3029785,-37.197876,1.0087706,-0.3795978,9.747239,-0.05153811,0.05415806,0.0052986145,0.0077056885,0.0015258789,0.047409058
2019-07-01T19:44:42.179Z,0.03331329,-0.039528005,0.8515716,0.78245544,-0.24885559,9.78186,8.811951,-5.418396,-38.07373,0.96085066,-0.31934255,9.754238,-0.078606725,0.14936054,0.010971069,0.038986206,-0.012023926,0.39993286
2019-07-01T19:44:42.380Z,0.03836443,-0.03420782,0.9190387,0.49531555,-0.47616577,9.817749,4.6279907,-8.972168,-38.623047,0.95373327,-0.32254925,9.754831,-0.24806625,0.12864488,0.03066063,0.09939575,-0.038406372,1.0615082
2019-07-01T19:44:42.600Z,0.04454798,-0.025052376,0.9858553,-0.047851562,-0.37088013,9.84407,-5.532837,-13.221741,-38.319397,0.939803,-0.34494808,9.755418,-0.47334296,0.056270152,0.049264908,0.18321228,-0.070114136,1.9521637
2019-07-01T19:44:42.790Z,-0.0487769,0.0102785425,-0.9808885,0.1483612,-0.8638153,9.765106,-19.27948,-11.225891,-37.8006,0.9004768,-0.37767208,9.757915,-0.9693301,-0.13116634,0.097779274,0.2755127,-0.10542297,2.9365082
2019-07-01T19:44:43.011Z,-0.048171945,-0.0067221057,-0.84881747,0.21774292,-1.0217285,9.829712,-28.381348,0.8331299,-35.047913,0.8713796,-0.38547954,9.76025,-0.76197773,-0.7937833,0.05975437,0.36083984,-0.152771,3.7925262
2019-07-01T19:44:43.201Z,-0.041699685,-0.021719586,-0.62875515,0.36610413,-0.9451599,9.789032,-28.346252,15.910339,-33.187866,0.84488636,-0.36696848,9.763293,-0.61110723,-0.5966356,0.064992905,0.34680176,-0.13442993,3.5845184
2019-07-01T19:44:43.408Z,-0.044745184,-0.010890838,-0.8059353,0.43310547,-0.78723145,9.793823,-17.417908,26.167297,-30.490112,0.8333614,-0.34581646,9.765056,-0.46965325,-0.5297917,0.049204826,0.31802368,-0.1244812,3.305603
2019-07-01T19:44:43.609Z,-0.031930212,-0.032761768,-0.3933341,0.5312042,-0.8279114,9.791428,-5.0872803,28.671265,-31.619263,0.8363691,-0.32232127,9.765602,-0.3974259,-0.47190955,0.049040794,0.28974915,-0.11244202,3.0480042
2019-07-01T19:44:43.815Z,-0.021430237,-0.041029107,-0.15022372,0.5862427,-0.66041565,9.8033905,5.505371,26.316833,-31.929016,0.8578535,-0.29420474,9.764626,-0.3308276,-0.48704544,0.048441887,0.27008057,-0.105545044,2.8079224
2019-07-01T19:44:44.012Z,-0.0103018,-0.04646819,0.08888127,0.7154541,-0.71066284,9.786652,12.397766,18.6203,-33.476257,0.88879174,-0.28202862,9.7622175,-0.25283504,-0.36661473,0.03782177,0.25193787,-0.09712219,2.5821533
2019-07-01T19:44:44.219Z,0.00045192832,-0.04902616,0.30843022,0.83270264,-0.66760254,9.74118,14.624023,9.080505,-34.376526,0.9162038,-0.2881552,9.759504,-0.20200562,-0.3762782,0.030134201,0.22944641,-0.08880615,2.3934479
2019-07-01T19:44:44.418Z,0.010015442,-0.049378417,0.49008924,0.90448,-0.6149597,9.753143,13.017273,0.5432129,-37.635803,0.93905145,-0.30369714,9.756862,-0.11221254,-0.3607353,0.026820183,0.20593262,-0.0789032,2.1293182
2019-07-01T19:44:44.620Z,0.017607622,-0.048421018,0.62566686,0.99780273,-0.62931824,9.743576,9.274292,-4.0802,-37.742615,0.95530105,-0.32538232,9.754584,-0.034504354,-0.30843285,0.01759243,0.16799927,-0.0655365,1.7580261
2019-07-01T19:44:44.823Z,0.023423126,-0.046759978,0.72066754,1.076767,-0.653244,9.74118,6.2820435,-7.991028,-38.342285,0.9650864,-0.3433478,9.753005,0.03720659,-0.28183752,0.011667252,0.13562012,-0.05215454,1.4096375
2019-07-01T19:44:45.029Z,0.026947329,-0.045601472,0.7744524,1.1509552,-0.5742798,9.726822,2.5299072,-11.010742,-38.04779,0.97315484,-0.35947803,9.751622,0.11205691,-0.26833373,0.0022792816,0.09640503,-0.037124634,0.99920654
2019-07-01T19:44:45.226Z,0.02880077,-0.048368428,0.80689603,1.0337067,-0.46420288,9.738785,2.1118164,-11.328125,-38.471985,1.0136174,-0.4333225,9.744496,0.085889935,-0.1396918,0.0021409988,0.049179077,-0.01751709,0.49320984
2019-07-01T19:44:45.432Z,0.02924848,-0.04973129,0.8112061,1.0695953,-0.49771118,9.734009,0.6820679,-10.98938,-37.968445,1.032945,-0.45742974,9.741364,0.040749907,-0.053662032,0.0022668839,0.007461548,-0.0026245117,0.0861969
2019-07-01T19:44:45.635Z,0.028742135,-0.050482344,0.80200934,1.0576324,-0.44267273,9.731613,4.5288086,-10.630798,-41.825867,1.040725,-0.45896468,9.740464,0.01012218,-0.009625882,0.005303383,-0.009216309,0.0042877197,-0.10261536
2019-07-01T19:44:45.839Z,0.027813522,-0.05110872,0.7876114,1.0456696,-0.447464,9.734009,3.378296,-9.701538,-40.081787,1.0445513,-0.45488098,9.740245,-0.0021356344,-0.006162882,0.0055999756,-0.021560669,0.007888794,-0.22283936
2019-07-01T19:44:46.155Z,0.026390644,-0.051872887,0.76873016,1.0624084,-0.49291992,9.729218,5.5862427,-8.898926,-40.008545,1.0459018,-0.4524305,9.740215,-0.0100957155,-0.007592052,0.0033693314,-0.026931763,0.010635376,-0.29052734
2019-07-01T19:44:46.246Z,0.024582222,-0.05274628,0.74360335,1.0337067,-0.38046265,9.743576,8.39386,-7.484436,-38.55133,1.0476027,-0.44813433,9.7402315,-0.011854291,-0.0056392252,0.0021028519,-0.036468506,0.013198853,-0.3675537
2019-07-01T19:44:46.447Z,0.02044572,-0.05342685,0.68114334,0.9643097,-0.38523865,9.757935,8.190918,-6.6986084,-38.157654,1.0455683,-0.43951288,9.740842,-0.029787183,0.024326593,0.0064315796,-0.042556763,0.01637268,-0.440979
2019-07-01T19:44:46.645Z,0.01912106,-0.05280563,0.65581137,0.99302673,-0.39242554,9.767502,9.553528,-5.0811768,-37.506104,1.0256505,-0.3968863,9.744788,-0.0309273,0.03607285,0.006731987,-0.034683228,0.012039185,-0.34342957
2019-07-01T19:44:46.852Z,0.01860946,-0.052916307,0.64683807,1.0217285,-0.42114258,9.745972,9.799194,-4.7668457,-38.735962,1.0254505,-0.39372993,9.744938,0.0004349947,-0.0029991567,-0.001408577,-0.014099121,0.0064849854,-0.1663971
2019-07-01T19:44:47.051Z,0.018275019,-0.053243414,0.64256746,1.0265198,-0.40438843,9.757935,9.364319,-3.9291382,-37.416077,1.0283123,-0.3971197,9.744498,0.003996253,-0.009874433,4.1007996e-05,-0.0095825195,0.0037994385,-0.10340881
2019-07-01T19:44:47.251Z,0.018076634,-0.053366315,0.6402175,1.0432739,-0.40438843,9.74118,10.482788,-4.147339,-37.353516,1.0288789,-0.39848533,9.744384,0.0016806126,-0.006085068,0.0009250641,-0.006225586,0.0024414062,-0.06602478
2019-07-01T19:44:47.454Z,0.03391943,-0.04512072,0.84849596,1.0384827,-0.40678406,9.738785,12.04071,-3.3111572,-37.927246,1.0301344,-0.40083575,9.744154,0.0021214485,-0.0056628585,-0.00081920624,-0.0024414062,0.0012817383,-0.029312134
2019-07-01T19:44:47.659Z,0.033847786,-0.04537519,0.8487856,1.031311,-0.4139557,9.734009,10.290527,-2.9953003,-37.18567,1.0313294,-0.40638936,9.743798,0.0030175447,-0.009893209,0.00040912628,-0.00061035156,0.00018310547,-0.0045776367
2019-07-01T19:44:47.861Z,0.033836085,-0.045612995,0.8490263,1.0408783,-0.41635132,9.748352,10.43396,-3.6514282,-36.04126,1.0333806,-0.4109555,9.743389,0.0041128397,-0.008679271,-0.0014734268,-0.00012207031,6.1035156e-05,0.0004272461
2019-07-01T19:44:48.061Z,0.03385776,-0.04570941,0.8491073,1.0337067,-0.41874695,9.74118,11.073303,-3.5263062,-37.249756,1.0346625,-0.4125038,9.743188,0.0021277666,-0.0035499334,-0.00065898895,-6.1035156e-05,-0.00012207031,0.00030517578
2019-07-01T19:44:48.260Z,0.033807732,-0.04578083,0.84924716,1.0337067,-0.4139557,9.745972,10.079956,-4.0985107,-37.480164,1.034452,-0.41448593,9.743126,-0.00026905537,-0.004219085,-0.0007658005,6.1035156e-05,0.00012207031,-0.00016784668
2019-07-01T19:44:48.481Z,0.033796877,-0.045793604,0.84927505,1.0456696,-0.4139557,9.757935,10.954285,-4.335022,-37.48474,1.0343802,-0.4148658,9.743117,-3.33786e-06,-0.00093489885,0.0009202957,0.00018310547,0.0,0.0
2019-07-01T19:44:48.675Z,0.03379951,-0.045826655,0.8493004,1.071991,-0.42352295,9.750748,10.894775,-3.8253784,-37.683105,1.0347415,-0.41544116,9.743054,0.0008698702,-0.0011094809,-0.0009918213,-6.1035156e-05,-6.1035156e-05,0.00018310547
2019-07-01T19:44:48.875Z,0.033716667,-0.045772724,0.8493788,0.99780273,-0.4019928,9.753143,10.829163,-3.4667969,-37.683105,1.0327533,-0.4155433,9.743261,-0.0052455664,0.00018689036,2.7656555e-05,-6.1035156e-05,-0.00018310547,-0.00022888184
2019-07-01T19:44:49.079Z,0.0337794,-0.04594527,0.84943634,1.036087,-0.4091797,9.755539,10.079956,-4.0985107,-37.55493,1.0355111,-0.41789836,9.742867,0.006325841,-0.0041439533,-0.00032520294,-6.1035156e-05,6.1035156e-05,0.00024414062
2019-07-01T19:44:49.272Z,0.03377354,-0.045936756,0.8494377,1.0289154,-0.42114258,9.765106,10.313416,-4.231262,-37.51526,1.0353258,-0.41781873,9.74289,-0.00029945374,0.00012466311,0.0021800995,0.0,6.1035156e-05,7.6293945e-05
2019-07-01T19:44:49.481Z,0.033761874,-0.045990005,0.8495027,1.0384827,-0.42114258,9.748352,10.980225,-3.7490845,-37.519836,1.0356239,-0.4189568,9.74281,-0.00017344952,-0.0020583868,0.0008573532,-0.00018310547,-0.00010681152,0.00024414062
2019-07-01T19:44:49.697Z,0.033812907,-0.045975685,0.84941226,1.0432739,-0.42352295,9.748352,10.342407,-3.8772583,-35.85968,1.0363971,-0.41801593,9.742768,0.0018002987,0.0019765794,-0.002161026,6.1035156e-05,-0.00012207031,-0.00010681152
2019-07-01T19:44:49.889Z,0.0338277,-0.045954168,0.8493706,1.0408783,-0.41874695,9.762711,10.371399,-3.2928467,-35.891724,1.0364561,-0.41742235,9.742787,0.0004774332,0.0009330809,0.0011014938,6.1035156e-05,0.00012207031,-4.5776367e-05
2019-07-01T19:44:50.087Z,0.03379375,-0.045980833,0.849446,1.0337067,-0.41156006,9.750748,11.128235,-4.0283203,-37.657166,1.0361048,-0.41836488,9.7427845,-0.00046765804,-0.0016816854,0.0020093918,-0.00018310547,0.0,0.00030517578
2019-07-01T19:44:50.301Z,0.033798847,-0.045949105,0.84941006,1.0384827,-0.41156006,9.76033,11.065674,-3.5934448,-37.945557,1.035894,-0.41771132,9.742835,-0.00084507465,0.0009691417,-0.0023231506,0.00018310547,1.5258789e-05,1.5258789e-05
2019-07-01T19:44:50.501Z,0.03380607,-0.045968235,0.849416,1.0384827,-0.42114258,9.743576,9.631348,-3.4042358,-36.94153,1.0362045,-0.41796884,9.74279,0.0009366274,-0.0006566644,0.0009965897,0.0,6.1035156e-05,-0.00010681152
2019-07-01T19:44:50.702Z,0.033793632,-0.045950364,0.8494192,1.0384827,-0.4091797,9.750748,10.650635,-3.993225,-37.17804,1.0358131,-0.41780376,9.74284,-0.00056803226,-0.0001243949,-0.00015449524,0.00018310547,0.0,6.1035156e-05
2019-07-01T19:44:50.899Z,0.033813603,-0.045943018,0.8493822,1.0384827,-0.42352295,9.753143,9.466553,-3.4118652,-37.313843,1.036099,-0.41740325,9.7428255,0.0004156828,0.00040400028,-0.0015439987,0.0,0.0,-4.5776367e-05
2019-07-01T19:44:51.109Z,0.03382048,-0.045933023,0.84936285,1.036087,-0.4139557,9.753143,10.461426,-2.6870728,-37.960815,1.0361265,-0.41712752,9.742835,0.00043320656,0.0003540516,-0.00088596344,0.00018310547,6.1035156e-05,6.1035156e-05
2019-07-01T19:44:51.314Z,0.033828665,-0.045903873,0.8493245,1.0384827,-0.41874695,9.748352,10.98938,-3.604126,-37.339783,1.035995,-0.41648066,9.742876,0.00029432774,0.0009074509,0.0005054474,0.0,0.00018310547,0.0
2019-07-01T19:44:51.522Z,0.031791355,-0.04736105,0.82571626,1.0337067,-0.41635132,9.755539,11.009216,-3.2424927,-36.740112,1.0361587,-0.41708988,9.742834,-0.00010883808,-0.001109302,-0.00012493134,0.00012207031,-6.1035156e-05,0.00012207031
2019-07-01T19:44:51.717Z,0.031790875,-0.047356695,0.82571316,1.031311,-0.41635132,9.748352,11.557007,-3.189087,-39.015198,1.0361056,-0.41701868,9.742843,0.0002503395,-0.00048831105,-0.0012292862,0.0,6.1035156e-05,0.00030517578
2019-07-01T19:44:51.916Z,0.031808145,-0.047356132,0.8256894,1.036087,-0.41874695,9.738785,10.30426,-4.371643,-38.29651,1.0363958,-0.41677612,9.742821,-0.00029039383,0.00046169758,0.00016784668,0.00018310547,-6.1035156e-05,1.5258789e-05
2019-07-01T19:44:52.117Z,0.031813316,-0.047366824,0.8256916,1.0241241,-0.39959717,9.750748,10.43396,-3.3477783,-37.48932,1.0365945,-0.41689715,9.742795,-0.00027692318,-0.00059461594,0.00061130524,0.0,-0.00022888184,-0.00010681152
2019-07-01T19:44:52.322Z,0.031842113,-0.04718853,0.8254995,1.002594,-0.4019928,9.769897,9.52301,-3.842163,-38.00659,1.0352522,-0.41333023,9.74309,-0.0047062635,0.016663045,0.0018911362,-0.00018310547,-0.00061035156,-6.1035156e-05
2019-07-01T19:44:52.532Z,0.03213524,-0.046929255,0.8302413,1.071991,-0.5383911,9.757935,10.8078,-4.0527344,-37.272644,1.0336607,-0.4146995,9.7432,-0.0035744905,-0.010450542,-0.00058555603,0.002746582,-0.0018920898,0.046798706
2019-07-01T19:44:52.793Z,0.031501755,-0.049645085,0.82643604,1.0911255,-0.75613403,9.702896,11.555481,-3.4927368,-37.565613,1.055844,-0.45873564,9.738847,0.038621783,-0.109610766,-0.0047807693,0.007583618,-0.0012207031,0.0284729
2019-07-01T19:44:52.933Z,0.028601117,-0.053715065,0.7905737,0.928421,-0.37806702,9.76033,14.463806,0.4928589,-37.628174,1.0780876,-0.4948245,9.734642,-0.06544781,-0.08309069,0.004606247,-0.087768555,0.034820557,-0.93273926
2019-07-01T19:44:53.187Z,0.015290641,-0.05575956,0.6242378,0.85902405,-0.49771118,9.779465,16.114807,6.640625,-36.068726,1.0392464,-0.44903487,9.741084,-0.13767004,0.034687012,0.013630867,-0.1257019,0.04649353,-1.2735901
2019-07-01T19:44:53.378Z,0.0114260195,-0.05627298,0.54223925,0.90927124,-0.9667053,9.784256,15.158081,11.956787,-34.1156,1.0467031,-0.41061318,9.741981,-0.15158737,0.011786491,0.017029762,-0.113357544,0.04399109,-1.146347
2019-07-01T19:44:53.579Z,0.004644041,-0.056762367,0.42170015,1.0743713,-0.19381714,9.521042,14.164734,16.773987,-33.773804,1.0458834,-0.38705078,9.743033,-0.1799885,-0.53054965,0.0053987503,-0.08880615,0.03819275,-1.0713348
2019-07-01T19:44:53.777Z,-0.005321627,-0.057046693,0.23711553,0.67477417,-0.72262573,9.82254,10.427856,23.226929,-33.137512,1.0603244,-0.36652395,9.742267,-0.11942601,0.14135465,0.001083374,-0.19198608,0.055648804,-1.851181
2019-07-01T19:44:54.004Z,-0.013813143,-0.05393996,0.06060077,0.7393799,-0.39482117,9.800995,2.6641846,27.51007,-31.570435,1.0379338,-0.3341143,9.745842,-0.336537,-0.14376158,0.033649445,-0.18067932,0.07330322,-1.874939
2019-07-01T19:44:54.196Z,-0.0212775,-0.049738,-0.102078184,0.7082825,-0.653244,10.432709,-4.0283203,28.959656,-31.52771,1.011594,-0.3149478,9.74925,-0.22856319,-0.13089043,0.015912056,-0.16564941,0.06488037,-1.7167206
2019-07-01T19:44:54.396Z,-0.028256927,-0.04450478,-0.25098756,0.63409424,-1.0911255,9.891922,-10.371399,29.341125,-31.643677,0.98279107,-0.31659183,9.752142,-0.0831424,-0.29763076,0.033298492,-0.15106201,0.056640625,-1.5228271
2019-07-01T19:44:54.600Z,-0.037019208,-0.035540592,-0.45786765,0.38046265,-0.5934143,9.796219,-20.123291,25.267029,-31.770325,0.951118,-0.32524866,9.754997,-0.22967237,-0.4544087,-0.038661003,-0.17640686,0.071777344,-1.8077393
2019-07-01T19:44:54.804Z,-0.04382306,-0.022795813,-0.67177874,0.6963043,-0.52163696,9.755539,-28.712463,16.838074,-33.51288,0.9078576,-0.33491698,9.758792,-0.40857852,-0.33948782,0.032099724,-0.23736572,0.0909729,-2.5204468
2019-07-01T19:44:55.010Z,-0.047356073,-0.0094883675,-0.8279666,0.5742798,-0.6053772,9.767502,-30.773926,6.7214966,-34.65576,0.8729946,-0.3648366,9.7609,-0.2915784,-0.2275149,0.023818016,-0.24372864,0.09829712,-2.5494537
2019-07-01T19:44:55.214Z,-0.04829956,0.00283387,-0.9291069,0.66760254,-0.5359955,9.913467,-28.631592,-3.0471802,-35.073853,0.85977775,-0.3989574,9.760738,-0.20723444,-0.16492414,0.007221222,-0.22044373,0.08857727,-2.2976685
2019-07-01T19:44:55.417Z,-0.04463488,-0.020001039,-0.55047446,0.64367676,-0.55992126,9.772293,-20.54596,-8.976746,-37.443542,0.8088443,-0.5136615,9.759728,-0.15579659,-0.14202613,0.019075394,-0.20835876,0.084732056,-2.1878204
2019-07-01T19:44:55.619Z,-0.05306085,0.0024301624,-0.8087318,0.5766754,-0.96191406,9.762711,-11.465454,-12.664795,-38.79242,0.8137257,-0.6481613,9.751313,-0.16370815,-0.18627518,0.008872032,-0.23388672,0.086257935,-2.3655243
2019-07-01T19:44:55.818Z,-0.05771939,0.016499598,-0.94155496,0.27757263,-0.8877411,9.805786,2.4871826,-10.139465,-38.323975,0.95863736,-0.6799415,9.735969,-0.44375706,-0.26945978,0.03897953,-0.26193237,0.104522705,-2.7161713
2019-07-01T19:44:56.027Z,-0.05707537,0.030124428,-0.9977374,0.18185425,-0.8877411,9.82254,13.226318,-0.3982544,-36.62567,1.1057721,-0.6105929,9.724959,-0.83053327,-0.2801603,0.07588196,-0.30371094,0.12095642,-3.2062683
2019-07-01T19:44:56.227Z,0.049786348,-0.041374072,0.9497285,0.4283142,-0.8925171,9.748352,14.6698,13.825989,-34.848022,1.1759502,-0.47158447,9.724461,-0.9739269,-0.3353579,0.097673416,-0.33468628,0.12701416,-3.4614868
2019-07-01T19:44:56.424Z,0.03601262,-0.04803715,0.7948115,0.17468262,-0.5742798,9.789032,6.134033,26.148987,-33.04596,1.1303515,-0.3223094,9.735955,-0.87566185,-0.514252,0.08093166,-0.33963013,0.13305664,-3.4864197
2019-07-01T19:44:56.627Z,0.017939642,-0.050307557,0.5471996,0.23449707,-0.8661957,9.805786,-7.711792,29.446411,-31.958008,1.0167197,-0.24601665,9.750699,-0.86152065,-0.44965178,0.09356594,-0.33724976,0.1350708,-3.5139008
2019-07-01T19:44:56.832Z,-0.013131244,-0.038343128,0.20623404,0.16270447,-0.67477417,9.932602,-21.98944,23.028564,-31.54602,0.68212205,-0.40688944,9.774432,-0.48092312,-0.3883262,0.05709362,-0.32881165,0.12866211,-3.3979645
2019-07-01T19:44:57.038Z,-0.03466325,-0.025454972,-0.15801777,0.35653687,-0.75613403,9.815353,-29.9057,11.805725,-34.41162,0.5999458,-0.5917908,9.770375,-0.3063069,-0.090195835,0.042259216,-0.3104248,0.12187195,-3.2737732
2019-07-01T19:44:57.234Z,-0.04943699,-0.010093321,-0.47285202,0.40678406,-0.6771698,9.8033905,-28.388977,-1.0574341,-35.583496,0.63263553,-0.7593657,9.756717,-0.313034,-0.022712588,0.046862602,-0.2987671,0.116989136,-3.0747528
2019-07-01T19:44:57.440Z,-0.05548181,0.0023247912,-0.6968857,0.4737854,-0.8159485,9.791428,-20.199585,-10.420227,-36.618042,0.725735,-0.80985725,9.74617,-0.34848213,0.10149366,0.04956627,-0.29319763,0.112472534,-3.0534363
2019-07-01T19:44:57.646Z,-0.05700056,0.013756125,-0.84978336,0.44506836,-0.68434143,9.74118,-8.059692,-12.226868,-38.012695,0.8086923,-0.814934,9.739213,-0.36235058,0.080740154,0.044822693,-0.28044128,0.11088562,-2.8939972
2019-07-01T19:44:57.848Z,-0.054785624,0.02729226,-0.953197,0.30389404,-0.75613403,9.789032,5.419922,-7.5408936,-37.986755,0.8854389,-0.7862825,9.734893,-0.56343096,-0.02176398,0.05936432,-0.2970581,0.11802673,-3.1188507
2019-07-01T19:44:58.061Z,0.034178283,-0.049302902,0.9730426,0.12921143,-0.933197,9.674179,13.83667,2.4856567,-36.66992,0.8676141,-0.79164743,9.736063,-0.5890413,-0.13086903,0.06460667,-0.32484436,0.122421265,-3.3746796
2019-07-01T19:44:58.267Z,0.027145991,-0.06264883,0.83839154,-0.023925781,-1.0073853,9.872787,13.75885,16.899109,-34.63745,1.1108563,-0.74225307,9.715218,-0.96772134,-0.05587387,0.1025877,-0.3449402,0.1340332,-3.5509796
2019-07-01T19:44:58.472Z,0.015253773,-0.06809811,0.59440625,0.112457275,-0.7417755,9.832108,4.522705,26.419067,-34.8114,1.2478465,-0.5542262,9.711133,-1.155295,-0.32406038,0.13408184,-0.34976196,0.14013672,-3.6066437
2019-07-01T19:44:58.792Z,-0.013348881,-0.049845513,0.20941426,0.14356995,-0.7417755,9.939789,-12.672424,28.242493,-31.921387,0.899798,-0.4603844,9.754425,-0.7785889,-0.31856877,0.08675861,-0.3444519,0.13598633,-3.6126251
2019-07-01T19:44:58.857Z,-0.036161322,-0.0286268,-0.21290928,0.20578003,-0.550354,9.734009,-26.449585,18.728638,-32.466125,0.6989856,-0.57266754,9.76493,-0.52073,-0.21679056,0.052672386,-0.32417297,0.13000488,-3.4297333
2019-07-01T19:44:59.063Z,-0.04793056,-0.008878244,-0.5406091,0.2632141,-0.8159485,9.896713,-29.231262,5.2200317,-34.648132,0.6544602,-0.6953959,9.760045,-0.43543947,-0.056267917,0.06453514,-0.31855774,0.124069214,-3.317566
2019-07-01T19:44:59.259Z,-0.05282204,0.0054654796,-0.75030065,0.47138977,-0.7034912,9.762711,-25.30365,-5.6533813,-36.949158,0.7066844,-0.7631219,9.75134,-0.35102808,0.06722289,0.046927452,-0.29974365,0.1157074,-3.1032715
2019-07-01T19:44:59.467Z,-0.055696957,0.0060072024,-0.77530706,0.3254242,-0.70588684,9.829712,-13.723755,-12.968445,-38.08136,0.7728256,-0.7785717,9.745098,-0.3672452,0.07747793,0.05144024,-0.27928162,0.10942078,-2.9172668
2019-07-01T19:44:59.675Z,-0.061928663,0.015993925,-0.9083107,0.6006012,-0.6963043,9.808182,-1.2130737,-11.915588,-38.453674,0.9735835,-0.7870298,9.726413,-0.46793503,0.23823678,0.06037712,-0.25888062,0.104034424,-2.7638092
2019-07-01T19:44:59.877Z,-0.06403538,0.025756793,-0.98140895,0.5479584,-0.92123413,9.757935,8.331299,-5.532837,-36.943054,1.1421249,-0.7207088,9.713214,-0.5254226,-0.019618511,0.06564236,-0.24224854,0.09384155,-2.5180664
2019-07-01T19:45:00.078Z,0.061296683,-0.035545327,0.99154115,0.114852905,-0.97387695,9.812973,13.73291,3.6346436,-35.525513,1.2678732,-0.5605278,9.708176,-0.7634486,-0.36789972,0.073553085,-0.26669312,0.10281372,-2.749466
2019-07-01T19:45:00.280Z,0.050860308,-0.042862613,0.89927447,0.100494385,-0.6652069,9.78186,14.189148,17.356873,-33.807373,1.2604839,-0.32476592,9.719881,-1.0720983,-0.6654745,0.10597515,-0.3160553,0.124435425,-3.3325958
2019-07-01T19:45:00.478Z,0.03296374,-0.046194844,0.6928883,0.08135986,-0.7010956,9.800995,3.211975,28.927612,-31.150818,1.0992357,-0.16305049,9.743484,-1.0037912,-0.66856873,0.09691429,-0.35472107,0.13513184,-3.683731
2019-07-01T19:45:00.679Z,0.011761546,-0.0442408,0.4010431,0.12921143,-1.0456696,9.973282,-14.532471,28.048706,-32.26471,0.88639253,-0.13693331,9.765549,-0.8047943,-0.6648347,0.08791828,-0.35258484,0.13879395,-3.6484833
2019-07-01T19:45:00.878Z,-0.009508176,-0.037506957,0.07169377,0.01914978,-0.9403839,9.891922,-30.284119,4.925537,-33.91266,0.7198199,-0.23860727,9.777286,-0.58383304,-0.5032707,0.07213974,-0.33033752,0.13531494,-3.4968567
2019-07-01T19:45:01.083Z,-0.03313718,-0.018364247,-0.28860396,0.275177,-0.66041565,9.812973,-24.508667,-5.9661865,-36.668396,0.53215927,-0.5178363,9.778499,-0.30500978,-0.2469508,0.055832863,-0.32130432,0.12408447,-3.307434
2019-07-01T19:45:01.288Z,-0.04694466,-0.0031022877,-0.566928,0.44506836,-0.3134613,9.805786,-14.405823,-12.14447,-37.20703,0.5720344,-0.72274196,9.763238,-0.22515416,-0.013720691,0.044000626,-0.30187988,0.11576843,-3.170166
2019-07-01T19:45:01.488Z,-0.057459787,0.0054443707,-0.7475044,0.7298126,-0.32063293,9.777069,-4.4265747,-13.581848,-38.815308,0.77175707,-0.8255904,9.741313,-0.36999696,0.41951054,0.078279495,-0.26620483,0.10745239,-2.8405457
2019-07-01T19:45:01.694Z,-0.06254881,0.010847423,-0.8483993,0.7920227,-0.19381714,9.78186,2.217102,-10.661316,-39.09607,0.9289967,-0.82522243,9.727609,-0.25267702,0.49757355,0.059491158,-0.20811462,0.07563782,-2.1448212
2019-07-01T19:45:01.897Z,-0.064424045,0.0133721875,-0.9007521,0.69392395,-0.3062744,9.894318,4.2251587,-8.998108,-38.61389,1.0255626,-0.7787189,9.72174,-0.22214127,0.52261907,0.06245041,-0.14060974,0.05645752,-1.4892883
2019-07-01T19:45:02.098Z,-0.0934602,0.0023739487,-0.91212,3.488739,-1.758728,12.303894,-29.016113,-8.72345,-11.294556,1.65339,-0.7740811,9.6352215,-0.85760105,0.4681111,0.5714054,-0.07493591,0.02810669,-0.7890625
2019-07-01T19:45:02.296Z,0.6716977,-0.5322922,0.41662592,2.486145,-1.1700897,-3.5868378,-26.168823,-8.128357,30.314636,8.65378,-0.3555943,-4.599568,-4.9506264,-0.34635818,11.845652,-0.09791565,-3.6741943,-0.22918701
2019-07-01T19:45:02.502Z,0.7598923,-0.6057606,0.15851909,-4.886139,0.45703125,-8.860626,1.9241333,-14.476013,37.008667,4.4371324,0.7190638,-8.715801,1.9996204,-2.0879714,-2.678502,0.7205963,-8.142639,0.705246
2019-07-01T19:45:02.706Z,0.81870586,-0.57095,-0.05405327,-0.8685913,-0.15074158,-9.738785,3.6224365,-14.596558,38.648987,-0.5482501,1.063746,-9.733357,-0.631269,-1.3424039,-0.9805746,-0.7189789,-4.1834717,-0.80841064
2019-07-01T19:45:02.906Z,0.8395477,-0.53997016,-0.055301227,-1.3088684,-0.18424988,-9.753143,1.7333984,-13.705444,38.98468,-0.6659382,0.9660846,-9.736201,-0.58269095,-0.92560047,-2.425085,-0.0463562,0.098480225,-0.4692688
2019-07-01T19:45:03.113Z,0.8046111,-0.5916191,-0.04801546,-1.031311,-0.026321411,-9.777069,-4.623413,-10.194397,39.58435,-0.5627296,0.8223637,-9.755893,-0.84555644,-0.7953264,-2.2440891,0.018081665,1.5258789e-05,0.10385132
2019-07-01T19:45:03.321Z,0.7010303,-0.7124092,-0.03100386,-1.3016968,-0.5048828,-9.71965,-11.140442,-2.5985718,38.22632,-0.3107794,0.54687136,-9.786457,-0.94110835,-0.73297006,-2.1159315,0.13464355,0.03012085,1.2633972
2019-07-01T19:45:03.520Z,-0.67881185,0.73426837,0.007907473,-1.1892395,-0.6077728,-9.726822,-13.711548,10.585022,36.558533,-0.12495403,0.09568893,-9.805387,-1.0945705,-0.48293102,-1.9995699,0.22297668,0.04637146,2.0129395
2019-07-01T19:45:03.721Z,-0.4339349,0.90053207,-0.017967388,-1.2251282,-0.46180725,-9.705292,-7.8445435,21.546936,36.21216,-0.20889765,-0.49169388,-9.7920885,-0.9774859,-0.107325375,-1.914947,0.3012848,0.04850769,2.858078
2019-07-01T19:45:03.930Z,-0.13128178,0.9897878,-0.04226808,-1.1413727,-0.8446655,-9.738785,3.3981323,27.130127,33.036804,-0.5907151,-0.9133362,-9.746141,-0.73856115,0.20474184,-1.8404016,0.3499756,0.05619812,3.254959
2019-07-01T19:45:04.134Z,0.20104197,0.9768299,-0.05598267,-1.1294098,-0.6053772,-9.650253,15.744019,25.822449,34.680176,-1.1298256,-0.8854656,-9.701022,-0.13739836,0.13702613,-1.2742777,0.35479736,0.06732178,3.2731628
2019-07-01T19:45:04.332Z,0.52487373,0.8475978,-0.06564562,-1.1174469,-0.6891327,-9.710068,26.863098,17.088318,34.410095,-1.3764104,-0.65744644,-9.687292,0.21575224,-0.07579225,-0.8984804,0.3742218,0.064575195,3.5289307
2019-07-01T19:45:04.586Z,0.93111587,0.35757655,-0.07130642,-0.825531,-0.6795654,-9.583252,31.15387,2.861023,35.112,-1.3640174,-0.33916193,-9.705401,0.2173084,-0.31802955,-0.40807533,0.35083008,0.0579834,3.2165985
2019-07-01T19:45:04.778Z,-0.99633336,-0.052602038,0.06652569,-1.0552368,-0.5670929,-9.805786,25.888062,-9.315491,37.226868,-1.2883689,-0.2890179,-9.717354,0.18029797,-0.3403063,-0.2772665,0.34306335,0.059814453,3.234497