rotationVector.y,rotationVector.x,magneticField.y,rotationVector.z,gravity.y,magneticField.z,linearAcceleration.y,gyroscope.y,gravity.x,gyroscope.z,gyroscope.x,magneticField.x,linearAcceleration.z,accelerometer.z,accelerometer.x,accelerometer.y,gravity.z,linearAcceleration.x
-0.012427741,0.010865796,-15.182495,0.99386257,-0.21894188,-34.461975,-0.00014674664,0.00010681152,0.23846824,-0.00015258789,-1.5258789e-05,2.029419,0.0021924973,9.808182,0.23951721,-0.21702576,9.801306,-0.0014279336
-0.0123972185,0.010892545,-15.620422,0.99385506,-0.21827301,-37.75177,0.0015895367,0.00010681152,0.23893927,0.00021362305,0.00010681152,2.708435,0.0022535324,9.804352,0.2400055,-0.21942139,9.801309,0.0014150888
-0.01241283,0.010892366,-16.105652,0.99385536,-0.21857874,-38.046265,-0.0007459372,-7.6293945e-05,0.23896828,3.0517578e-05,-0.0001373291,1.9622803,-0.0015296936,9.806747,0.23760986,-0.2172699,9.801301,-2.9817224e-05
-0.012396655,0.0109122,-15.840149,0.99384993,-0.21820901,-38.39569,-0.00014561415,0.00010681152,0.23933102,-3.0517578e-05,0.00016784668,2.6138306,-0.00025081635,9.806259,0.24047852,-0.21917725,9.801301,0.0012759864
-0.012397693,0.010922346,-15.092468,0.9938473,-0.21820192,-37.654114,-0.0003966689,4.5776367e-05,0.23953599,3.0517578e-05,-1.5258789e-05,2.972412,-1.04904175e-05,9.805069,0.23881531,-0.21751404,9.801296,0.0008265823
-0.012398956,0.010904271,-15.803528,0.993852,-0.21827535,-36.668396,-8.113682e-05,0.00016784668,0.23917729,-0.00021362305,-7.6293945e-05,1.1810303,-0.00016880035,9.805786,0.23880005,-0.21870422,9.801302,-0.0007196367
-0.012395165,0.010890252,-16.079712,0.99385566,-0.21823904,-35.906982,0.0003542453,0.00016784668,0.23888916,-3.0517578e-05,4.5776367e-05,1.4968872,-0.00011730194,9.804108,0.23808289,-0.21990967,9.801311,0.00028724968
-0.012413448,0.010875163,-15.975952,0.9938599,-0.21863718,-38.128662,-0.00094257295,0.00010681152,0.23862568,0.00021362305,-7.6293945e-05,2.7694702,-0.0015192032,9.803635,0.24191284,-0.21679688,9.801309,8.074939e-05
-0.012391145,0.010911998,-14.701843,0.9938499,-0.21810183,-37.69684,0.0011558682,0.00016784668,0.23931548,-0.00021362305,0.00010681152,2.2659302,-0.0005378723,9.80722,0.23880005,-0.21894836,9.801304,0.0017926395
-0.012418443,0.010896366,-15.924072,0.9938544,-0.21867773,-37.50305,-0.0013720244,0.00016784668,0.23905997,-9.1552734e-05,0.00016784668,2.5360107,0.0007543564,9.802444,0.24263,-0.21966553,9.801297,0.00013129413
-0.012413958,0.010944689,-15.46936,0.9938417,-0.21845964,-38.249207,-0.00017283857,-1.5258789e-05,0.24001656,3.0517578e-05,0.00010681152,2.709961,-0.0015802383,9.8029175,0.23904419,-0.21942139,9.801278,0.0022904575
-0.012422898,0.010915752,-15.129089,0.9938494,-0.21871254,-37.789917,-0.0008894652,4.5776367e-05,0.23945679,0.00021362305,-7.6293945e-05,2.406311,-0.0007429123,9.803635,0.23713684,-0.21966553,9.801287,-0.00095517933
-0.012443545,0.010886648,-15.487671,0.9938574,-0.21919471,-38.43689,-0.000641644,0.00016784668,0.23891804,9.1552734e-05,-1.5258789e-05,3.5125732,-0.00049495697,9.804596,0.24047852,-0.21846008,9.801289,-0.0008984357
-0.012402681,0.010892173,-16.200256,0.99385524,-0.21838081,-37.568665,0.0014267415,4.5776367e-05,0.23894323,-9.1552734e-05,0.00010681152,2.7648926,0.0012626648,9.8033905,0.23951721,-0.21583557,9.801306,0.0004955381
-0.012380503,0.0108932555,-16.381836,0.9938546,-0.21794428,-37.809753,0.00072674453,-7.6293945e-05,0.23891862,3.0517578e-05,-7.6293945e-05,2.191162,-0.0017156601,9.803635,0.23760986,-0.21774292,9.801317,0.00031231344
-0.012360222,0.010888333,-15.293884,0.99385554,-0.21756099,-37.5885,0.0010616183,-0.00018310547,0.23877789,-3.0517578e-05,-1.5258789e-05,2.1606445,0.00014591217,9.806747,0.23857117,-0.21846008,9.801329,-0.0009824485
-0.01239273,0.010902987,-16.166687,0.99385226,-0.21815711,-38.29193,-0.00118801,-1.5258789e-05,0.23913865,-9.1552734e-05,-0.0001373291,2.11792,0.0020141602,9.804825,0.2416687,-0.21655273,9.801307,0.0002949685
-0.0123642115,0.01093114,-15.809631,0.99384445,-0.21752353,-38.786316,0.0015328377,-7.6293945e-05,0.23964182,9.1552734e-05,0.00016784668,3.012085,0.0011844635,9.804352,0.2400055,-0.2172699,9.801308,0.00073863566
-0.012355175,0.0109491125,-15.956116,0.9938396,-0.21729834,-38.31787,9.6172094e-05,-0.00012207031,0.2399822,0.00015258789,-0.0001373291,1.965332,-0.0019159317,9.803146,0.23928833,-0.21821594,9.801306,0.00017736852
-0.012381011,0.010958947,-15.460205,0.9938374,-0.21777691,-37.608337,-0.00062930584,-7.6293945e-05,0.24023272,-3.0517578e-05,4.5776367e-05,1.8295288,-0.001282692,9.803635,0.24072266,-0.22061157,9.801288,0.00018639863
-0.012427215,0.0109458305,-15.846252,0.99384165,-0.21871576,-38.49945,-0.002077192,0.00010681152,0.24006705,-0.00015258789,4.5776367e-05,1.4053345,0.00074100494,9.801483,0.23928833,-0.21798706,9.8012705,-0.0003745854
-0.012405949,0.0109085925,-15.647888,0.993851,-0.21840043,-37.739563,0.00045984983,0.00010681152,0.23927827,-0.00021362305,0.00010681152,2.305603,-0.0014266968,9.804596,0.23976135,-0.21894836,9.801297,-0.00075802207
-0.012413879,0.010927868,-15.501404,0.9938461,-0.21850348,-38.206482,-0.00062693655,4.5776367e-05,0.23968014,9.1552734e-05,-7.6293945e-05,3.3538818,4.7683716e-06,9.805069,0.23976135,-0.21607971,9.801285,0.0005028546
-0.012364703,0.010933422,-15.040588,0.99384385,-0.217527,-37.85553,0.0022400469,-7.6293945e-05,0.23968847,9.1552734e-05,4.5776367e-05,2.6535034,0.0012874603,9.80603,0.24072266,-0.21989441,9.801308,6.4074993e-06
-0.012396433,0.010934509,-15.382385,0.9938441,-0.21814448,-37.864685,-0.0014452189,-7.6293945e-05,0.23977648,9.1552734e-05,-1.5258789e-05,2.9571533,0.001332283,9.8033905,0.23713684,-0.21798706,9.801291,0.0006187111
-0.012406115,0.010905177,-14.590454,0.9938519,-0.21841292,-38.450623,-0.00022174418,0.00016784668,0.23921037,3.0517578e-05,-1.5258789e-05,2.746582,-0.000541687,9.805313,0.24047852,-0.2172699,9.801299,-0.0014325529
-0.012389238,0.0109236315,-15.501404,0.99384683,-0.217921,-37.709045,1.7479062e-05,0.00010681152,0.23960412,-3.0517578e-05,0.00010681152,2.3117065,0.0009737015,9.804825,0.24119568,-0.21798706,9.8013,0.0007825792
-0.01238977,0.010873745,-14.752197,0.9938598,-0.21817803,-37.120056,-0.00045353174,4.5776367e-05,0.23854794,-0.00021362305,4.5776367e-05,2.671814,-0.00094890594,9.801712,0.23760986,-0.21702576,9.80132,-0.0019787997
-0.012352031,0.01085866,-16.004944,0.99386317,-0.21748076,-37.365723,0.0012318045,4.5776367e-05,0.23816769,-9.1552734e-05,4.5776367e-05,2.4520874,-0.0011148453,9.804596,0.23736572,-0.21894836,9.801345,-0.00039424002
-0.0123897735,0.0108340345,-16.096497,0.9938702,-0.21828502,-38.050842,-0.0017982274,4.5776367e-05,0.23775415,-0.00021362305,0.00022888184,2.1224976,-0.00043010712,9.805069,0.23832703,-0.221344,9.801337,-0.000677526
-0.012429857,0.010839116,-16.119385,0.99386954,-0.21905506,-38.08441,-0.0024523586,-1.5258789e-05,0.23793927,9.1552734e-05,0.00016784668,2.8457642,0.0008239746,9.80603,0.23832703,-0.2172699,9.801315,0.0005607903
-0.012379625,0.010844803,-15.52887,0.9938672,-0.21805763,-38.119507,0.0015792847,-0.00018310547,0.23794827,-3.0517578e-05,-7.6293945e-05,2.9525757,0.000875473,9.800995,0.23880005,-0.2182312,9.801338,-0.0004195869
-0.01239837,0.010866076,-15.843201,0.993862,-0.21836683,-37.94403,-0.0002863407,4.5776367e-05,0.23841256,0.00015258789,4.5776367e-05,2.6168823,-0.0021276474,9.804825,0.23808289,-0.21966553,9.801319,0.0005759001
-0.012387454,0.010864783,-14.974976,0.99386215,-0.21815687,-37.23755,0.00023327768,4.5776367e-05,0.23836395,-3.0517578e-05,-1.5258789e-05,2.5802612,0.0011358261,9.803635,0.23857117,-0.21607971,9.801325,-0.0003504306
-0.012389079,0.01086815,-15.664673,0.9938613,-0.21817961,-37.32605,-0.00021907687,-0.00024414062,0.23843467,3.0517578e-05,0.00022888184,3.1936646,-0.00020313263,9.803879,0.23641968,-0.22061157,9.801324,0.00054241717
-0.012388507,0.010854009,-15.679932,0.993865,-0.21820648,-38.446045,-0.00069116056,0.00010681152,0.23815076,-0.00015258789,-7.6293945e-05,2.7816772,-0.00093364716,9.805069,0.24191284,-0.221344,9.801329,-0.0017864406
-0.012458019,0.010889071,-15.44342,0.99385697,-0.21947119,-38.11035,-0.0020350069,-7.6293945e-05,0.2389967,3.0517578e-05,-0.0001373291,3.1158447,0.0012989044,9.804596,0.2368927,-0.22061157,9.801281,0.0023705214
-0.01247624,0.010851988,-15.34729,0.9938669,-0.21992734,-38.061523,-0.0006187409,-1.5258789e-05,0.23829328,0.00015258789,-7.6293945e-05,2.39563,-9.8228455e-05,9.805542,0.23880005,-0.21487427,9.801288,-0.0014715493
-0.012379456,0.010868636,-15.667725,0.993861,-0.21799015,-37.731934,0.0039105713,0.00010681152,0.2384243,1.5258789e-05,0.00016784668,1.9821167,0.0012168884,9.805557,0.23736572,-0.2172699,9.801328,0.00029096007
-0.012375931,0.01084622,-15.95459,0.9938668,-0.21798158,-37.64038,-0.0003902763,0.00010681152,0.23796889,7.6293945e-05,0.00010681152,2.0523071,0.00096797943,9.803879,0.24072266,-0.21774292,9.801339,-0.00045534968
-0.012339188,0.010900441,-15.657043,0.9938521,-0.21711709,-37.73651,0.000879094,4.5776367e-05,0.23897599,-9.1552734e-05,4.5776367e-05,2.1438599,-0.0016031265,9.800766,0.24072266,-0.2163086,9.801333,0.002386108
-0.012356833,0.010916491,-16.700745,0.99384815,-0.21741879,-37.18109,-0.0005161613,-1.5258789e-05,0.23933363,-9.1552734e-05,-1.5258789e-05,1.8600464,-0.0017108917,9.80722,0.23904419,-0.21989441,9.801318,0.0008433759
-0.012387802,0.010903369,-15.760803,0.9938521,-0.21805972,-38.459778,-0.0010423064,0.00022888184,0.23913598,9.1552734e-05,-1.5258789e-05,2.697754,0.0020580292,9.806503,0.23760986,-0.21511841,9.801309,-0.00064730644
-0.012331485,0.010863018,-15.153503,0.99386173,-0.2170673,-37.67395,0.0017904043,-7.6293945e-05,0.23821193,-0.00021362305,4.5776367e-05,3.1326294,0.0010385513,9.805069,0.23857117,-0.2182312,9.8013525,-0.00094021857
-0.012352349,0.010876613,-15.699768,0.9938585,-0.21743864,-37.687683,-0.0014157444,-1.5258789e-05,0.2385272,0.00015258789,0.00022888184,2.6260376,0.0007009506,9.803879,0.24047852,-0.21846008,9.801337,0.00016975403
-0.012350533,0.010909623,-17.144775,0.9938499,-0.21731414,-38.516235,-0.00011180341,-7.6293945e-05,0.23918319,9.1552734e-05,4.5776367e-05,2.7160645,-0.0019359589,9.803635,0.24023438,-0.21679688,9.801324,0.001215145
-0.012352907,0.010931101,-15.579224,0.9938443,-0.21730262,-37.91809,9.860098e-05,-1.5258789e-05,0.23961745,0.0001373291,-1.5258789e-05,3.2714844,-0.00065135956,9.804596,0.23832703,-0.21846008,9.801314,0.0010325313
-0.012368355,0.010901884,-15.403748,0.99385214,-0.2176835,-38.00659,-0.00070141256,4.5776367e-05,0.23906574,-0.00015258789,-0.0001373291,2.6351929,0.0008382797,9.8033905,0.23832703,-0.21894836,9.801319,-0.0010654181
-0.012374159,0.010905998,-16.0141,0.9938512,-0.21778587,-38.113403,9.967387e-05,0.00010681152,0.23916006,-9.1552734e-05,4.5776367e-05,2.204895,-0.001666069,9.804825,0.24047852,-0.21583557,9.801314,6.598234e-05
-0.0123430025,0.010894782,-15.316772,0.9938536,-0.21720693,-38.104248,0.0011958331,4.5776367e-05,0.23887084,-0.00010681152,-1.5258789e-05,1.7547607,0.0011119843,9.806747,0.24023438,-0.2182312,9.801334,9.790063e-05
-0.012362547,0.010918761,-16.435242,0.99384767,-0.21752441,-38.433838,-0.0006222725,0.00010681152,0.23939092,-0.00015258789,-7.6293945e-05,2.4261475,0.0013809204,9.803879,0.24072266,-0.21702576,9.801314,0.0012387335
-0.012367245,0.010924788,-16.033936,0.9938462,-0.21759999,-38.404846,0.0001578182,0.00010681152,0.2395212,-9.1552734e-05,-1.5258789e-05,1.8798828,-0.0011558533,9.804825,0.23976135,-0.21870422,9.80131,0.0006340742
-0.012385608,0.010923018,-15.551758,0.9938469,-0.21796383,-38.14087,-0.0006714165,4.5776367e-05,0.23952419,-0.00021362305,4.5776367e-05,1.5029907,-0.00029563904,9.802444,0.23951721,-0.21917725,9.801302,0.0004055053
-0.012391298,0.010930082,-15.414429,0.99384516,-0.218056,-38.002014,-0.0005900562,4.5776367e-05,0.23967724,3.0517578e-05,4.5776367e-05,2.4734497,-0.0009937286,9.803162,0.23617554,-0.21679688,9.801295,0.0002643019
-0.012358568,0.010875299,-15.270996,0.99385893,-0.21756376,-36.99646,0.0005879253,-7.6293945e-05,0.23851389,3.0517578e-05,-1.5258789e-05,2.56958,-0.00066661835,9.8033905,0.23976135,-0.21702576,9.801334,-0.0021642148
-0.012358804,0.010884119,-15.711975,0.99385667,-0.21754462,-37.532043,0.00056913495,4.5776367e-05,0.23869069,9.1552734e-05,4.5776367e-05,2.4642944,3.8146973e-05,9.803162,0.23904419,-0.21702576,9.801331,0.00029832125
-0.012415763,0.010947284,-15.054321,0.99384105,-0.21848792,-37.92572,-0.0020803362,-1.5258789e-05,0.24007222,-0.00021362305,-1.5258789e-05,2.407837,-0.0012636185,9.8033905,0.24240112,-0.22109985,9.801276,0.0027543157
-0.012414536,0.010937238,-15.937805,0.9938437,-0.21849105,-38.44452,7.18385e-05,-7.6293945e-05,0.23986883,-9.1552734e-05,-1.5258789e-05,3.3325195,-0.00019741058,9.805069,0.23808289,-0.21751404,9.801281,-0.00086951256
-0.012408716,0.010900309,-14.779663,0.9938532,-0.21847686,-38.28125,6.464124e-05,-0.00018310547,0.23911847,0.00015258789,-7.6293945e-05,3.225708,0.0006608963,9.805313,0.23713684,-0.21751404,9.801299,-0.0013168603
-0.012375963,0.010872754,-14.907837,0.9938599,-0.21791072,-38.04779,0.0011746734,-7.6293945e-05,0.23849931,3.0517578e-05,4.5776367e-05,2.4154663,0.001250267,9.804596,0.23928833,-0.2163086,9.801327,-0.0019173324
-0.012364415,0.01089867,-15.623474,0.9938529,-0.21761511,-38.305664,0.00041003525,0.00016784668,0.23899326,3.0517578e-05,-1.5258789e-05,1.4984131,0.00035476685,9.801712,0.23904419,-0.2172699,9.801322,0.00094103813
-0.012355525,0.010901019,-16.229248,0.9938522,-0.21743497,-38.157654,0.00070118904,-7.6293945e-05,0.23902166,0.0002593994,-0.00019836426,2.2766113,-0.0015249252,9.80603,0.23951721,-0.21679688,9.801326,0.00044296682
-0.012344193,0.0109016355,-15.286255,0.99385184,-0.21721172,-37.890625,0.0011948794,-1.5258789e-05,0.2390103,-0.00021362305,4.5776367e-05,2.2399902,0.0013904572,9.8029175,0.23976135,-0.21583557,9.801331,-3.527105e-05
-0.012331586,0.010923788,-15.722656,0.9938458,-0.21690549,-38.475037,0.00018283725,-0.00012207031,0.23942675,-9.1552734e-05,0.00016784668,3.262329,-0.00035762787,9.805313,0.23904419,-0.21583557,9.801328,0.00074252486
-0.012301233,0.010927011,-15.608215,0.9938445,-0.21630329,-38.01117,0.0005340725,-0.00012207031,0.23942778,9.1552734e-05,4.5776367e-05,1.7410278,0.0007209778,9.8022,0.23880005,-0.21655273,9.801341,-0.000930056
-0.012296418,0.010913266,-16.142273,0.993848,-0.21624625,-37.625122,-0.00025254488,0.00016784668,0.23914301,-9.1552734e-05,0.00022888184,2.5268555,-0.0011205673,9.8033905,0.23904419,-0.2172699,9.80135,-0.00040259957
-0.012299842,0.010899402,-15.55481,0.99385166,-0.21635059,-39.73236,-0.00062052906,0.00016784668,0.2388731,0.00021362305,-1.5258789e-05,3.4194946,5.054474e-05,9.803879,0.23832703,-0.21678162,9.801353,-0.0001333803
-0.012301115,0.010877835,-16.755676,0.9938573,-0.2164336,-41.349792,-6.7830086e-05,-7.6293945e-05,0.23844469,0.00045776367,0.00016784668,3.8375854,-0.00029468536,9.804352,0.23951721,-0.21798706,9.801361,-0.0004183203
-0.012323009,0.010901093,-15.499878,0.9938516,-0.216799,-40.881348,-0.0013753325,-1.5258789e-05,0.23895526,-0.00010681152,0.00010681152,4.1366577,0.00043964386,9.801712,0.23857117,-0.21821594,9.801342,0.0009875596
-0.012327344,0.010898663,-15.458679,0.9938523,-0.2168903,-39.831543,-0.00080645084,4.5776367e-05,0.23891573,-9.1552734e-05,0.00016784668,2.697754,-0.0009813309,9.803879,0.23832703,-0.21702576,9.80134,-0.0003954023
-0.0123229455,0.010877434,-16.351318,0.9938578,-0.2168615,-40.948486,-0.0006031692,-0.00012207031,0.23848224,9.1552734e-05,-7.6293945e-05,3.3752441,0.0002975464,9.805313,0.23568726,-0.21774292,9.801351,-0.0009266436
-0.012344768,0.010839492,-16.973877,0.99386805,-0.21739037,-37.623596,-0.00030121207,-1.5258789e-05,0.23776944,-0.0002746582,-0.0001373291,2.0874023,0.000207901,9.801483,0.23713684,-0.21678162,9.801357,-0.0018941909
-0.012329534,0.0108314315,-15.621948,0.9938699,-0.21711418,-38.772583,0.0003746152,-1.5258789e-05,0.23757656,-0.0002746582,4.5776367e-05,3.666687,-0.00082206726,9.801727,0.23760986,-0.21751404,9.801368,-1.2725592e-05
-0.012334763,0.010844508,-15.7196045,0.9938666,-0.21718127,-39.079285,-6.142259e-05,0.00010681152,0.23784885,0.0002593994,-1.5258789e-05,3.2577515,-0.0013494492,9.804108,0.23880005,-0.21655273,9.80136,0.00020422041
-0.012330756,0.010832847,-15.989685,0.99386954,-0.21713425,-38.04779,0.00037570298,0.00010681152,0.23760739,-0.00010681152,4.5776367e-05,2.6107788,0.0010118484,9.806747,0.23712158,-0.21702576,9.801366,-3.9458275e-05
-0.012327259,0.010828064,-15.065002,0.99387074,-0.21707879,-37.31842,-0.00012405217,4.5776367e-05,0.23750451,3.0517578e-05,4.5776367e-05,2.3330688,0.0025930405,9.803635,0.23808289,-0.21702576,9.801371,0.00027610362
-0.01231008,0.010827535,-15.50293,0.9938706,-0.2167443,-37.82959,0.0005003959,-7.6293945e-05,0.23745811,-3.0517578e-05,0.00010681152,3.3569336,-0.00019645691,9.805069,0.23640442,-0.21751404,9.801378,8.08835e-05
-0.012318992,0.010829052,-14.743042,0.9938704,-0.21691449,-38.552856,-0.0010073334,0.00010681152,0.23750703,-3.0517578e-05,4.5776367e-05,2.6611328,2.9563904e-05,9.80101,0.23808289,-0.21559143,9.801374,-0.00021275878
-0.012298054,0.010834089,-16.720581,0.9938687,-0.21649154,-39.292908,0.0009441823,-1.5258789e-05,0.23756404,-0.00015258789,0.00010681152,3.5324097,-0.0018939972,9.8029175,0.23857117,-0.2163086,9.801382,0.00024162233
-0.012292227,0.010840608,-14.9383545,0.9938669,-0.21636005,-38.68103,-0.00015714765,0.00016784668,0.23768215,-0.00033569336,4.5776367e-05,2.972412,-0.000790596,9.802673,0.23857117,-0.21702576,9.801381,0.0006058365
-0.012280422,0.010845583,-15.162659,0.99386543,-0.21611586,-38.37738,0.0003117025,0.00010681152,0.237757,0.00021362305,-1.5258789e-05,1.8371582,-0.00038051605,9.803879,0.23904419,-0.21583557,9.801386,0.00077962875
-0.012293272,0.010853297,-15.873718,0.99386364,-0.21634632,-39.253235,-0.000636369,-1.5258789e-05,0.23793793,0.0001373291,-1.5258789e-05,3.088379,0.0010251999,9.800766,0.23712158,-0.21583557,9.801375,0.00058588386
-0.012288311,0.010841516,-15.724182,0.9938666,-0.21628104,-37.9776,0.00046767294,-1.5258789e-05,0.23769213,-0.00015258789,4.5776367e-05,2.2201538,-0.0018672943,9.8029175,0.23736572,-0.21751404,9.801383,-0.00059495866
-0.012287509,0.010832426,-15.718079,0.99386895,-0.21628982,-37.8006,-0.00022982061,0.00010681152,0.23750882,-0.00010681152,-7.6293945e-05,3.42865,0.0009908676,9.803879,0.2400055,-0.2163086,9.801388,-0.00017945468
-0.012306223,0.010872961,-16.107178,0.9938587,-0.21654658,-38.659668,-0.00022342801,0.00010681152,0.23835793,-0.00022888184,-1.5258789e-05,4.046631,-0.000620842,9.8029175,0.23617554,-0.21702576,9.80136,0.0018468648
-0.012322779,0.010819029,-15.391541,0.99387306,-0.21701548,-38.16223,-0.00092998147,0.00016784668,0.2373146,-0.00015258789,-1.5258789e-05,2.7954102,0.0013408661,9.804108,0.23857117,-0.2172699,9.801376,-0.0014286786
-0.012324682,0.010832334,-15.223694,0.9938696,-0.2170169,-37.615967,3.3959746e-05,0.00010681152,0.23758447,-0.0002746582,4.5776367e-05,3.2104492,8.678436e-05,9.8029175,0.23927307,-0.21870422,9.80137,0.00093981624
-0.012341077,0.010859647,-15.50293,0.99386275,-0.21726395,-37.979126,-0.0009248704,0.00022888184,0.23816456,-9.1552734e-05,-1.5258789e-05,3.3554077,-0.00011539459,9.801956,0.23951721,-0.21487427,9.80135,0.0020233542
-0.012302858,0.010871326,-16.394043,0.99385905,-0.21648522,-38.978577,0.0016398281,-1.5258789e-05,0.23831826,-0.00016784668,0.00010681152,2.987671,-0.0011873245,9.804108,0.23736572,-0.21846008,9.801364,0.00045001507
-0.012325726,0.01085348,-14.993286,0.9938641,-0.21698041,-37.574768,-0.0014416575,-0.00018310547,0.23800929,-0.00021362305,4.5776367e-05,3.3798218,0.0008010864,9.801239,0.23808289,-0.21749878,9.80136,-0.00044114888
-0.012325671,0.010850609,-14.926147,0.99386483,-0.21698706,-38.339233,-0.00024922192,0.00016784668,0.23795183,-0.00035095215,4.5776367e-05,2.09198,0.00051021576,9.800522,0.23760986,-0.21655273,9.801362,-0.00014995039
-0.0123061,0.010845114,-16.160583,0.99386597,-0.21661916,-36.520386,0.0005555749,0.00016784668,0.23780113,-0.00035095215,4.5776367e-05,1.3259888,-0.0015802383,9.8033905,0.23832703,-0.21774292,9.801373,0.0005082041
-0.012316211,0.010844963,-15.281677,0.99386615,-0.2168173,-34.840393,-0.0004144162,0.00016784668,0.23781922,-0.0002746582,-1.5258789e-05,1.5411377,0.0019750595,9.803635,0.23880005,-0.21583557,9.801369,0.0004659593
-0.012293845,0.01083296,-15.731812,0.99386895,-0.21641228,-38.246155,0.0008556545,0.00016784668,0.23753269,-0.00035095215,-1.5258789e-05,3.1845093,-0.00028705597,9.806274,0.23760986,-0.21679688,9.801384,0.00028310716
-0.012327178,0.010857427,-15.570068,0.9938631,-0.21699816,-38.417053,-0.0011783987,-1.5258789e-05,0.2380912,-0.00015258789,4.5776367e-05,4.475403,0.0017318726,9.803879,0.24047852,-0.21989441,9.801357,0.0011371821
-0.012353924,0.010870801,-15.78064,0.99386007,-0.21748511,-39.097595,-0.0014075488,4.5776367e-05,0.23841435,-0.00035095215,4.5776367e-05,3.414917,2.9563904e-05,9.803162,0.2359314,-0.21607971,9.80134,0.0010418147
-0.012331529,0.010831735,-15.460205,0.9938699,-0.21715239,-38.104248,0.00066545606,-1.5258789e-05,0.23758678,-0.00015258789,0.00010681152,2.87323,0.0009765625,9.8033905,0.24095154,-0.21942139,9.801367,-0.0017273873
-0.012366019,0.010884787,-15.795898,0.9938566,-0.2176839,-38.414,-0.0014422536,-1.5258789e-05,0.23871909,-3.0517578e-05,-1.5258789e-05,3.2577515,-0.0014266968,9.805542,0.23760986,-0.2182312,9.801327,0.0021764338
-0.012367098,0.010861843,-15.161133,0.99386257,-0.21776679,-37.101746,-0.00015513599,-7.6293945e-05,0.23826274,-0.00021362305,-7.6293945e-05,2.0111084,0.0012750626,9.805786,0.23976135,-0.21846008,9.801336,-0.00072413683
-0.012394095,0.010887517,-15.704346,0.9938563,-0.21822546,-37.716675,-0.0008800924,0.00016784668,0.23883224,-9.1552734e-05,-1.5258789e-05,1.4190674,0.00053691864,9.8022,0.23832703,-0.21942139,9.8013115,0.0008506477
-0.012393996,0.010883624,-15.655518,0.9938573,-0.21823403,-37.96234,6.0722232e-05,4.5776367e-05,0.23875421,3.0517578e-05,0.00010681152,2.142334,-0.0012407303,9.802444,0.23808289,-0.2141571,9.801313,-1.7508864e-05
-0.012338673,0.01086295,-15.682983,0.99386185,-0.21720804,-37.695312,0.0018950999,0.00022888184,0.23822558,-0.00015258789,-7.6293945e-05,2.8671265,-0.00067043304,9.8033905,0.23880005,-0.21559143,9.80135,-0.0004259646
-0.012326626,0.010862015,-15.498352,0.9938619,-0.21697502,-38.267517,0.00048094988,0.0,0.23818177,-0.00021362305,-7.6293945e-05,1.1810303,0.00081920624,9.805069,0.24023438,-0.22013855,9.801356,0.00055390596
-0.012337386,0.01090369,-15.571594,0.9938512,-0.2170731,-39.605713,9.8496675e-05,0.00022888184,0.23903717,-0.00039672852,0.00010681152,2.1331787,-0.0007247925,9.805542,0.24023438,-0.21536255,9.801333,0.0018580407
-0.012351835,0.010898697,-15.736389,0.99385273,-0.21736908,-37.416077,-0.00080536306,4.5776367e-05,0.23896755,3.0517578e-05,-1.5258789e-05,3.1906128,0.0004644394,9.8033905,0.23951721,-0.2172699,9.801329,0.0007314086
-0.012317831,0.010906724,-15.447998,0.99385005,-0.21668254,-37.35504,0.0011632144,-1.5258789e-05,0.23905697,-0.00021362305,0.00010681152,3.1219482,0.0014276505,9.805313,0.2400055,-0.21607971,9.801341,0.00015179813
-0.012301836,0.010924651,-15.361023,0.9938451,-0.21632147,-37.678528,0.00030492246,0.0,0.23938188,-0.00015258789,0.00010681152,2.2384644,-0.0008125305,9.806747,0.2416687,-0.21917725,9.801342,0.0007826239
-0.012360752,0.01097949,-15.733337,0.99383175,-0.21732526,-37.869263,-0.0027263314,4.5776367e-05,0.24060097,-0.00015258789,4.5776367e-05,3.187561,0.0020093918,9.804825,0.24263,-0.21894836,9.801289,0.0021768808
-0.01237295,0.010988137,-15.026855,0.99382967,-0.2175404,-36.50818,-0.00012341142,-7.6293945e-05,0.2407993,1.5258789e-05,-0.0001373291,2.9846191,-0.0007352829,9.801712,0.2400055,-0.21702576,9.801279,0.0005529672
-0.01240796,0.01098187,-16.281128,0.9938319,-0.21824189,-38.334656,-0.00086300075,-7.6293945e-05,0.24074724,-0.00015258789,-7.6293945e-05,2.59552,-0.0006351471,9.805313,0.23951721,-0.22038269,9.801265,-0.0005926937
-0.012422974,0.010947615,-16.1026,0.9938411,-0.21862802,-36.920166,-0.00047816336,-0.00018310547,0.24009387,-0.00015258789,0.00010681152,2.130127,-0.00010585785,9.805557,0.23808289,-0.2163086,9.801272,-0.0013718605
-0.0123602105,0.010931374,-15.815735,0.99384433,-0.21744469,-37.61139,0.0019275844,0.00022888184,0.23963815,-0.00015258789,4.5776367e-05,1.979065,0.0004081726,9.804596,0.23976135,-0.2172699,9.801311,-0.001393035
-0.012358437,0.010914051,-15.255737,0.9938488,-0.21745674,-39.001465,-0.00021409988,4.5776367e-05,0.2392882,-0.00035095215,-1.5258789e-05,3.6819458,-0.00021457672,9.8033905,0.23857117,-0.21655273,9.801318,0.00014971197
-0.0123779345,0.010863858,-15.658569,0.9938623,-0.21797325,-37.73651,-0.0023577064,4.5776367e-05,0.23832561,-9.1552734e-05,4.5776367e-05,2.1438599,-0.0016994476,9.802444,0.23976135,-0.21511841,9.80133,-0.001245305
-0.0123180635,0.010898478,-16.442871,0.9938522,-0.21670933,-38.05542,0.0023538321,4.5776367e-05,0.23889264,-0.0002746582,-1.5258789e-05,2.3468018,-0.00049495697,9.805313,0.23832703,-0.21534729,9.801344,0.0012913197
-0.012293204,0.010884614,-16.452026,0.9938554,-0.21626063,-39.179993,0.00095143914,0.00010681152,0.23856367,-0.00021362305,4.5776367e-05,2.0980835,-0.00064468384,9.8029175,0.2359314,-0.2182312,9.801362,-0.000751704
-0.012315075,0.010838109,-15.397644,0.99386793,-0.21681353,-37.257385,-0.0015866905,4.5776367e-05,0.23767988,-0.0002746582,0.00016784668,2.8015137,0.0019521713,9.802673,0.23880005,-0.21678162,9.801373,-0.0010969341
-0.012314046,0.0108335065,-15.72113,0.9938691,-0.21680576,-38.354492,-0.00016519427,-1.5258789e-05,0.23758572,3.0517578e-05,-1.5258789e-05,2.217102,-0.0004606247,9.803879,0.23976135,-0.21894836,9.8013735,-3.59118e-05
-0.012350773,0.010866402,-16.473389,0.99386114,-0.21743536,-38.163757,-0.0012166351,0.00016784668,0.23831983,-0.0004119873,-7.6293945e-05,2.9907227,-0.00030612946,9.805542,0.24047852,-0.21534729,9.801343,0.0013842881
-0.012327762,0.010932812,-15.534973,0.99384344,-0.21680634,-38.49182,0.0015162975,-0.00018310547,0.2395991,-0.00016784668,4.5776367e-05,2.786255,0.0004377365,9.8029175,0.237854,-0.21774292,9.801325,0.0027235001
-0.012333126,0.010883932,-15.800476,0.99385625,-0.21704304,-38.638306,-0.0006521344,4.5776367e-05,0.23863336,-0.00016784668,-1.5258789e-05,3.17688,-0.00082588196,9.803635,0.24047852,-0.2182312,9.801343,-0.0022661835
-0.01234972,0.010916658,-15.44342,0.99384797,-0.21727929,-37.61444,-0.0011260808,0.00010681152,0.23932213,-9.1552734e-05,0.00016784668,2.0736694,0.0005617142,9.804352,0.24143982,-0.21966553,9.801322,0.0015691519
-0.012395334,0.010927218,-16.131592,0.993846,-0.21814266,-37.854004,-0.0021783859,-7.6293945e-05,0.23962845,-0.0002746582,4.5776367e-05,2.6855469,0.0005311966,9.804352,0.23857117,-0.21798706,9.801295,0.0010264814
-0.012367152,0.010924309,-15.380859,0.9938463,-0.21759944,-37.490845,0.0008828938,0.00016784668,0.2395114,-0.00015258789,0.00010681152,3.0410767,0.00035572052,9.8029175,0.23857117,-0.21846008,9.801309,-0.0005388409
-0.012383846,0.010907368,-15.983582,0.993851,-0.21797156,-37.40387,-0.00091950595,-1.5258789e-05,0.23920766,-3.0517578e-05,-7.6293945e-05,1.6494751,-0.0007238388,9.803879,0.23832703,-0.22132874,9.801309,-0.00022634864
-0.01244789,0.010869649,-15.1397705,0.99386185,-0.21932547,-37.860107,-0.002428323,0.00010681152,0.23858729,-0.00015258789,-7.6293945e-05,2.2460938,0.00047588348,9.803162,0.23857117,-0.21894836,9.801294,-0.001290366
-0.012431783,0.010859856,-15.837097,0.9938642,-0.2190369,-38.77411,0.0011038631,0.00035095215,0.23835792,-0.00015258789,4.5776367e-05,2.6107788,-0.0008049011,9.806992,0.23832703,-0.21846008,9.801306,0.00038334727
-0.012429042,0.010859424,-16.325378,0.99386424,-0.21898448,-38.015747,0.000105559826,-1.5258789e-05,0.23834357,-0.000289917,0.00010681152,1.9515991,0.00137043,9.805542,0.23976135,-0.21679688,9.801308,0.0006250292
-0.012376152,0.010868499,-16.06903,0.993861,-0.21792592,-37.835693,0.0014468431,0.000289917,0.23841469,-0.00021362305,-1.5258789e-05,2.5283813,0.0004272461,9.804825,0.23928833,-0.21774292,9.80133,0.0005489439
-0.012363301,0.010860479,-16.506958,0.99386287,-0.21769623,-37.322998,0.0005030483,0.00016784668,0.23822758,3.0517578e-05,-1.5258789e-05,2.5939941,0.00027656555,9.804352,0.24047852,-0.2182312,9.801339,0.0007326752
-0.012392376,0.010890423,-14.630127,0.99385554,-0.21818402,-37.38098,-0.00091536343,4.5776367e-05,0.23888676,-9.1552734e-05,-7.6293945e-05,2.2720337,1.6212463e-05,9.806259,0.23951721,-0.21870422,9.8013115,0.0019795597
-0.012379425,0.010889376,-15.501404,0.9938556,-0.21793362,-38.130188,0.0005134046,-0.00012207031,0.23883878,-3.0517578e-05,0.00016784668,3.3538818,0.0014543533,9.806274,0.23904419,-0.21702576,9.801318,0.0001026243
-0.012393946,0.010905305,-15.869141,0.99385166,-0.21817462,-37.85858,-0.00090657175,0.00016784668,0.23918751,-9.1552734e-05,-7.6293945e-05,2.2140503,0.000166893,9.805542,0.23736572,-0.22013855,9.801305,0.00022439659
-0.012389941,0.010871304,-15.386963,0.9938605,-0.21818796,-37.90741,4.49121e-05,4.5776367e-05,0.2384995,3.0517578e-05,-1.5258789e-05,4.0039062,-0.00068569183,9.805069,0.24023438,-0.21583557,9.801321,-0.0009860247
-0.012356278,0.01089161,-16.215515,0.99385464,-0.21747503,-38.287354,0.0014949739,-7.6293945e-05,0.23883514,-9.1552734e-05,-1.5258789e-05,3.5629272,-0.0003080368,9.802673,0.23928833,-0.21917725,9.801329,0.0010776669
-0.012391773,0.010906307,-15.707397,0.99385136,-0.21812944,-38.586426,-0.001463905,-1.5258789e-05,0.23920302,-3.0517578e-05,0.00010681152,2.3757935,-0.0011587143,9.801239,0.24023438,-0.21917725,9.801306,0.00023503602
-0.012408045,0.010918988,-15.0177,0.9938483,-0.21841337,-37.71515,-0.00071398914,-1.5258789e-05,0.23949045,-0.00021362305,4.5776367e-05,2.9785156,-0.002046585,9.804825,0.24143982,-0.2163086,9.801291,0.0006892383
-0.012358619,0.010916088,-16.607666,0.99384826,-0.2174548,-37.446594,0.00026361644,4.5776367e-05,0.2393293,-3.0517578e-05,4.5776367e-05,3.2302856,0.0016384125,9.804108,0.23857117,-0.21606445,9.801317,-0.0010889024
-0.012339109,0.010917436,-15.405273,0.9938476,-0.2170697,-37.78076,0.0010762662,0.00010681152,0.23931551,-0.000289917,-0.0001373291,2.6382446,-0.00065517426,9.803635,0.23928833,-0.2182312,9.801327,-0.00010550022
-0.012366295,0.010886991,-15.8706665,0.993856,-0.21768336,-38.534546,-0.0009562075,0.00010681152,0.23876376,-0.0002746582,-7.6293945e-05,2.1270752,-0.00060272217,9.803635,0.23904419,-0.21774292,9.801327,-0.00050765276
-0.012362418,0.01088467,-16.018677,0.99385655,-0.21761382,-38.83362,0.00040586293,0.00016784668,0.23870926,-0.00035095215,-7.6293945e-05,3.1661987,-0.00024032593,9.805786,0.23832703,-0.21798706,9.80133,0.000266999
-0.012374199,0.010869327,-13.923645,0.9938608,-0.2178855,-38.246155,-0.00028009713,4.5776367e-05,0.23842715,-0.00021362305,4.5776367e-05,2.9403687,0.00031471252,9.801483,0.24023438,-0.21894836,9.80133,7.222593e-05
-0.012385056,0.010899625,-15.457153,0.99385303,-0.21801612,-38.13629,-0.00040227175,-1.5258789e-05,0.23905541,-3.0517578e-05,-7.6293945e-05,1.826477,-0.0021915436,9.803879,0.237854,-0.21870422,9.8013115,0.0011332333
-0.012391083,0.010890376,-15.814209,0.99385554,-0.2181589,-37.986755,-1.8537045e-05,-1.5258789e-05,0.23888312,-3.0517578e-05,4.5776367e-05,1.9744873,0.0010967255,9.804108,0.23880005,-0.2182312,9.801312,-0.000614956
-0.012406037,0.010871749,-14.994812,0.99386066,-0.21850146,-37.423706,-0.0011089593,4.5776367e-05,0.23854196,-9.1552734e-05,4.5776367e-05,3.3813477,9.441376e-05,9.804596,0.23928833,-0.21917725,9.801312,-0.00027507544
-0.012387348,0.010889761,-16.313171,0.99385566,-0.21808755,-38.16986,0.00063453615,0.00016784668,0.23886305,-0.00021362305,0.00010681152,2.1102905,0.000538826,9.803146,0.237854,-0.21368408,9.801315,0.0008314699
-0.012336903,0.010858929,-15.759277,0.99386287,-0.21718425,-37.435913,0.0016426891,0.00010681152,0.23814149,9.1552734e-05,4.5776367e-05,1.739502,-0.0009288788,9.804596,0.23976135,-0.22062683,9.801352,-0.0008304566
-0.012392027,0.010895869,-14.785767,0.9938541,-0.21816257,-37.70752,-0.0019175857,-7.6293945e-05,0.23899491,-9.1552734e-05,-1.5258789e-05,2.1026611,0.00066280365,9.805069,0.23928833,-0.21536255,9.801311,0.0016637892
-0.012297103,0.010882475,-14.89563,0.9938561,-0.21634266,-38.023376,0.0034409165,0.00010681152,0.2385291,-9.1552734e-05,-1.5258789e-05,3.704834,0.0007543564,9.806259,0.23928833,-0.21655273,9.801362,-0.0007469505
-0.012355221,0.01090765,-15.182495,0.9938504,-0.21741115,-38.26294,-0.0023900568,4.5776367e-05,0.23915355,-0.0002746582,4.5776367e-05,2.6443481,0.002412796,9.801727,0.23832703,-0.2163086,9.801323,0.0014665574
-0.01227107,0.010868311,-15.95459,0.99385935,-0.21587181,-38.21411,0.0029613227,-0.00012207031,0.2381917,-9.1552734e-05,0.00010681152,3.0929565,-0.0031766891,9.803146,0.24023438,-0.21607971,9.801381,-0.0016054064
-0.012318419,0.0109204035,-15.606689,0.9938465,-0.21665715,-40.95764,-0.0017494708,-7.6293945e-05,0.23933159,-0.0002746582,-0.0001373291,3.6499023,-0.0003633499,9.803635,0.23760986,-0.21942139,9.801334,0.0015608817
-0.012368146,0.010879653,-15.385437,0.993858,-0.21773934,-38.91449,-0.0016397685,4.5776367e-05,0.23862092,-9.1552734e-05,-1.5258789e-05,2.7893066,-0.0010309219,9.8022,0.2400055,-0.21751404,9.801329,-0.001530394
-0.012355469,0.010904416,-15.789795,0.9938513,-0.2174247,-39.24408,0.0006713122,-7.6293945e-05,0.23908943,-9.1552734e-05,-7.6293945e-05,3.251648,0.00010681152,9.803879,0.23641968,-0.21679688,9.801324,0.00086824596
-0.012359972,0.010867515,-15.985107,0.993861,-0.21761219,-37.825012,-0.00032907724,0.00016784668,0.23836124,-0.00021362305,4.5776367e-05,2.6916504,0.00023460388,9.804596,0.23808289,-0.21774292,9.801337,-0.0015187114
-0.012336457,0.010861161,-15.312195,0.9938623,-0.21716954,-37.623596,0.0004323125,-7.6293945e-05,0.2381852,-9.1552734e-05,0.00010681152,2.9632568,0.0012693405,9.806259,0.23808289,-0.2163086,9.801352,7.639825e-05
-0.012324727,0.010859717,-15.313721,0.99386245,-0.21694408,-38.224792,0.00022657216,4.5776367e-05,0.23813188,-0.00015258789,-1.5258789e-05,2.8793335,0.0018033981,9.803635,0.23928833,-0.21894836,9.801358,-0.00036498904
-0.012364836,0.010871542,-15.808105,0.99386,-0.21769649,-39.086914,-0.0014191717,4.5776367e-05,0.23845191,-3.0517578e-05,0.00016784668,3.012085,-0.0016775131,9.803162,0.23832703,-0.21774292,9.801334,0.0007689595
-0.012328688,0.010869808,-15.951538,0.9938599,-0.21699432,-38.168335,0.00074344873,0.00010681152,0.2383418,-0.0002746582,-7.6293945e-05,2.0477295,-0.0003232956,9.80603,0.24047852,-0.21846008,9.801351,0.00016598403
-0.012371973,0.010892527,-15.67688,0.99385464,-0.21777946,-38.40332,-0.0013256371,4.5776367e-05,0.23888625,-0.00015258789,0.00016784668,1.7364502,0.0012178421,9.805313,0.23808289,-0.21655273,9.801321,0.0015131086
-0.012327174,0.01086785,-15.771484,0.99386036,-0.21697001,-38.4552,0.0012041032,4.5776367e-05,0.23829953,9.1552734e-05,4.5776367e-05,2.5375366,-0.0001487732,9.801483,0.23928833,-0.21655273,9.801353,-0.0010103285
-0.012333342,0.010899827,-15.888977,0.99385214,-0.21700442,-38.64441,-0.00020892918,-1.5258789e-05,0.2389515,3.0517578e-05,-1.5258789e-05,2.9296875,-0.0012168884,9.800522,0.23976135,-0.21583557,9.801336,0.0009917319
-0.0123191755,0.010900572,-15.109253,0.9938517,-0.21672545,-37.498474,0.00044316053,0.00010681152,0.23893684,-0.00015258789,0.00016784668,2.7328491,-0.0027284622,9.803879,0.23832703,-0.2172699,9.801344,0.00032249093
-0.012306449,0.010888126,-15.904236,0.99385476,-0.21651015,-37.287903,-0.00025059283,0.00010681152,0.2386615,-3.0517578e-05,0.00010681152,2.861023,0.00088882446,9.804596,0.24024963,-0.21583557,9.801354,-0.00013016164
-0.012295186,0.010895227,-15.054321,0.9938527,-0.21627079,-37.820435,0.00025956333,0.00016784668,0.23877992,-0.00015258789,-1.5258789e-05,3.5354614,0.0015439987,9.8029175,0.2368927,-0.21894836,9.801357,0.0006785244
-0.012340806,0.010863655,-15.931702,0.9938617,-0.21724786,-37.771606,-0.0018854141,0.00016784668,0.23824413,-0.00021362305,0.00010681152,3.4973145,-0.0008878708,9.803162,0.24047852,-0.21751404,9.801349,-0.00045359135
-0.012317396,0.01089624,-15.609741,0.9938528,-0.21670231,-37.94861,0.00043295324,4.5776367e-05,0.23884654,-9.1552734e-05,4.5776367e-05,3.9138794,-0.00044727325,9.802673,0.23857117,-0.21655273,9.801346,0.001588732
-0.012330197,0.010886894,-15.512085,0.9938555,-0.21697782,-38.201904,-0.0005002022,-7.6293945e-05,0.23868646,9.1552734e-05,-7.6293945e-05,3.1936646,-0.0002975464,9.800049,0.24023438,-0.21679688,9.801344,-0.0003990382
-0.012318207,0.010903366,-15.332031,0.99385095,-0.21669897,-38.0661,0.0008831471,-1.5258789e-05,0.23899066,-0.00021362305,-1.5258789e-05,2.6397705,-0.0014696121,9.800522,0.23808289,-0.21751404,9.801343,0.00074890256
-0.012335329,0.010861056,-15.576172,0.9938623,-0.21714775,-38.175964,-0.0005853623,-7.6293945e-05,0.23818073,-9.1552734e-05,-7.6293945e-05,2.2247314,-0.00055503845,9.801727,0.23617554,-0.21846008,9.801352,-0.00082576275
-0.012355565,0.010810501,-15.99884,0.9938758,-0.21767946,-38.27057,-0.00054115057,-1.5258789e-05,0.23721245,-0.00015258789,0.00010681152,2.4475098,0.00011444092,9.805313,0.2368927,-0.21774292,9.801364,-0.0022386461
-0.01235302,0.010816533,-14.76593,0.9938742,-0.21761346,-38.919067,-0.00057785213,-1.5258789e-05,0.23732771,-0.00022888184,-1.5258789e-05,2.2537231,0.0026273727,9.803162,0.23521423,-0.21989441,9.801362,-5.4985285e-06
-0.012378427,0.010779146,-15.54718,0.9938843,-0.2182107,-38.487244,-0.0009249747,4.5776367e-05,0.2366333,-0.00021362305,0.00016784668,2.6260376,0.00015735626,9.804352,0.23857117,-0.21296692,9.801366,-0.0014641434
-0.012277164,0.010811022,-16.142273,0.9938744,-0.2161451,-37.849426,0.003218323,-7.6293945e-05,0.23705946,-0.0002746582,-1.5258789e-05,2.5253296,-6.0081482e-05,9.8022,0.23568726,-0.2163086,9.801401,0.001467675
-0.012293139,0.010817788,-15.925598,0.9938729,-0.21643926,-38.180542,-0.00030437112,-7.6293945e-05,0.23722798,3.0517578e-05,-7.6293945e-05,2.4505615,-0.00019359589,9.802429,0.23640442,-0.21846008,9.801391,-0.0006210506
-0.012339878,0.010783728,-15.187073,0.99388254,-0.21744467,-38.186646,-0.0016992837,4.5776367e-05,0.23664463,9.1552734e-05,-7.6293945e-05,2.5619507,-0.00045394897,9.8033905,0.23857117,-0.2182312,9.801383,-0.0009935945
-0.012336699,0.010808623,-15.950012,0.993876,-0.21731561,-36.21521,0.00032182038,4.5776367e-05,0.2371356,-9.1552734e-05,4.5776367e-05,2.3040771,-0.0001411438,9.803635,0.237854,-0.21583557,9.8013735,0.0011565536
-0.012330313,0.010829065,-15.513611,0.99387056,-0.21713579,-37.825012,0.00038413703,-1.5258789e-05,0.23753087,3.0517578e-05,4.5776367e-05,3.1967163,0.0011863708,9.803635,0.2368927,-0.2172699,9.801368,0.0009908229
-0.0123047745,0.010801097,-14.994812,0.9938774,-0.21671166,-37.347412,0.00067825615,-1.5258789e-05,0.23691867,9.1552734e-05,4.5776367e-05,3.3813477,0.00014781952,9.805786,0.23783875,-0.21655273,9.801393,-0.0010378957
-0.012319589,0.010841094,-16.049194,0.9938672,-0.21689376,-37.61902,-0.00055997074,-1.5258789e-05,0.23774895,0.0002593994,-1.5258789e-05,2.8518677,0.0012197495,9.802673,0.2400055,-0.21798706,9.801369,0.0012291372
-0.012340023,0.010876504,-14.978027,0.99385834,-0.21719792,-38.28888,-0.0004962981,-1.5258789e-05,0.2384993,0.00015258789,0.00016784668,2.4108887,-0.0010967255,9.806503,0.24047852,-0.21511841,9.801343,0.0012085736
-0.012297101,0.010913275,-15.637207,0.993848,-0.21625955,-38.27057,0.00073324144,-1.5258789e-05,0.2391446,9.1552734e-05,4.5776367e-05,2.380371,0.0014867783,9.800995,0.23760986,-0.21487427,9.801348,0.0015060604
-0.012244257,0.010870064,-15.324402,0.99385846,-0.21534282,-38.415527,0.0014614314,4.5776367e-05,0.23817074,-3.0517578e-05,0.00010681152,3.7628174,-0.0015687943,9.805313,0.23641968,-0.21894836,9.801393,-0.0015739948
-0.0123129245,0.010836491,-15.374756,0.99386835,-0.21677582,-38.319397,-0.002583176,4.5776367e-05,0.23764306,0.00021362305,0.00016784668,3.036499,0.0013475418,9.804825,0.237854,-0.21655273,9.8013735,-0.0010628998
-0.012288459,0.010837974,-15.963745,0.9938675,-0.21629347,-37.26349,0.00029943883,0.00010681152,0.23762168,-0.00021362305,-0.0001373291,1.9744873,0.00073719025,9.803162,0.23570251,-0.2172699,9.801385,0.0003838539
-0.012303424,0.010793315,-15.693665,0.99387944,-0.21670617,-38.591003,-0.00026865304,-0.00012207031,0.23676033,-0.0002746582,4.5776367e-05,2.619934,-0.0017442703,9.802673,0.23521423,-0.21774292,9.801397,-0.0016017556
-0.012332035,0.01078517,-14.685059,0.993882,-0.21728748,-38.4552,-0.0013677627,0.00010681152,0.23665713,-0.00015258789,-1.5258789e-05,2.420044,-0.00020503998,9.802673,0.237854,-0.2163086,9.801387,-0.0005349368
-0.01231156,0.010815765,-15.222168,0.9938737,-0.21680489,-37.721252,0.00078447163,-1.5258789e-05,0.23722596,-0.00021362305,4.5776367e-05,2.0843506,-0.00045681,9.805313,0.24095154,-0.21702576,9.801383,0.0015258938
-0.01231166,0.010854058,-16.410828,0.9938637,-0.21670379,-38.172913,-2.2679567e-05,4.5776367e-05,0.23799148,-0.0004119873,0.00010681152,1.7044067,0.00096416473,9.801239,0.23568726,-0.21606445,9.801366,0.0017092973
-0.012296288,0.0108184945,-15.116882,0.99387276,-0.21649897,-37.57019,0.0002309531,4.5776367e-05,0.23724869,-0.00015258789,-1.5258789e-05,2.6519775,-0.0012702942,9.8029175,0.237854,-0.21678162,9.80139,-0.0016058981
-0.012298728,0.010829168,-14.880371,0.99387,-0.21651796,-37.905884,-0.00022876263,0.00016784668,0.23746708,-0.0005340576,4.5776367e-05,2.8198242,-0.0005340576,9.803635,0.23976135,-0.21917725,9.801383,0.0005775243
-0.012341771,0.01084761,-15.560913,0.9938659,-0.2173099,-38.031006,-0.0018230677,0.00010681152,0.23792544,-0.0004119873,4.5776367e-05,2.4658203,0.00075626373,9.8033905,0.23928833,-0.21870422,9.801354,0.0015432984
-0.0123569975,0.010845408,-15.608215,0.99386674,-0.21761355,-37.90741,-0.0010457784,0.00022888184,0.23791315,-9.1552734e-05,0.00016784668,2.8686523,2.002716e-05,9.805069,0.23664856,-0.21678162,9.801348,0.00036478043
-0.012327229,0.010823872,-16.165161,0.99387187,-0.21708944,-38.3667,0.0008325428,0.00010681152,0.23742065,-0.0004119873,4.5776367e-05,2.116394,0.0006456375,9.805542,0.237854,-0.21511841,9.801372,-0.00011147559
-0.012288939,0.010830268,-15.313721,0.99386954,-0.2163236,-38.224792,0.0010499954,0.00022888184,0.23746867,-0.00015258789,-1.5258789e-05,2.8793335,0.0020208359,9.805069,0.23951721,-0.21702576,9.801388,0.00053332746
-0.0123031605,0.010847243,-15.682983,0.9938654,-0.21655598,-38.069153,-0.00017124414,0.00016784668,0.23783757,-0.00035095215,4.5776367e-05,2.7832031,-0.00041770935,9.804352,0.23951721,-0.21679688,9.8013735,0.0016031563
-0.012322876,0.010849431,-15.95459,0.99386513,-0.21693556,-38.28888,-0.0009773523,4.5776367e-05,0.23792243,-0.00035095215,-7.6293945e-05,3.0929565,0.00035572052,9.804825,0.23928833,-0.21966553,9.801363,0.00079628825
-0.012353181,0.01088533,-16.786194,0.99385625,-0.21743143,-38.287354,-0.00072936714,0.0,0.23870318,-0.00021362305,0.00016784668,2.6519775,-0.00039958954,9.803635,0.23808289,-0.21247864,9.801333,0.0012250096
-0.012296881,0.010884864,-15.232849,0.9938554,-0.21633185,-37.913513,-0.0008867383,4.5776367e-05,0.23857635,-0.00047302246,-7.6293945e-05,3.0456543,-0.0012407303,9.801483,0.23832703,-0.2172699,9.80136,0.0006553978
-0.012238991,0.010851665,-15.885925,0.99386317,-0.2152894,-37.174988,0.0011787266,-1.5258789e-05,0.23779209,-0.00022888184,4.5776367e-05,2.0584106,-0.00035476685,9.800995,0.23880005,-0.21536255,9.801402,-0.0016678423
-0.012265262,0.010878381,-15.988159,0.9938566,-0.21573113,-37.869263,-0.0005543083,-0.00018310547,0.2383808,-0.00015258789,-1.5258789e-05,3.7384033,-0.0021533966,9.804352,0.23640442,-0.21917725,9.801379,0.0006377846
-0.012314688,0.010844908,-15.011597,0.99386615,-0.21678765,-37.94403,-0.0023554415,-3.0517578e-05,0.23781493,-1.5258789e-05,0.00024414062,3.0548096,0.0009660721,9.800995,0.23832703,-0.21917725,9.801369,-0.0014479905
-0.012349457,0.010859899,-15.209961,0.9938628,-0.21742707,-37.651062,-0.0017295331,9.1552734e-05,0.23818707,-0.00015258789,-0.00012207031,2.3254395,-0.0012807846,9.804596,0.24047852,-0.21606445,9.801345,0.0005903691
-0.012324769,0.010893328,-15.658569,0.9938537,-0.21685435,-37.51068,0.0015518516,3.0517578e-05,0.23880373,4.5776367e-05,0.0,2.1453857,0.0021886826,9.803635,0.23736572,-0.21536255,9.801344,0.0016254634
-0.012295419,0.010865722,-16.28418,0.9938604,-0.21635486,-37.986755,0.0010296553,3.0517578e-05,0.23819074,0.00010681152,-0.00012207031,1.4724731,-0.0006170273,9.800293,0.23857117,-0.21463013,9.80137,-0.0011102855
-0.0122943185,0.010862352,-15.270996,0.99386126,-0.2163424,-38.1958,0.0005272031,9.1552734e-05,0.23812108,4.5776367e-05,0.00012207031,2.3971558,-0.0015277863,9.803146,0.237854,-0.21917725,9.801371,-6.0603023e-05
-0.012316693,0.01085637,-15.65094,0.9938632,-0.21679598,-37.556458,-0.0014011115,-0.00015258789,0.23804821,0.00010681152,6.1035156e-05,3.352356,0.0012025833,9.8022,0.23951721,-0.21774292,9.801363,0.00024135411
-0.0123374015,0.010888367,-15.444946,0.9938552,-0.21711469,-38.635254,-0.0008482486,9.1552734e-05,0.23873092,-0.00019836426,6.1035156e-05,3.0288696,-0.00094509125,9.805069,0.23570251,-0.21751404,9.801339,0.0007597655
-0.0123433415,0.010833999,-15.615845,0.9938695,-0.21737726,-38.130188,-0.0008106679,-9.1552734e-05,0.23765667,0.00016784668,-6.1035156e-05,2.7053833,0.0017576218,9.804825,0.23976135,-0.21870422,9.80136,-0.0020014495
-0.012377806,0.010869662,-15.26947,0.9938607,-0.21795513,-38.650513,-0.0009343624,-3.0517578e-05,0.2384414,0.00016784668,6.1035156e-05,2.394104,0.0013370514,9.804352,0.23928833,-0.22013855,9.801329,0.0014996976
-0.01239945,0.01087832,-16.299438,0.9938588,-0.218355,-37.875366,-0.0010114163,-9.1552734e-05,0.23865959,-7.6293945e-05,-6.1035156e-05,2.3544312,-0.00039100647,9.8033905,0.24023438,-0.2163086,9.801314,0.0003245175
-0.012368829,0.010916813,-15.666199,0.99384826,-0.21765247,-37.882996,0.0016416758,3.0517578e-05,0.2393651,0.00016784668,-0.00012207031,1.9821167,-9.346008e-05,9.804825,0.23832703,-0.21774292,9.8013115,0.0010543913
-0.012361782,0.010892453,-15.41748,0.9938545,-0.21758038,-37.625122,0.00013139844,9.1552734e-05,0.23886348,-1.5258789e-05,6.1035156e-05,2.4749756,0.0010557175,9.805313,0.23976135,-0.21679688,9.801326,-0.0008520335
-0.012364403,0.010899901,-15.257263,0.9938526,-0.21761157,-38.2782,-6.54608e-05,-9.1552734e-05,0.23901786,0.00010681152,0.0,2.6412964,6.198883e-05,9.804108,0.237854,-0.21702576,9.801322,0.00042696297
-0.012347361,0.0108863115,-15.74707,0.9938559,-0.217315,-37.591553,0.00083348155,-0.00015258789,0.23871066,0.00010681152,-0.00024414062,1.8997192,0.00052165985,9.803162,0.23760986,-0.21487427,9.801336,-0.0007059872
-0.012328892,0.010879109,-16.473389,0.99385744,-0.21697326,-38.01422,0.0016657859,-3.0517578e-05,0.23852812,4.5776367e-05,0.0,2.9922485,-0.0013904572,9.8033905,0.24119568,-0.2172699,9.801347,-0.0009787977
-0.012334277,0.010919575,-15.78064,0.99384695,-0.21696945,-38.15155,-0.00023929775,-3.0517578e-05,0.23934816,-0.00015258789,-6.1035156e-05,2.458191,0.00050640106,9.805069,0.23760986,-0.21846008,9.801328,0.0015359223
-0.012354971,0.010897086,-16.127014,0.9938532,-0.21743472,-38.381958,-0.00072799623,-3.0517578e-05,0.23894186,-7.6293945e-05,0.00012207031,2.6809692,0.00065517426,9.805542,0.24072266,-0.21463013,9.801327,-0.0009342134
-0.01230156,0.010924782,-15.402222,0.9938451,-0.21631569,-38.30719,0.0019870996,3.0517578e-05,0.23938388,-1.5258789e-05,-6.1035156e-05,2.633667,0.00043582916,9.803162,0.23904419,-0.21678162,9.801341,0.000770092
-0.012321969,0.010929928,-15.753174,0.9938441,-0.21670085,-38.163757,-0.0009799153,-3.0517578e-05,0.23952937,0.00010681152,0.0,2.861023,-0.0009794235,9.802429,0.23736572,-0.2182312,9.80133,-8.08835e-05
-0.012328264,0.0108788395,-15.760803,0.9938575,-0.21696174,-38.609314,-1.4826655e-05,9.1552734e-05,0.23852146,-1.5258789e-05,-6.1035156e-05,2.696228,-0.0011405945,9.803162,0.23760986,-0.21534729,9.801349,-0.0016828328
-0.012313792,0.010858684,-15.255737,0.99386257,-0.21673302,-37.52899,0.0007107854,9.1552734e-05,0.2380884,0.000289917,-6.1035156e-05,2.7267456,-0.00059890747,9.8022,0.23617554,-0.21583557,9.801363,-0.0005249232
-0.0122976275,0.010822051,-16.021729,0.99387187,-0.21651556,-37.028503,0.0007119775,-9.1552734e-05,0.23732254,0.00010681152,0.0,3.340149,-0.00087833405,9.8029175,0.23736572,-0.21559143,9.801386,-0.0011820644
-0.012269037,0.010819113,-15.557861,0.99387217,-0.21596447,-38.710022,0.0011188388,3.0517578e-05,0.23720424,9.1552734e-05,-6.1035156e-05,2.4612427,-0.00025749207,9.801239,0.2368927,-0.21606445,9.801402,-0.00058713555
-0.012285788,0.010821172,-14.8880005,0.99387187,-0.21628645,-37.4115,0.00023584068,9.1552734e-05,0.23728031,-0.00015258789,0.00024414062,1.6983032,0.00040912628,9.8033905,0.23760986,-0.21534729,9.8013935,0.0003143698
-0.012255239,0.010811648,-15.403748,0.9938739,-0.21571475,-38.157654,0.00038941205,3.0517578e-05,0.23702629,-0.00021362305,-6.1035156e-05,2.6351929,0.00075244904,9.802444,0.23857117,-0.21798706,9.801412,-0.00015772879
-0.012309163,0.010837051,-15.74707,0.9938681,-0.21670078,-38.420105,-0.0015057027,3.0517578e-05,0.2376464,4.5776367e-05,0.00012207031,1.8127441,0.00018024445,9.804825,0.23904419,-0.21846008,9.801375,0.0011265278
-0.012326832,0.010843571,-16.604614,0.9938667,-0.21702869,-37.823486,-0.00091956556,-0.00015258789,0.23781356,-0.00015258789,-0.00012207031,3.227234,0.0012350082,9.804352,0.23951721,-0.21583557,9.801364,0.0007150769
-0.01233255,0.010894966,-15.583801,0.9938534,-0.21700208,-38.471985,0.0004976094,-3.0517578e-05,0.23885274,-1.5258789e-05,-0.00012207031,2.0614624,0.0008325577,9.804108,0.23808289,-0.21798706,9.80134,0.0013285279
-0.012336555,0.010871146,-15.325928,0.99385965,-0.21714455,-38.07068,-7.459521e-05,3.0517578e-05,0.23838496,-0.0002746582,-6.1035156e-05,2.7191162,0.00024032593,9.8033905,0.23808289,-0.21679688,9.801347,-0.00083084404
-0.012339083,0.0109108845,-15.141296,0.99384934,-0.21708685,-38.311768,0.00033916533,-0.00015258789,0.2391845,-0.00021362305,6.1035156e-05,2.1621704,-0.00015926361,9.80603,0.24430847,-0.21678162,9.801329,0.0009956807
-0.012388598,0.010929209,-15.390015,0.99384534,-0.21800557,-38.11798,-0.002089277,4.5776367e-05,0.23965417,-0.0001373291,6.1035156e-05,1.751709,-0.00058841705,9.800522,0.23187256,-0.22038269,9.801297,0.0012493432
-0.012380163,0.010915127,-16.487122,0.9938489,-0.21787862,-37.631226,-4.297495e-05,-3.0517578e-05,0.23935504,3.0517578e-05,-0.00018310547,2.8320312,0.0020065308,9.809372,0.25028992,-0.21870422,9.801307,-0.0018170923
-0.012353956,0.010896749,-16.033936,0.9938533,-0.21741576,-37.805176,0.0016480088,0.0004119873,0.238933,4.5776367e-05,-0.00012207031,1.9668579,0.0002117157,9.79718,0.22827148,-0.21440125,9.801327,0.0019440353
-0.012361503,0.010915044,-16.345215,0.9938486,-0.21751401,-37.675476,5.3331256e-05,-0.00039672852,0.23931444,-7.6293945e-05,0.0,2.7572632,-0.0012769699,9.809616,0.25125122,-0.21655273,9.801316,-0.001046136
-0.01233402,0.010962195,-15.444946,0.9938358,-0.21684934,-37.957764,0.0017890781,0.00021362305,0.24019943,-0.00015258789,-0.00012207031,3.1158447,0.00041484833,9.799805,0.22851562,-0.2172699,9.80131,0.0028392076
-0.012339113,0.010894971,-15.872192,0.9938535,-0.21713036,-37.374878,-0.00032675266,-0.00039672852,0.2388665,0.00016784668,-6.1035156e-05,3.3432007,-2.670288e-05,9.808426,0.25028992,-0.21511841,9.801335,-0.003959045
-0.012326391,0.011001955,-15.104675,0.9938253,-0.21659268,-37.347412,0.0010710806,-7.6293945e-05,0.2409781,0.00022888184,-6.1035156e-05,2.8137207,0.0011014938,9.7986145,0.22802734,-0.21894836,9.801296,0.004213989
-0.012346782,0.010859929,-16.218567,0.99386275,-0.21737471,-38.238525,-0.0005622655,-0.00021362305,0.2381821,-0.00015258789,-0.00018310547,2.4368286,-0.0016489029,9.808182,0.24693298,-0.21846008,9.801347,-0.0068526864
-0.012392298,0.01095402,-15.614319,0.9938389,-0.2180109,-38.279724,-0.0010985285,0.00016784668,0.2401578,-7.6293945e-05,-0.00012207031,2.7038574,0.001452446,9.800522,0.23162842,-0.21702576,9.801284,0.0043201
-0.0123683335,0.010846844,-15.565491,0.9938665,-0.21783134,-38.180542,0.00061553717,-7.6293945e-05,0.2379655,-7.6293945e-05,0.0,2.3849487,-0.0011024475,9.805313,0.2447815,-0.21583557,9.801342,-0.0047176927
-0.012338064,0.010940953,-16.337585,0.99384147,-0.2169858,-37.301636,0.0019226074,4.5776367e-05,0.23978335,0.00016784668,-6.1035156e-05,2.9205322,6.771088e-05,9.802444,0.23043823,-0.21702576,9.801317,0.0039910674
-0.012318568,0.010795268,-16.111755,0.9938792,-0.21699701,-37.9364,-0.00022763014,-7.6293945e-05,0.23683089,4.5776367e-05,0.00018310547,2.9266357,-0.0007581711,9.806992,0.24359131,-0.21606445,9.801388,-0.0062131435
-0.012305572,0.010916631,-16.447449,0.99384725,-0.2164161,-37.37793,0.0006529242,0.00016784668,0.23922935,4.5776367e-05,0.0,2.3529053,0.0023708344,9.8022,0.2349701,-0.2163086,9.801342,0.0047549605
-0.01230747,0.010823088,-15.733337,0.99387175,-0.21670523,-37.44812,-0.00052140653,-0.00015258789,0.2373638,0.00016784668,6.1035156e-05,2.142334,-0.0025730133,9.806503,0.24334717,-0.22062683,9.801382,-0.0033871382
-0.012374382,0.010934156,-15.316772,0.9938438,-0.21771425,-37.8479,-0.0020920336,-1.5258789e-05,0.23972337,-0.00015258789,-0.00012207031,2.8823853,0.003873825,9.800995,0.2337799,-0.2163086,9.801302,0.00424394
-0.012338868,0.010816845,-15.6692505,0.9938739,-0.21733594,-38.227844,0.0013004094,-0.00019836426,0.23730448,0.00016784668,-6.1035156e-05,3.024292,-0.0038022995,9.803879,0.23976135,-0.2172699,9.80137,-0.0050071627
-0.012371756,0.010894659,-15.406799,0.9938541,-0.21776947,-37.6297,-0.0004092157,4.5776367e-05,0.23892842,-3.0517578e-05,-0.00012207031,2.6382446,0.000667572,9.8029175,0.23617554,-0.2172699,9.801321,0.002682671
-0.012340679,0.0108209,-15.457153,0.9938728,-0.21736044,-38.661194,0.0010887682,-7.6293945e-05,0.23738928,0.00010681152,-0.00012207031,1.7425537,-0.0013046265,9.805313,0.2400055,-0.21751404,9.801367,-0.0029325336
-0.012370396,0.010916001,-15.472412,0.9938485,-0.21768534,-37.872314,-0.0002309829,-0.00021362305,0.23935217,4.5776367e-05,-0.00012207031,2.7130127,0.0029668808,9.8029175,0.23736572,-0.21655273,9.801312,0.0029559135
-0.012340963,0.010840451,-15.21759,0.99386775,-0.21731338,-37.87384,0.0012756288,4.5776367e-05,0.23778066,-1.5258789e-05,-0.00012207031,2.1621704,-0.0024852753,9.803879,0.23928833,-0.21679688,9.801358,-0.00308536
-0.012355836,0.010907108,-15.534973,0.9938506,-0.21742462,-38.49182,-2.9712915e-05,-0.0001373291,0.23914401,4.5776367e-05,0.00012207031,2.786255,0.001543045,9.801483,0.23951721,-0.21917725,9.801323,0.0022301227
-0.012378562,0.0108769685,-16.16211,0.9938588,-0.21795022,-37.765503,-0.0012036711,-9.1552734e-05,0.238589,0.00022888184,-6.1035156e-05,2.2018433,-0.0032873154,9.800766,0.23904419,-0.21774292,9.801325,-0.0010047257
-0.012382225,0.01093154,-15.501404,0.9938446,-0.21787466,-38.206482,0.00039181113,-3.0517578e-05,0.23968746,0.000289917,0.0,3.3538818,0.00068855286,9.804352,0.237854,-0.21679688,9.801299,0.0010008812
-0.012360125,0.010844771,-15.882874,0.9938669,-0.21767643,-38.30414,0.00067715347,-9.1552734e-05,0.23790696,0.000289917,-6.1035156e-05,1.9668579,-0.00033950806,9.800522,0.23760986,-0.21702576,9.801348,-0.0027216822
-0.012319328,0.010869764,-16.065979,0.99385977,-0.21681143,-39.115906,0.0014830083,-9.1552734e-05,0.2383214,0.00016784668,0.0,2.4383545,-0.00025177002,9.802429,0.23976135,-0.21534729,9.801355,-0.001449421
-0.012310641,0.010931518,-15.602112,0.99384344,-0.21647508,-38.661194,0.0009097308,-0.00015258789,0.23953748,0.00022888184,6.1035156e-05,2.8625488,0.0006322861,9.802673,0.23712158,-0.21511841,9.801334,0.0018735081
-0.012275701,0.010872473,-15.216064,0.99385834,-0.21595114,-37.84485,0.00037911534,-7.6293945e-05,0.23828453,0.00022888184,6.1035156e-05,3.288269,-0.00052928925,9.801956,0.23664856,-0.2163086,9.801376,-0.0026186705
-0.012287068,0.010883888,-15.882874,0.99385554,-0.21614262,-38.80005,-0.00014163554,-0.00015258789,0.23853637,0.00022888184,0.0,3.0090332,0.00044822693,9.80101,0.23928833,-0.2182312,9.801366,-0.0002362132
-0.012327918,0.01086155,-16.30249,0.99386203,-0.21700154,-38.250732,-0.0014413148,-3.0517578e-05,0.2381752,0.00016784668,-0.00012207031,2.2720337,-0.00065135956,9.805786,0.2359314,-0.2172699,9.801356,-0.0013014227
-0.012325924,0.010852597,-15.020752,0.99386436,-0.21698664,-36.167908,0.0004708767,-0.00019836426,0.23799205,-1.5258789e-05,-6.1035156e-05,2.0248413,0.0018100739,9.804596,0.24023438,-0.21679688,9.80136,-0.00066687167
-0.012321438,0.010882025,-16.304016,0.9938566,-0.21681966,-36.62567,-0.00015734136,-9.1552734e-05,0.23857085,0.00016784668,6.1035156e-05,1.3198853,0.001042366,9.801483,0.23736572,-0.21440125,9.80135,0.00089271367
-0.012301999,0.010893372,-14.846802,0.9938533,-0.216409,-37.275696,0.0010849088,-9.1552734e-05,0.23875707,3.0517578e-05,0.0,2.34375,-0.0008955002,9.804352,0.24072266,-0.21678162,9.801354,-0.00022831559
-0.012276275,0.010901543,-15.913391,0.9938507,-0.21588399,-39.01062,0.0008111745,-0.00015258789,0.23886666,4.5776367e-05,-6.1035156e-05,2.5253296,0.00067424774,9.806274,0.23928833,-0.21655273,9.801363,0.0001270622
-0.012311729,0.010943318,-15.5303955,0.9938404,-0.21646449,-38.494873,-0.00049065053,3.0517578e-05,0.23977557,0.00010681152,-0.00012207031,2.8671265,0.0022211075,9.805786,0.23904419,-0.21846008,9.801329,0.0011129975
-0.0123510435,0.010903502,-14.874268,0.9938514,-0.21734063,-38.887024,-0.0015309453,3.0517578e-05,0.23906192,0.00010681152,0.0,2.8137207,0.0005235672,9.802429,0.23641968,-0.21870422,9.801327,-0.001063481
-0.012381281,0.010869324,-16.200256,0.9938609,-0.21802396,-37.64496,-0.0013326257,-9.1552734e-05,0.23844185,9.1552734e-05,-6.1035156e-05,2.7648926,-0.0010938644,9.8033905,0.23976135,-0.21583557,9.801326,-0.0013758838
-0.012319344,0.010871015,-15.751648,0.9938594,-0.21680841,-37.817383,0.002461195,9.1552734e-05,0.23834646,-9.1552734e-05,-6.1035156e-05,1.8173218,-0.00088119507,9.804825,0.237854,-0.21655273,9.801356,-0.00032298267
-0.012339611,0.010884881,-16.226196,0.99385613,-0.21716727,-37.860107,-3.7059188e-05,-9.1552734e-05,0.23866586,0.000289917,-6.1035156e-05,2.3590088,0.0010137558,9.805542,0.23904419,-0.21774292,9.801339,0.000779286
-0.012351274,0.010877864,-14.640808,0.99385816,-0.21741425,-37.94861,-0.00049613416,-9.1552734e-05,0.23854996,-7.6293945e-05,0.0,3.1524658,0.000992775,9.804825,0.23857117,-0.21511841,9.801337,-0.00030703843
-0.012313206,0.010894519,-15.682983,0.99385315,-0.21662503,-38.220215,0.0015812069,-9.1552734e-05,0.2388034,-9.1552734e-05,-0.00012207031,2.7832031,-0.00012683868,9.805313,0.24047852,-0.22013855,9.801349,-8.556247e-05
-0.012378709,0.010919922,-15.289307,0.9938476,-0.21783727,-36.83777,-0.002219364,-3.0517578e-05,0.23944788,0.00016784668,0.0,2.3284912,0.0005502701,9.805313,0.23808289,-0.21702576,9.801306,0.000940606
-0.0123601165,0.0108915595,-15.351868,0.9938547,-0.21755023,-36.164856,0.0006028712,-9.1552734e-05,0.23884214,0.00010681152,-6.1035156e-05,0.3189087,-0.00026226044,9.805542,0.237854,-0.21702576,9.801327,-0.0013183504
-0.012343834,0.010876755,-15.748596,0.99385834,-0.21727176,-38.76648,0.0005578548,3.0517578e-05,0.23851226,-7.6293945e-05,0.0,2.8564453,0.00045871735,9.801239,0.2359314,-0.21702576,9.801341,-0.0009934604
-0.012341501,0.01083226,-16.04004,0.9938699,-0.21734594,-38.928223,0.00013197958,3.0517578e-05,0.23761806,0.00016784668,-6.1035156e-05,1.7150879,-0.002401352,9.805557,0.23951721,-0.21559143,9.801361,-0.0015036911
-0.012319869,0.01087331,-16.166687,0.9938588,-0.21681246,-38.51471,0.0015315562,-3.0517578e-05,0.2383934,-7.6293945e-05,-0.00018310547,2.0370483,0.0009584427,9.803879,0.23857117,-0.2172699,9.801353,0.0012949705
-0.012338351,0.010871353,-15.344238,0.99385965,-0.21717912,-37.760925,-2.7686357e-05,3.0517578e-05,0.23839284,0.00016784668,-6.1035156e-05,2.481079,-0.00031471252,9.804825,0.23808289,-0.21583557,9.801346,0.00033795834
-0.012317541,0.01086487,-16.673279,0.993861,-0.2167897,-37.91504,0.0010214001,-0.00015258789,0.23821986,0.00022888184,-6.1035156e-05,3.3035278,0.0004234314,9.804825,0.23617554,-0.21655273,9.801359,-0.00043980777
-0.012325132,0.010838225,-15.512085,0.99386805,-0.21700986,-37.705994,-0.0001898408,3.0517578e-05,0.23770316,0.00016784668,-6.1035156e-05,2.1499634,0.00028705597,9.803635,0.24119568,-0.21942139,9.801367,-0.0013603866
-0.012363672,0.010888793,-16.047668,0.9938555,-0.21762721,-37.84485,-0.0010036528,-0.00019836426,0.23879428,-7.6293945e-05,-6.1035156e-05,2.8503418,0.00019359589,9.806747,0.23857117,-0.21751404,9.801327,0.002076745
-0.012356972,0.010896684,-15.238953,0.99385333,-0.21747492,-38.616943,0.000288561,3.0517578e-05,0.23893799,0.00016784668,0.0,1.7532349,0.0009393692,9.802673,0.23904419,-0.21678162,9.801326,-0.00045861304
-0.012361925,0.010895832,-15.722656,0.9938536,-0.21757406,-37.902832,0.000115156174,-3.0517578e-05,0.23893133,0.00016784668,0.0,2.2201538,-0.0025691986,9.803162,0.23832703,-0.2163086,9.801324,0.0002964586
-0.012322837,0.010894523,-14.971924,0.99385333,-0.21681331,-37.765503,0.001522705,3.0517578e-05,0.23882355,-0.00015258789,-0.00012207031,2.5756836,0.00020217896,9.801712,0.2368927,-0.21655273,9.801343,-0.00055895746
-0.012328373,0.010851697,-14.93988,0.9938646,-0.21703695,-37.88147,-0.00019091368,3.0517578e-05,0.23797917,9.1552734e-05,6.1035156e-05,1.9317627,-0.0013008118,9.804825,0.23880005,-0.21606445,9.801359,-0.0013766885
-0.012308277,0.010863716,-15.028381,0.99386114,-0.21661164,-37.71057,0.0003617704,-9.1552734e-05,0.23817745,0.00016784668,0.0,2.8152466,0.0015211105,9.804108,0.23855591,-0.22038269,9.801363,0.00032913685
-0.012377895,0.0108798565,-15.505981,0.99385804,-0.21792938,-37.70752,-0.0021557957,-3.0517578e-05,0.23864532,-0.00015258789,-0.00012207031,2.230835,-0.00057697296,9.804352,0.23928833,-0.21751404,9.801323,0.00056932867
-0.012362005,0.010881177,-16.252136,0.99385744,-0.21761514,-38.60016,0.0011130124,9.1552734e-05,0.23863856,0.00016784668,-0.00012207031,1.8692017,-0.0002193451,9.804352,0.23976135,-0.21702576,9.801331,0.00010600686
-0.012329811,0.0109059,-14.897156,0.99385047,-0.21691903,-39.82544,0.00043806434,-9.1552734e-05,0.23906553,-1.5258789e-05,6.1035156e-05,3.4484863,0.0004901886,9.8033905,0.23976135,-0.21894836,9.801336,-0.0005734563
-0.012369794,0.010925953,-15.124512,0.9938459,-0.21764667,-37.86621,-0.0012271255,-9.1552734e-05,0.23954982,0.00010681152,0.00012207031,2.4871826,0.0001745224,9.804825,0.24047852,-0.21774292,9.801308,0.0010907799
-0.012379135,0.0109256655,-15.821838,0.9938461,-0.21783012,-39.15558,-0.00081050396,-0.00019836426,0.23956358,-0.00021362305,-0.00012207031,2.7679443,-0.0010032654,9.804352,0.23736572,-0.21774292,9.801304,-0.0003451854
-0.012367026,0.010917739,-15.6311035,0.99384797,-0.21761473,-37.597656,0.0008857995,-0.00019836426,0.23937985,-1.5258789e-05,0.0,2.5497437,0.0004529953,9.8033905,0.23928833,-0.21511841,9.801312,-0.0016005784
-0.012319037,0.010914063,-15.545654,0.99384815,-0.21668634,-38.7146,0.0018737018,-9.1552734e-05,0.23920617,0.00035095215,-0.00018310547,2.6245117,-0.0004901886,9.804352,0.23832703,-0.21702576,9.801337,-0.00047415495
-0.012357957,0.010922413,-15.382385,0.9938466,-0.21742478,-38.768005,-0.0007445067,-0.00019836426,0.23945433,0.000289917,-0.00012207031,2.871704,1.9073486e-06,9.810806,0.23904419,-0.22013855,9.801314,-0.00047831237
-0.012357911,0.010877963,-15.127563,0.9938582,-0.21754377,-37.490845,0.0005493909,3.0517578e-05,0.2385658,9.1552734e-05,-6.1035156e-05,2.4917603,-0.002699852,9.797653,0.23832703,-0.21224976,9.801334,-0.001707539
-0.012310034,0.010944564,-15.875244,0.99384004,-0.21642797,-38.424683,0.0018866509,-0.00021362305,0.23979692,-0.0002746582,0.0,3.175354,0.0052261353,9.801483,0.2400055,-0.2182312,9.801329,0.0015444905
-0.012360727,0.010913124,-15.809631,0.9938491,-0.21750402,-38.786316,-0.0018616915,0.00022888184,0.23927446,0.00021362305,-0.00018310547,3.0136108,-0.0030603409,9.805786,0.24047852,-0.21511841,9.801317,-0.00053563714
-0.012272394,0.01095795,-15.788269,0.9938359,-0.21565586,-38.44757,0.0041797906,-0.00045776367,0.23998576,-1.5258789e-05,0.00012207031,2.2949219,0.00019741058,9.804108,0.23808289,-0.21343994,9.801341,0.0006739944
-0.012300271,0.010907455,-14.491272,0.9938496,-0.21633725,-37.123108,-0.001593411,0.000289917,0.23903492,0.0002746582,-6.1035156e-05,2.2003174,-2.5749207e-05,9.80603,0.23880005,-0.21942139,9.80135,-0.0014873743
-0.012289413,0.010934658,-15.16571,0.9938423,-0.21605155,-37.669373,0.00029847026,-0.00039672852,0.23955588,-0.00019836426,6.1035156e-05,2.9693604,0.0023794174,9.806503,0.23736572,-0.21224976,9.801343,0.000114008784
-0.012263933,0.010877641,-15.551758,0.9938568,-0.21570714,-37.809753,0.0011566132,0.0002746582,0.23836325,4.5776367e-05,-0.00024414062,2.632141,-0.00017261505,9.8033905,0.2368927,-0.2172699,9.80138,-0.0020468086
-0.0122746825,0.010892168,-15.408325,0.99385315,-0.21587813,-38.830566,0.0005939603,-0.00039672852,0.23867597,-3.0517578e-05,-0.00018310547,2.4658203,-0.00010204315,9.8029175,0.24023438,-0.21440125,9.801368,-0.00020672381
-0.012264183,0.010852064,-14.564514,0.99386346,-0.2157809,-37.965393,0.00072035193,0.00016784668,0.23785262,0.00022888184,0.00012207031,2.1118164,-0.0018177032,9.804596,0.23664856,-0.21487427,9.801391,-0.0012678206
-0.01226433,0.010915468,-15.969849,0.9938469,-0.21561287,-37.9364,-0.0001514703,-0.00039672852,0.23911998,-1.5258789e-05,-6.1035156e-05,1.8051147,0.0011854172,9.805557,0.23904419,-0.21679688,9.801363,0.0012795627
-0.012267256,0.010858069,-16.13617,0.993862,-0.21582483,-37.927246,-0.00018772483,0.00016784668,0.23797905,4.5776367e-05,6.1035156e-05,2.6062012,-0.00032901764,9.8033905,0.2349701,-0.21559143,9.801387,-0.0021217316
-0.012247762,0.010869038,-15.441895,0.99385875,-0.21541412,-37.73346,0.0001231283,-0.0001373291,0.23815759,4.5776367e-05,0.00012207031,3.199768,0.00042247772,9.805542,0.24143982,-0.21702576,9.801392,-0.00038267672
-0.012275661,0.010845693,-15.200806,0.9938653,-0.21602248,-38.70697,-0.0011880547,0.000289917,0.23774925,0.00016784668,-6.1035156e-05,2.31781,-0.0011634827,9.800766,0.23257446,-0.21511841,9.801388,0.00051243603
-0.012251367,0.010814054,-14.9887085,0.9938732,-0.21563257,-39.68048,0.0008083731,-0.0001373291,0.23706628,-0.00015258789,0.0,3.2043457,-0.0007715225,9.805313,0.24240112,-0.21655273,9.801413,-0.0019070953
-0.0122788325,0.010852113,-15.730286,0.9938637,-0.21606718,-39.852905,-0.00065520406,0.00022888184,0.23788416,0.00016784668,-6.1035156e-05,1.8829346,0.0007543564,9.804352,0.23306274,-0.2182312,9.801383,0.0023002476
-0.012312027,0.01080367,-15.293884,0.9938769,-0.21684651,-38.75885,-0.0013214946,-0.00019836426,0.23698516,0.00010681152,0.0,3.1188965,0.00035190582,9.804123,0.24023438,-0.21606445,9.801387,-0.0018400103
-0.012285185,0.010824918,-16.374207,0.9938709,-0.21531603,-39.361572,0.001197502,-3.0517578e-05,0.23691586,-1.5258789e-05,-0.00012207031,3.225708,-0.0010442734,9.801483,0.23306274,-0.21272278,9.801423,0.0004284978
-0.012301215,0.010912013,-16.056824,0.9938484,-0.21634342,-38.0661,-0.0015937239,-0.00015258789,0.239128,0.000289917,-6.1035156e-05,2.6870728,0.0009880066,9.804108,0.23640442,-0.2172699,9.801348,0.0041639954
-0.0123102665,0.01089741,-16.184998,0.9938524,-0.21655977,-38.328552,-0.00040727854,-0.00019836426,0.23885503,0.000289917,-6.1035156e-05,2.9205322,0.00081825256,9.803879,0.24310303,-0.2163086,9.801349,-0.0013099313
-0.01232396,0.010971607,-16.12091,0.9938332,-0.21662723,-38.867188,0.00012940168,-0.00021362305,0.24036653,0.000289917,-0.00012207031,1.6326904,-0.0004043579,9.8033905,0.23353577,-0.21511841,9.8013115,0.002446711
-0.012284185,0.010870913,-16.511536,0.9938589,-0.21612121,-37.997437,0.0010477751,-0.00015258789,0.23827104,0.00016784668,0.00012207031,2.4261475,-0.0007390976,9.805786,0.24095154,-0.2172699,9.801373,-0.0052578896
-0.012305765,0.010925306,-15.638733,0.993845,-0.2163965,-38.64441,-0.00056780875,-3.0517578e-05,0.23940313,0.00010681152,-0.00012207031,2.2979736,0.001420021,9.8033905,0.23664856,-0.21751404,9.801338,0.0021975785
-0.012312322,0.010871426,-16.1026,0.9938592,-0.21666999,-38.526917,-0.00029484928,-0.00015258789,0.23834002,0.00021362305,0.0,0.8300781,-6.67572e-06,9.804596,0.24023438,-0.21846008,9.801359,-0.0022314936
-0.012367477,0.010912091,-15.867615,0.99384946,-0.21763879,-38.08441,-0.001709938,-0.00015258789,0.2392679,-1.5258789e-05,6.1035156e-05,2.2109985,0.0009698868,9.8022,0.23904419,-0.2172699,9.801315,0.0011307448
-0.012355867,0.010902395,-15.861511,0.99385184,-0.21743792,-36.95984,0.00021745265,-7.6293945e-05,0.23904984,0.00022888184,6.1035156e-05,2.4612427,-0.0020685196,9.805786,0.23951721,-0.21774292,9.801324,-0.00077714026
-0.012356685,0.010937011,-16.171265,0.9938428,-0.21736053,-38.708496,-0.00032158196,-0.00039672852,0.23974346,-0.00015258789,0.00012207031,3.0807495,0.0010175705,9.799576,0.23425293,-0.2182312,9.80131,0.00019495189
-0.012339621,0.010853939,-15.686035,0.99386424,-0.21725085,-37.99286,0.00025697052,-0.0002593994,0.23804745,4.5776367e-05,-0.00018310547,2.784729,-0.0024986267,9.805557,0.23951721,-0.21583557,9.801353,-0.004302487
-0.012339281,0.010920791,-15.756226,0.9938467,-0.217064,-37.78534,0.0008133501,-3.0517578e-05,0.2393829,0.00022888184,-0.00012207031,2.8640747,0.002333641,9.803635,0.23641968,-0.2163086,9.801324,0.0017488748
-0.012323667,0.010842421,-16.023254,0.993867,-0.21696992,-37.660217,0.0004631281,-3.0517578e-05,0.23778397,-7.6293945e-05,6.1035156e-05,2.128601,-0.0009965897,9.8029175,0.23545837,-0.21583557,9.801366,-0.0030930936
-0.012285919,0.010832772,-14.840698,0.9938689,-0.2162578,-38.105774,0.0011843294,-0.00015258789,0.2375124,0.000289917,-6.1035156e-05,2.3376465,-3.4332275e-05,9.800278,0.23641968,-0.21678162,9.801388,-0.00066904724
-0.012312726,0.010804619,-15.06958,0.99387664,-0.21685766,-36.791992,-0.00062827766,-3.0517578e-05,0.2370056,0.000289917,0.00012207031,2.3376465,-0.0028800964,9.803635,0.23951721,-0.21534729,9.801387,-0.0020495504
-0.012282078,0.010865886,-15.116882,0.9938601,-0.21609356,-35.194397,0.0010146052,-9.1552734e-05,0.23816617,0.00010681152,-0.00012207031,1.7852783,0.0023765564,9.801727,0.237854,-0.21487427,9.801375,0.0027418733
-0.012267504,0.01084783,-16.131592,0.99386466,-0.21585722,-37.509155,0.00076188147,9.1552734e-05,0.23777494,0.00016784668,0.0,1.6418457,-0.0014429092,9.804108,0.23664856,-0.21583557,9.801391,-0.0011517853
-0.012265225,0.010842189,-15.284729,0.9938661,-0.21582784,-37.96692,2.9340386e-05,3.0517578e-05,0.23765744,9.1552734e-05,0.0,2.2384644,0.0012750626,9.803635,0.23832703,-0.21511841,9.8013935,-8.840859e-05
-0.012250599,0.010828062,-15.875244,0.9938695,-0.21557988,-38.95111,0.0005005449,-7.6293945e-05,0.23734462,-0.00015258789,0.0,3.0899048,0.000207901,9.803879,0.23904419,-0.2172699,9.801407,-0.00049492717
-0.012301793,0.010882469,-15.438843,0.99385613,-0.21643436,-38.63678,-0.0010292232,-0.00019836426,0.23853874,0.00016784668,-0.00024414062,3.111267,0.00095176697,9.800293,0.23736572,-0.21606445,9.801359,0.0018841773
-0.012283702,0.010850465,-14.904785,0.9938642,-0.21616684,-38.424683,0.0005970299,-3.0517578e-05,0.23786137,-3.0517578e-05,0.00012207031,2.4154663,-0.0025568008,9.804108,0.23664856,-0.21559143,9.801381,-0.0017096102
-0.0122799575,0.010871211,-15.625,0.9938587,-0.21603775,-38.42621,7.82311e-06,3.0517578e-05,0.23826817,0.00010681152,0.00012207031,2.5436401,0.0011672974,9.804825,0.237854,-0.21607971,9.801374,0.00026494265
-0.012272759,0.010821945,-15.6188965,0.99387145,-0.21602961,-37.902832,-0.00023446977,4.5776367e-05,0.23726857,0.00022888184,-0.00012207031,2.7069092,0.00093460083,9.8022,0.23808289,-0.21846008,9.801398,-0.0013860315
-0.012325639,0.010850615,-15.6814575,0.99386483,-0.2169864,-38.597107,-0.0014248341,3.0517578e-05,0.23795184,-7.6293945e-05,-0.00012207031,2.7801514,0.0003118515,9.801956,0.23855591,-0.21511841,9.801361,0.0012829453
-0.012307357,0.010829667,-15.8706665,0.99387,-0.21668531,-38.20343,0.0011163354,3.0517578e-05,0.23749502,9.1552734e-05,-6.1035156e-05,3.2562256,-0.0023450851,9.805069,0.23713684,-0.21606445,9.801378,-0.00062692165
-0.012273166,0.010847217,-15.67688,0.9938649,-0.21596958,-37.953186,0.0013865083,-3.0517578e-05,0.23777449,0.00016784668,-0.00012207031,1.8188477,0.0022621155,9.804108,0.23928833,-0.21487427,9.801388,0.0005007088
-0.012266646,0.010849789,-15.460205,0.9938641,-0.21583518,-38.02643,0.0007662624,-7.6293945e-05,0.23781231,0.00022888184,0.0,2.87323,0.0002412796,9.802673,0.23474121,-0.21607971,9.801391,-1.28299e-05
-0.012280821,0.010837861,-14.686584,0.99386746,-0.21614441,-37.55188,-0.000602901,-3.0517578e-05,0.23760347,0.00016784668,-6.1035156e-05,2.5100708,-9.536743e-07,9.804108,0.24287415,-0.21463013,9.801388,-0.0005211234
-0.012255865,0.010904783,-14.434814,0.9938496,-0.21547619,-38.198853,0.0016023964,4.5776367e-05,0.23888877,4.5776367e-05,6.1035156e-05,2.9190063,-0.00095272064,9.804825,0.23712158,-0.21534729,9.801372,0.0022635013
-0.012248692,0.010882574,-15.617371,0.99385524,-0.21539582,-37.783813,0.00011534989,-0.00015258789,0.23843,4.5776367e-05,-6.1035156e-05,1.663208,0.0025510788,9.80722,0.237854,-0.21583557,9.801385,-0.0011382252
-0.0122599555,0.010860157,-15.632629,0.99386126,-0.21567644,-37.44507,-0.0005606264,-0.00015258789,0.23800553,0.00022888184,0.0,2.5497437,0.00043010712,9.802429,0.23545837,-0.21559143,9.801389,-0.00094762444
-0.012248357,0.010847794,-16.532898,0.9938643,-0.21548295,-37.65564,0.00042304397,-0.00015258789,0.23773429,0.00016784668,-6.1035156e-05,3.2318115,-0.0011434555,9.803879,0.23857117,-0.21702576,9.8014,-0.0011502802
-0.012293508,0.01084525,-15.435791,0.9938657,-0.21637262,-37.73651,-0.0013056099,9.1552734e-05,0.23777762,4.5776367e-05,0.0,3.2791138,0.0005159378,9.802444,0.23568726,-0.21702576,9.801379,-0.00023885071
-0.012278048,0.0108315535,-16.020203,0.99386907,-0.21610717,-37.405396,0.00031653047,-0.00015258789,0.23747163,0.00010681152,0.0,3.3370972,-0.0005121231,9.800766,0.23736572,-0.21655273,9.801392,0.00033299625
-0.012261522,0.010833556,-15.437317,0.99386823,-0.21577866,-38.442993,0.00021584332,-3.0517578e-05,0.2374772,-7.6293945e-05,0.0,2.067566,-0.0014591217,9.805786,0.23857117,-0.21321106,9.801399,-0.0006159693
-0.012224635,0.010863915,-16.070557,0.9938597,-0.21497571,-38.435364,0.0015815496,3.0517578e-05,0.2380069,-7.6293945e-05,0.00018310547,2.4414062,0.001578331,9.803162,0.2368927,-0.21679688,9.801404,0.0014596432
-0.012257095,0.010823015,-15.513611,0.9938709,-0.21572049,-37.3291,-0.0017448217,-3.0517578e-05,0.23725735,4.5776367e-05,-0.00012207031,2.1530151,0.00025844574,9.803635,0.23808289,-0.21774292,9.801407,-0.0016236901
-0.012295147,0.010853972,-16.186523,0.99386346,-0.21638118,-37.95166,-0.00084267557,9.1552734e-05,0.23795535,4.5776367e-05,-6.1035156e-05,2.9266357,-0.00031375885,9.801727,0.23808289,-0.21368408,9.801374,0.0015112311
-0.012247297,0.010842586,-15.776062,0.99386567,-0.21547623,-37.927246,0.001831606,-9.1552734e-05,0.23762798,0.00022888184,6.1035156e-05,2.5405884,-0.0005235672,9.801956,0.23832703,-0.21655273,9.801402,-0.0007787943
-0.012275359,0.010852951,-16.143799,0.9938634,-0.21599701,-37.368774,-0.0009995848,-9.1552734e-05,0.23789364,0.00010681152,-6.1035156e-05,3.6560059,-0.0009803772,9.804108,0.2368927,-0.21751404,9.801384,0.000645414
-0.012285682,0.010835773,-15.679932,0.99386805,-0.2162451,-36.645508,-0.0005123913,-0.00015258789,0.2375719,3.0517578e-05,0.0,3.036499,0.0009355545,9.80603,0.23521423,-0.21391296,9.801387,-0.0009666085
-0.012251204,0.010824431,-14.932251,0.99387044,-0.21560146,-37.51068,0.0014987141,3.0517578e-05,0.23727332,0.00016784668,-6.1035156e-05,2.0980835,0.0014333725,9.803635,0.237854,-0.21487427,9.801408,-0.0011575967
-0.01223036,0.010824937,-15.682983,0.99387,-0.21519254,-37.54425,0.00084351003,-3.0517578e-05,0.23723997,0.00016784668,0.0,2.8686523,-0.00016117096,9.803879,0.23760986,-0.21559143,9.801417,-0.00040481985
-0.012241319,0.010830637,-15.242004,0.9938687,-0.21539149,-38.059998,-0.0006182045,-3.0517578e-05,0.23737672,0.00022888184,0.00018310547,2.8839111,0.00020503998,9.799332,0.2359314,-0.21751404,9.80141,0.0004169345
-0.012274859,0.010801875,-15.376282,0.99387676,-0.21612461,-39.34021,-0.0018445104,9.1552734e-05,0.23687185,0.00010681152,6.1035156e-05,3.993225,-0.0033769608,9.804108,0.23570251,-0.2172699,9.801406,-0.0009601265
-0.012290596,0.010753521,-15.350342,0.9938896,-0.21656218,-38.705444,-0.0011454523,-9.1552734e-05,0.23593824,4.5776367e-05,-6.1035156e-05,3.3554077,0.0015792847,9.8022,0.23474121,-0.21774292,9.801419,-0.0014796257
-0.012299199,0.010760808,-16.047668,0.99388784,-0.21671085,-39.616394,-5.494058e-05,-3.0517578e-05,0.23610182,-0.0002746582,0.0,3.7216187,-0.00037384033,9.8033905,0.23951721,-0.21487427,9.801413,-0.00044842064
-0.012273274,0.0108063985,-16.400146,0.9938755,-0.21608151,-39.57672,0.0014815032,9.1552734e-05,0.23695898,4.5776367e-05,0.00012207031,2.82135,-9.8228455e-05,9.800766,0.23736572,-0.21511841,9.801406,0.002052188
-0.0122532295,0.010837584,-15.214539,0.99386704,-0.2156057,-39.39209,0.0005045384,0.00021362305,0.23754041,-7.6293945e-05,-0.00018310547,4.243469,-0.0011911392,9.802673,0.23641968,-0.21583557,9.801402,0.0014847666
-0.012278615,0.01079011,-15.847778,0.99387985,-0.21622966,-37.835693,-0.00053468347,9.1552734e-05,0.23664454,0.00016784668,-0.00012207031,3.6636353,8.583069e-06,9.801483,0.23951721,-0.2163086,9.801409,-0.0009609163
-0.012270066,0.010836743,-15.991211,0.9938676,-0.21593717,-39.175415,0.00036168098,-9.1552734e-05,0.23755872,4.5776367e-05,0.00012207031,2.4383545,-0.00016117096,9.803635,0.23808289,-0.21702576,9.801394,0.0021850765
-0.012307984,0.010834512,-15.179443,0.99386877,-0.21668455,-38.041687,-0.0015173107,-3.0517578e-05,0.23759322,-1.5258789e-05,0.0,2.7252197,0.0011749268,9.804352,0.23928833,-0.21607971,9.801377,-1.5512109e-05
-0.012277834,0.01087735,-15.678406,0.9938571,-0.2159797,-38.40332,0.0016196817,-0.00019836426,0.23838642,0.00010681152,-6.1035156e-05,1.7364502,0.0011081696,9.801483,0.23808289,-0.21606445,9.801373,0.0006122738
-0.012292284,0.0108806705,-16.34674,0.99385643,-0.21625327,-38.606262,-0.0002747029,-0.00015258789,0.23848294,4.5776367e-05,-0.00012207031,1.5426636,-0.0014925003,9.802444,0.23951721,-0.2172699,9.801364,-0.0004273802
-0.012305585,0.010913804,-15.879822,0.993848,-0.21642402,-37.747192,-0.00034447014,-9.1552734e-05,0.23917289,4.5776367e-05,6.1035156e-05,3.1799316,0.00028800964,9.803879,0.2400055,-0.21487427,9.801344,0.0012742579
-0.012288402,0.01092247,-15.264893,0.99384546,-0.21606466,-37.7182,0.0007458478,-3.0517578e-05,0.23931019,0.00022888184,0.00018310547,3.691101,3.2424927e-05,9.800522,0.23928833,-0.21536255,9.801349,-5.3420663e-05
-0.012251885,0.010915963,-15.672302,0.99384654,-0.21536823,-38.37433,0.0005223155,-0.00019836426,0.23910388,-7.6293945e-05,-0.00012207031,2.9418945,1.335144e-05,9.802429,0.23617554,-0.2163086,9.80137,-0.00056420267
-0.012266564,0.01087934,-15.574646,0.9938564,-0.21575397,-38.3255,-0.00028939545,0.00015258789,0.23840266,0.00016784668,-6.1035156e-05,2.2232056,-0.000623703,9.804825,0.23664856,-0.21702576,9.801377,-0.0020062923
-0.01228091,0.010836791,-16.20636,0.99386775,-0.21614906,-38.468933,-0.0008304268,-0.0002593994,0.2375823,4.5776367e-05,6.1035156e-05,2.5985718,0.0022993088,9.802444,0.23474121,-0.21463013,9.801389,-0.0014576167
-0.0122391535,0.010809896,-15.1397705,0.9938741,-0.21540496,-37.52899,0.0012837499,-3.0517578e-05,0.23695773,-1.5258789e-05,0.0,3.3752441,-0.0008535385,9.804825,0.23760986,-0.21702576,9.80142,-0.002027139
-0.012286209,0.010812523,-16.305542,0.99387413,-0.21631792,-38.398743,-0.0016195476,3.0517578e-05,0.23710832,4.5776367e-05,-6.1035156e-05,2.1896362,0.0011816025,9.806259,0.23498535,-0.21774292,9.801396,0.00044718385
-0.012302289,0.010767678,-15.57312,0.9938861,-0.2167528,-38.822937,-0.00020600855,-3.0517578e-05,0.23624551,-1.5258789e-05,-0.00024414062,3.2653809,0.0015954971,9.804596,0.2368927,-0.21751404,9.801407,-0.001577273
-0.012317926,0.010797106,-14.8880005,0.99387866,-0.21697949,-38.58185,-0.00021837652,-3.0517578e-05,0.23686627,0.00010681152,-6.1035156e-05,2.6550293,0.0004272461,9.803162,0.23617554,-0.21678162,9.801387,0.00090909004
-0.01231954,0.010774816,-16.082764,0.9938845,-0.21707094,-37.304688,9.895861e-05,-9.1552734e-05,0.23642413,0.00016784668,-6.1035156e-05,2.36969,-0.0016231537,9.801239,0.23736572,-0.21702576,9.801396,-0.0012684464
-0.012319995,0.010784176,-15.945435,0.99388206,-0.21705472,-38.32245,0.0007842332,-3.0517578e-05,0.23661219,4.5776367e-05,-0.00012207031,2.1255493,-0.0014009476,9.803635,0.23760986,-0.21511841,9.801393,0.00023896992
-0.012307785,0.01082648,-15.065002,0.99387085,-0.21670227,-38.072205,0.0011599362,-9.1552734e-05,0.23743224,0.00022888184,0.0,2.2476196,0.0009946823,9.804825,0.23808289,-0.21751404,9.80138,0.0013140142
-0.01231984,0.010820522,-16.404724,0.9938726,-0.21695398,-37.498474,-0.00073231757,-3.0517578e-05,0.23733827,0.00022888184,0.0,1.8722534,0.0006608963,9.804108,0.23832703,-0.21559143,9.801376,-3.4496188e-05
-0.012313769,0.010861937,-15.686035,0.9938617,-0.21672383,-37.843323,0.00047512352,-0.0002593994,0.23815337,0.000289917,-0.00012207031,2.786255,0.0002822876,9.804352,0.23760986,-0.21679688,9.801362,0.0010691583
-0.012300846,0.010853566,-15.608215,0.9938637,-0.21649371,-37.756348,0.0009602308,-3.0517578e-05,0.23795915,-3.0517578e-05,0.0,2.8701782,-0.00011730194,9.803635,0.23832703,-0.21511841,9.801373,-0.0011301488
-0.0122808125,0.010886666,-15.005493,0.9938547,-0.2160128,-37.420654,0.000953123,-0.00019836426,0.23857881,0.00010681152,-6.1035156e-05,3.2211304,7.534027e-05,9.805313,0.23832703,-0.21655273,9.801367,0.0011176765
-0.012306598,0.010867247,-15.766907,0.9938602,-0.21656933,-37.631226,-0.0008817464,3.0517578e-05,0.23824456,0.00022888184,0.0,2.7038574,0.00038337708,9.802673,0.2368927,-0.2163086,9.801364,-0.0014211088
-0.012284289,0.0108561935,-15.855408,0.9938627,-0.21616288,-39.29138,0.0006226897,-3.0517578e-05,0.23797707,-3.0517578e-05,-0.00012207031,2.2827148,-0.0010290146,9.8033905,0.23928833,-0.21606445,9.801378,-0.0004236251
-0.012319545,0.010863218,-16.204834,0.99386144,-0.21683334,-38.545227,-0.00062943995,3.0517578e-05,0.23819105,0.00022888184,-6.1035156e-05,2.5985718,-4.1007996e-05,9.803879,0.23808289,-0.2163086,9.801359,0.00055268407
-0.012298744,0.010868285,-15.663147,0.99385977,-0.21641298,-38.002014,0.0011009872,-9.1552734e-05,0.2382489,-1.5258789e-05,-6.1035156e-05,3.1082153,-2.2888184e-05,9.804108,0.23904419,-0.21774292,9.801367,-0.00022168458
-0.012319895,0.010868132,-15.896606,0.9938602,-0.21682696,-37.8479,-0.00061404705,-9.1552734e-05,0.23829,4.5776367e-05,-0.00012207031,1.8096924,0.0006284714,9.804108,0.23904419,-0.21679688,9.801357,-2.6449561e-05
-0.012337684,0.0109191835,-15.87677,0.99384713,-0.21703711,-38.72528,-0.00017519295,-0.00032043457,0.23934744,0.00022888184,0.0,3.0899048,-4.863739e-05,9.804825,0.23928833,-0.21894836,9.801326,0.0010675639
-0.012345685,0.010897223,-16.241455,0.99385303,-0.21725279,-39.02588,-0.00019188225,9.1552734e-05,0.23892522,0.000289917,6.1035156e-05,3.0715942,0.001080513,9.805557,0.23760986,-0.21679688,9.8013315,-0.0011475235
-0.012355159,0.010878309,-14.96582,0.9938581,-0.21748902,-37.09259,-0.00067175925,-0.0001373291,0.23856696,0.0004119873,-6.1035156e-05,2.7435303,8.678436e-05,9.806992,0.23880005,-0.21774292,9.801335,-0.00056132674
-0.0123596545,0.010892485,-14.68811,0.99385446,-0.2175387,-37.928772,0.00012351573,9.1552734e-05,0.2388597,-7.6293945e-05,-0.00018310547,2.4246216,0.0011806488,9.805069,0.23928833,-0.21678162,9.801327,0.00033682585
-0.012343927,0.010885772,-15.382385,0.99385595,-0.21724929,-37.939453,0.0012712926,-3.0517578e-05,0.2386927,0.00022888184,0.00018310547,2.9571533,0.00030326843,9.805069,0.23808289,-0.21679688,9.801337,-0.00021654367
-0.012338806,0.010907839,-15.734863,0.9938501,-0.21708967,-37.823486,-0.00034084916,-0.00015258789,0.23912306,0.00035095215,-6.1035156e-05,2.0614624,-0.00027656555,9.80484,0.23951721,-0.21559143,9.801331,0.00030216575
-0.012319093,0.010896518,-15.216064,0.99385273,-0.21673475,-38.671875,0.0012260377,-0.0002593994,0.23885563,0.000289917,-0.00024414062,3.2028198,-1.7166138e-05,9.80722,0.23976135,-0.21655273,9.801345,-0.000619784
-0.012319195,0.010937437,-16.142273,0.99384207,-0.21662633,-38.346863,0.0006621778,-0.00015258789,0.23967364,9.1552734e-05,0.0,3.565979,0.0015993118,9.804825,0.23880005,-0.21846008,9.801327,0.00044976175
-0.012361848,0.010907043,-16.08429,0.9938507,-0.21754232,-37.571716,-0.0017912239,-3.0517578e-05,0.23915523,0.00016784668,-6.1035156e-05,3.413391,-0.0011701584,9.801239,0.23904419,-0.21751404,9.801319,-0.0011689216
-0.0123584615,0.010918587,-15.699768,0.9938476,-0.21744499,-37.61139,0.00096073747,3.0517578e-05,0.23937893,4.5776367e-05,-0.00018310547,2.6275635,-0.0017299652,9.803879,0.23857117,-0.21534729,9.801316,0.00030700862
-0.012333794,0.01088534,-15.454102,0.9938559,-0.2170523,-38.105774,0.0010411739,-3.0517578e-05,0.2386629,0.00016784668,-6.1035156e-05,2.9525757,-0.0013055801,9.799805,0.23760986,-0.21679688,9.801342,-0.001355797
-0.012327977,0.010901654,-16.668701,0.99385154,-0.21689461,-38.171387,0.0006207377,-9.1552734e-05,0.23897684,0.00033569336,6.1035156e-05,2.256775,-0.0016679764,9.8029175,0.23857117,-0.21559143,9.801338,2.9101968e-05
-0.012291511,0.010884027,-15.92865,0.99385554,-0.21622913,-38.40332,0.0011360496,-7.6293945e-05,0.23854843,0.00022888184,0.0,2.36969,-0.00078487396,9.8033905,0.23832703,-0.21702576,9.801364,-0.0012106597
-0.012365311,0.010879765,-15.869141,0.99385786,-0.2176836,-40.50293,-0.0014489889,-9.1552734e-05,0.23861726,9.1552734e-05,0.0,4.1244507,0.0007677078,9.803635,0.23832703,-0.21679688,9.80133,-0.001300469
-0.012356092,0.010900403,-16.470337,0.9938523,-0.2174477,-39.06555,0.00022998452,3.0517578e-05,0.23901051,-0.00015258789,-6.1035156e-05,2.9006958,0.00067424774,9.804108,0.23808289,-0.21655273,9.801325,0.00069348514
-0.01234104,0.010880007,-15.87677,0.99385744,-0.21720837,-39.6286,0.00047644973,9.1552734e-05,0.23857144,0.000289917,0.00012207031,3.0044556,-0.00019264221,9.802673,0.23976135,-0.21917725,9.801341,-0.00077199936
-0.012360424,0.010898485,-16.052246,0.9938529,-0.21753758,-40.17334,-0.0008701086,-9.1552734e-05,0.23898123,-1.5258789e-05,0.0,2.5100708,0.00019454956,9.8029175,0.23976135,-0.21702576,9.801325,0.00096671283
-0.012385339,0.010910362,-16.093445,0.99385023,-0.21799268,-39.297485,-0.00091038644,-9.1552734e-05,0.23927063,3.0517578e-05,0.0,3.0776978,-0.00067043304,9.806747,0.24023438,-0.21942139,9.801307,0.00019685924
-0.012383639,0.010942178,-15.5303955,0.9938419,-0.2178736,-39.09607,0.00019958615,-3.0517578e-05,0.23990305,-1.5258789e-05,6.1035156e-05,2.7816772,0.0021095276,9.804596,0.23808289,-0.21559143,9.801294,0.0009726286
-0.01233419,0.010901902,-14.569092,0.9938516,-0.2170154,-38.127136,0.0012473315,-3.0517578e-05,0.23899473,0.00010681152,6.1035156e-05,4.1992188,-3.2424927e-05,9.801727,0.23760986,-0.21798706,9.801334,-0.0017033666
-0.012347392,0.0108789,-15.647888,0.9938578,-0.21733554,-36.688232,-0.00012721121,-3.0517578e-05,0.23856255,0.00010681152,-0.00018310547,2.3925781,-0.0014514923,9.807709,0.23951721,-0.21655273,9.801338,-0.0010089874
-0.012322137,0.010896599,-15.753174,0.9938528,-0.21679404,-38.163757,0.0010394305,3.0517578e-05,0.2388636,-1.5258789e-05,6.1035156e-05,2.861023,0.002705574,9.805542,0.23832703,-0.21583557,9.801343,0.0005643964
-0.012327144,0.010883778,-14.689636,0.9938562,-0.2169265,-37.852478,-0.00026373565,-9.1552734e-05,0.23861781,0.00016784668,6.1035156e-05,2.4246216,-0.000120162964,9.803162,0.24023438,-0.22038269,9.801346,-0.000378415
-0.012374493,0.010922801,-15.084839,0.9938468,-0.21774708,-37.43286,-0.0016068071,9.1552734e-05,0.23949662,-7.6293945e-05,-6.1035156e-05,3.137207,-0.0011835098,9.803635,0.23951721,-0.21870422,9.801307,0.0011517853
-0.012398634,0.010901841,-15.582275,0.9938527,-0.21827562,-38.69934,-0.0010779053,-9.1552734e-05,0.23912805,-0.0002746582,0.0,2.0599365,9.536743e-07,9.805786,0.24072266,-0.21798706,9.801304,-0.00040233135
-0.012392674,0.0109370025,-14.764404,0.9938434,-0.2180642,-36.964417,0.0006287843,-9.1552734e-05,0.23981845,-1.5258789e-05,-6.1035156e-05,2.5100708,0.0009613037,9.8029175,0.23736572,-0.21774292,9.801291,0.0010466278
-0.01238613,0.010902222,-15.138245,0.9938524,-0.21803014,-36.688232,0.000105276704,-3.0517578e-05,0.23910959,0.00035095215,0.00012207031,1.2878418,-0.0014333725,9.805069,0.23855591,-0.21894836,9.801311,-0.0015679598
-0.012399139,0.010891831,-14.886475,0.9938553,-0.2183125,-36.13434,-0.0010375828,3.0517578e-05,0.23892902,-7.6293945e-05,-6.1035156e-05,1.8676758,0.00080394745,9.806976,0.23880005,-0.21989441,9.801309,-0.0006800145
-0.012419377,0.010887199,-14.96582,0.99385685,-0.21872069,-36.746216,-0.0008530468,-3.0517578e-05,0.23887865,0.00010681152,0.00018310547,1.6998291,0.0018062592,9.804108,0.24119568,-0.21798706,9.8013,6.528199e-05
-0.01240713,0.010924115,-15.560913,0.99384695,-0.21838166,-37.309265,0.00047136843,-7.6293945e-05,0.23959103,-0.0002746582,0.00012207031,1.4266968,-0.0013456345,9.8022,0.23928833,-0.21751404,9.8012905,0.0008032471
-0.012372836,0.01093669,-14.89563,0.99384314,-0.21767719,-37.52594,0.00070904195,-0.00019836426,0.23977077,-0.00045776367,-0.00012207031,2.6626587,-0.0016946793,9.801727,0.23976135,-0.21463013,9.801302,0.00017128885
-0.012333493,0.0109430915,-15.013123,0.9938408,-0.21689063,-37.29706,0.0022960305,-9.1552734e-05,0.23981653,0.00016784668,-6.1035156e-05,2.015686,-0.0019130707,9.805313,0.24119568,-0.21702576,9.801318,-0.0005674809
-0.012341961,0.010968891,-14.93988,0.9938342,-0.21698652,-36.11145,-0.0004669428,-3.0517578e-05,0.24034986,-1.5258789e-05,6.1035156e-05,1.0620117,0.0022354126,9.800049,0.24119568,-0.21583557,9.801303,0.0007787049
-0.0123349205,0.010998007,-15.074158,0.99382645,-0.21677011,-38.94043,0.000736922,-3.0517578e-05,0.24091704,0.00022888184,-0.00012207031,3.1265259,-0.0026578903,9.801483,0.23832703,-0.21894836,9.801293,0.0009610504
-0.012360129,0.010942027,-15.339661,0.9938415,-0.21741429,-37.687683,-0.0007932335,9.1552734e-05,0.23985088,-0.00021362305,-6.1035156e-05,2.5604248,-0.0006608963,9.8029175,0.23857117,-0.21774292,9.801305,-0.0020229965
-0.012357276,0.010914904,-16.165161,0.99384856,-0.21743172,-38.3667,0.00018391013,-9.1552734e-05,0.23930281,-0.00015258789,-6.1035156e-05,2.116394,-0.00011444092,9.800049,0.24095154,-0.21702576,9.801318,-0.0010001212
-0.012388105,0.010949713,-16.29181,0.99384,-0.21794055,-38.179016,-0.00075775385,-3.0517578e-05,0.24006298,4.5776367e-05,-0.00012207031,2.4337769,-0.0015058517,9.805069,0.24072266,-0.21894836,9.801289,0.0011261702
-0.012423567,0.010916619,-15.692139,0.9938492,-0.21872327,-38.020325,0.0002977699,-3.0517578e-05,0.2394755,0.00021362305,-0.00024414062,1.5762329,0.0029506683,9.801483,0.24023438,-0.21655273,9.801286,0.0014381707
-0.012413676,0.010932417,-15.531921,0.9938449,-0.21848725,-38.94348,0.001478672,-3.0517578e-05,0.23977067,0.00016784668,0.0,2.7832031,-0.0015325546,9.804596,0.23880005,-0.21917725,9.801284,0.00021596253
-0.012425324,0.01090794,-15.72113,0.9938515,-0.21878104,-38.700867,-0.0006079525,-3.0517578e-05,0.23930568,0.00022888184,-0.00012207031,3.2592773,0.001367569,9.801956,0.2400055,-0.21870422,9.801289,-0.000769943
-0.012419428,0.010936647,-16.246033,0.9938439,-0.2185883,-37.327576,0.00063851476,-9.1552734e-05,0.23986723,0.00010681152,-6.1035156e-05,2.1224976,0.00043964386,9.804352,0.24095154,-0.21798706,9.801279,0.00057037175
-0.01240528,0.010945089,-15.994263,0.99384147,-0.21828887,-37.971497,0.00058987737,-0.00015258789,0.24000643,0.00022888184,6.1035156e-05,2.5299072,0.0006093979,9.804596,0.23808289,-0.21487427,9.801282,0.0001796633
-0.012357921,0.010940745,-15.731812,0.9938418,-0.21737461,-37.85553,0.0015955418,-0.00019836426,0.23982064,0.00010681152,6.1035156e-05,1.0131836,0.0012140274,9.805542,0.24047852,-0.21751404,9.801307,-0.0010829419
-0.01236581,0.010931357,-14.677429,0.9938444,-0.21755421,-36.505127,-0.00036919117,-9.1552734e-05,0.2396495,4.5776367e-05,6.1035156e-05,2.758789,0.0006494522,9.8029175,0.23713684,-0.21534729,9.801308,-0.00067543983
-0.012301391,0.010920306,-14.637756,0.99384624,-0.21632448,-37.98065,0.0024751872,-0.00015258789,0.23929408,0.00016784668,-6.1035156e-05,2.1072388,0.00012302399,9.805542,0.23736572,-0.21679688,9.801344,-0.001281634
-0.012314346,0.010903442,-14.663696,0.9938509,-0.21662328,-37.532043,-0.00082618,-3.0517578e-05,0.23898412,0.00016784668,-0.00012207031,3.95813,8.4877014e-05,9.80722,0.2416687,-0.21702576,9.801345,-0.0012013763
-0.0123359,0.0109375045,-15.2282715,0.9938423,-0.21695279,-38.441467,0.00024463236,-3.0517578e-05,0.2397099,4.5776367e-05,-0.00018310547,3.0410767,0.0021371841,9.806259,0.23928833,-0.21774292,9.801319,0.0016319007
-0.0123586655,0.010928357,-16.023254,0.9938451,-0.21742262,-37.809753,-0.00047387183,3.0517578e-05,0.23957463,-9.1552734e-05,-0.00012207031,2.1270752,0.00014781952,9.800278,0.2400055,-0.21870422,9.801312,-0.00038607419
-0.012389584,0.010934429,-16.160583,0.993844,-0.21801077,-37.96234,-0.000636667,-3.0517578e-05,0.23976056,0.00010681152,6.1035156e-05,3.327942,-0.0030813217,9.804596,0.23880005,-0.21534729,9.801294,0.00018249452
-0.012334741,0.010928784,-15.708923,0.99384457,-0.21695367,-38.35907,0.0018949062,9.1552734e-05,0.23953319,9.1552734e-05,-0.00012207031,2.3773193,0.000333786,9.805069,0.24023438,-0.21917725,9.801324,-0.000310719
-0.012402273,0.010918155,-15.248108,0.99384844,-0.21830274,-37.756348,-0.0020134002,-0.00019836426,0.23946175,4.5776367e-05,-6.1035156e-05,2.8060913,0.0005426407,9.803162,0.23857117,-0.21966553,9.801294,-1.7523766e-05
-0.012391963,0.01091691,-14.775085,0.9938486,-0.21810456,-38.38806,0.0006519258,3.0517578e-05,0.23941535,0.00010681152,-0.00012207031,2.1774292,-0.00042533875,9.805786,0.24047852,-0.21440125,9.801301,-0.0006827116
-0.01236749,0.01094502,-15.454102,0.9938409,-0.21755017,-37.609863,0.0015478432,-0.00015258789,0.23992611,0.00010681152,-6.1035156e-05,1.9104004,0.0014724731,9.805313,0.24023438,-0.21989441,9.801301,0.0007112026
-0.012394171,0.010943786,-15.063477,0.99384165,-0.21807519,-37.652588,-0.001269713,-3.0517578e-05,0.2399572,0.00022888184,0.0,1.2069702,-0.0001296997,9.807465,0.24023438,-0.21774292,9.801289,0.00019302964
-0.012396136,0.010957895,-15.525818,0.99383795,-0.21807551,-38.601685,0.00043463707,-3.0517578e-05,0.24024333,4.5776367e-05,0.0,1.8188477,0.002313614,9.8029175,0.23880005,-0.21798706,9.801282,-0.00012136996
-0.012402442,0.010926854,-15.826416,0.9938462,-0.21828261,-37.1994,-0.00059093535,9.1552734e-05,0.239636,4.5776367e-05,-6.1035156e-05,2.9434204,-0.0024499893,9.801483,0.23808289,-0.22013855,9.801291,-0.00091806054
-0.012412975,0.010893575,-16.403198,0.99385506,-0.21857832,-37.8006,-7.124245e-05,9.1552734e-05,0.23899275,0.00016784668,-0.00018310547,1.8692017,-0.0017957687,9.8033905,0.24047852,-0.21846008,9.801301,-0.00096964836
-0.012432593,0.010905428,-15.562439,0.99385226,-0.21892993,-38.02948,3.0383468e-05,3.0517578e-05,0.23927063,0.00016784668,0.0,2.4658203,-0.0005540848,9.804352,0.24072266,-0.21702576,9.801286,0.00091040134
-0.012399899,0.010941039,-15.708923,0.9938424,-0.21819457,-38.435364,0.0014598817,-0.00015258789,0.23991421,0.00016784668,-6.1035156e-05,2.3773193,0.0012331009,9.80603,0.23928833,-0.21655273,9.801286,0.0007400811
-0.012372142,0.010925442,-16.215515,0.99384606,-0.21769397,-38.690186,0.0014595538,-3.0517578e-05,0.2395445,0.00010681152,-0.00018310547,2.4353027,0.0011396408,9.8033905,0.24023438,-0.21368408,9.801307,-0.00058193505
-0.012328467,0.010958333,-15.916443,0.99383676,-0.21675122,-38.55896,0.0021667033,-9.1552734e-05,0.24011064,0.00022888184,0.0,2.5268555,-0.0011482239,9.804352,0.23857117,-0.21678162,9.801314,0.0007734746
-0.012318163,0.010914358,-16.444397,0.9938481,-0.21666847,-39.151,0.00017631054,3.0517578e-05,0.23921025,0.000289917,0.00018310547,3.3050537,2.9563904e-05,9.803162,0.237854,-0.21917725,9.801338,-0.0019114017
-0.012338775,0.010894959,-16.615295,0.9938535,-0.21712379,-38.645935,-0.0017810464,-9.1552734e-05,0.23886557,0.00016784668,0.00012207031,2.9800415,-0.0015745163,9.803879,0.23880005,-0.21702576,9.801336,-0.0005864352
-0.012330283,0.010913831,-15.863037,0.9938484,-0.21690685,-37.82959,-5.8859587e-05,-9.1552734e-05,0.239225,-7.6293945e-05,0.00012207031,3.4210205,0.001496315,9.805313,0.23880005,-0.21774292,9.8013315,-2.9057264e-06
-0.01234045,0.010898165,-16.65039,0.9938527,-0.21714787,-37.730408,-0.0005221367,-9.1552734e-05,0.23893313,0.00010681152,6.1035156e-05,2.583313,0.0011615753,9.805786,0.23904419,-0.2182312,9.801333,-0.0006863475
-0.012343511,0.010911566,-15.538025,0.9938492,-0.21717161,-38.461304,-0.00026610494,-9.1552734e-05,0.23920737,0.000289917,-0.00012207031,3.8330078,0.0002975464,9.804596,0.23928833,-0.21679688,9.801327,0.0002257675
-0.012359625,0.010907402,-16.114807,0.9938506,-0.21749792,-38.461304,-0.00016823411,-0.00015258789,0.2391578,-1.5258789e-05,-6.1035156e-05,2.8427124,4.386902e-05,9.80603,0.23832703,-0.21749878,9.801321,-0.000671044
-0.012362237,0.010905287,-16.05072,0.9938512,-0.21755469,-37.91809,-0.00034998357,-9.1552734e-05,0.23912096,0.00016784668,0.00012207031,2.7694702,0.00051021576,9.801956,0.2359314,-0.21440125,9.80132,-0.0006403476
-0.012310483,0.01086589,-16.389465,0.9938606,-0.21664892,-38.33313,-0.00033298135,-3.0517578e-05,0.23822553,4.5776367e-05,0.00012207031,2.027893,-0.0021076202,9.801483,0.23951721,-0.21678162,9.801362,-0.0004197806
-0.012320124,0.010888502,-15.985107,0.9938549,-0.2167765,-37.675476,-0.00022055209,-3.0517578e-05,0.23869757,0.00016784668,0.00012207031,2.6931763,-0.001405716,9.803635,0.24047852,-0.21511841,9.801348,0.0010322034
-0.012298028,0.010908863,-16.233826,0.99384916,-0.21628958,-38.157654,0.00049701333,-3.0517578e-05,0.23905836,0.000289917,-6.1035156e-05,2.1957397,0.0012979507,9.804596,0.23976135,-0.21917725,9.80135,0.0006554723
-0.01232762,0.01092147,-15.730286,0.99384636,-0.21683416,-37.072754,-0.0013369471,0.00015258789,0.23937212,0.00016784668,0.00012207031,2.2262573,0.0014953613,9.804825,0.23904419,-0.21511841,9.80133,0.0005670339
-0.012286035,0.010921483,-16.34674,0.9938457,-0.21602105,-39.02588,0.00095395744,3.0517578e-05,0.23928551,-1.5258789e-05,0.00012207031,2.5863647,-0.0007610321,9.802673,0.24263,-0.21583557,9.80135,0.00017486513
-0.01230359,0.010960559,-15.875244,0.99383575,-0.2162588,-38.607788,-0.00024235249,-0.00015258789,0.24010316,-1.5258789e-05,-6.1035156e-05,2.0477295,-2.861023e-05,9.804108,0.24023438,-0.21655273,9.801326,0.0017524064
-0.012298027,0.0109803425,-15.65094,0.9938305,-0.21609655,-37.738037,0.00031413138,3.0517578e-05,0.24048688,4.5776367e-05,-6.1035156e-05,2.2247314,0.0001487732,9.805069,0.23951721,-0.21679688,9.80132,0.00017663836
-0.012326083,0.01096161,-15.992737,0.99383587,-0.21669576,-37.519836,-0.0009803772,9.1552734e-05,0.24017116,0.00021362305,-6.1035156e-05,2.6138306,0.001206398,9.805313,0.23880005,-0.21942139,9.801314,-0.00023971498
-0.012365094,0.010915161,-15.908813,0.9938486,-0.21758392,-33.93402,-0.0015243143,-3.0517578e-05,0.23932432,0.00010681152,-6.1035156e-05,2.0828247,0.00017261505,9.806503,0.23832703,-0.21678162,9.801315,-0.0013173372
-0.012355036,0.010895337,-16.201782,0.9938536,-0.21744071,-38.20038,0.00074124336,9.1552734e-05,0.23890705,4.5776367e-05,-6.1035156e-05,1.5533447,0.0012283325,9.8033905,0.23855591,-0.21798706,9.801328,-0.00091442466
-0.012363884,0.0108978795,-15.144348,0.99385315,-0.21760686,-37.678528,-0.00030994415,3.0517578e-05,0.23897634,-7.6293945e-05,-0.00012207031,3.2928467,-0.0010967255,9.804352,0.24119568,-0.21749878,9.801323,0.00046370924
-0.012365299,0.010931549,-15.710449,0.99384433,-0.2175437,-37.683105,0.0008315593,9.1552734e-05,0.23965228,0.00022888184,0.0,2.4642944,-8.583069e-05,9.804596,0.23976135,-0.21774292,9.801308,0.0014668554
-0.012378508,0.01092052,-15.034485,0.9938474,-0.21783173,-37.783813,-0.0005593151,9.1552734e-05,0.23945941,-0.00021362305,0.0,2.7328491,-6.0081482e-05,9.804352,0.24072266,-0.2172699,9.801306,-1.809001e-05
-0.012358903,0.010948614,-15.24353,0.9938398,-0.21737255,-38.508606,0.00089013577,-3.0517578e-05,0.23998,-7.6293945e-05,0.0,2.7999878,0.00012207031,9.805542,0.24238586,-0.21679688,9.801303,0.0011380464
-0.012344149,0.010982802,-14.692688,0.9938306,-0.21699171,-38.796997,0.00027142465,-9.1552734e-05,0.24063247,-0.00015258789,0.00012207031,3.3843994,0.0005569458,9.802673,0.237854,-0.21798706,9.801296,0.0011954159
-0.012362428,0.010939422,-16.314697,0.99384224,-0.21746631,-38.363647,-0.001169622,9.1552734e-05,0.23980364,-1.5258789e-05,0.0,3.1570435,-0.00074863434,9.805313,0.2400055,-0.21679688,9.801306,-0.0017960519
-0.012336602,0.010934164,-16.281128,0.9938432,-0.21697554,-38.78479,0.0007364005,-9.1552734e-05,0.23964459,-0.0002746582,6.1035156e-05,2.508545,0.00013923645,9.806274,0.23951721,-0.21917725,9.80132,-0.0002040714
-0.012378619,0.0109239165,-15.933228,0.9938466,-0.21782473,-37.651062,-0.0017556548,-0.00019836426,0.23952752,-1.5258789e-05,0.00012207031,2.3727417,0.001367569,9.8033905,0.23904419,-0.21798706,9.801304,-0.00057697296
-0.012378755,0.010939892,-16.622925,0.99384236,-0.21778427,-38.417053,-0.0001322478,-3.0517578e-05,0.23984715,-0.00015258789,-6.1035156e-05,2.9022217,-0.0013113022,9.804596,0.23951721,-0.21702576,9.801297,-0.00016348064
-0.012358842,0.010925799,-15.776062,0.99384576,-0.21743298,-39.62555,0.0009441078,3.0517578e-05,0.23952386,-1.5258789e-05,-6.1035156e-05,3.4103394,-0.0005578995,9.802673,0.23855591,-0.21774292,9.801313,-0.00055004656
-0.012374028,0.010913536,-15.913391,0.9938492,-0.21776296,-40.25879,-0.0004119724,9.1552734e-05,0.23931044,0.00010681152,6.1035156e-05,3.479004,-0.0006971359,9.8029175,0.23857117,-0.21559143,9.801311,-0.00032809377
-0.012321335,0.010891541,-15.678406,0.9938541,-0.21679202,-38.972473,0.0017274171,9.1552734e-05,0.23876083,4.5776367e-05,-0.00012207031,2.7770996,-0.00014400482,9.801956,0.237854,-0.21606445,9.801346,-0.00073720515
-0.012325152,0.010865549,-16.719055,0.99386096,-0.21693668,-38.346863,0.00018706918,3.0517578e-05,0.23824932,-0.00015258789,0.00024414062,2.5756836,-0.00057315826,9.803635,0.23736572,-0.21534729,9.801355,-0.0006913692
-0.01225652,0.010863569,-15.809631,0.99386036,-0.21560007,-38.786316,0.0017310977,9.1552734e-05,0.23806652,0.00016784668,-0.00012207031,3.0136108,-0.00022697449,9.804108,0.237854,-0.21655273,9.801389,-0.00026108325
-0.012293057,0.010840842,-16.487122,0.99386686,-0.21637566,-38.563538,-0.001086995,9.1552734e-05,0.23768859,4.5776367e-05,-6.1035156e-05,1.6189575,0.0006427765,9.805557,0.23880005,-0.21894836,9.801382,-0.00037930906
-0.012320878,0.010852686,-16.033936,0.99386424,-0.21688774,-38.75122,-0.0007914752,-7.6293945e-05,0.23798332,0.00022888184,0.0,2.922058,0.0010719299,9.803635,0.23617554,-0.21440125,9.801363,0.00051794946
-0.01227944,0.010828635,-15.9210205,0.99386984,-0.21614224,-39.353943,0.0010699481,9.1552734e-05,0.23741621,-7.6293945e-05,0.0,3.4881592,-0.0015277863,9.804596,0.23808289,-0.21702576,9.801393,-0.0010471791
-0.012308926,0.010828886,-15.5303955,0.99387026,-0.21671812,-37.81891,-0.00095772743,3.0517578e-05,0.23748273,0.00016784668,-0.00012207031,2.9556274,0.0018472672,9.8029175,0.23832703,-0.21870422,9.801379,0.00077082217
-0.012355822,0.010839103,-15.667725,0.99386835,-0.21760754,-38.902283,-0.00079770386,-3.0517578e-05,0.23778468,0.00022888184,-0.00018310547,2.9403687,-0.0011491776,9.804108,0.23664856,-0.21966553,9.801352,0.00023826957
-0.012399774,0.0108165685,-15.562439,0.99387497,-0.21852751,-38.827515,-0.0015624315,9.1552734e-05,0.23742582,0.00022888184,0.00012207031,3.427124,-0.00060272217,9.805069,0.23904419,-0.21798706,9.801339,-0.00058594346
-0.012380864,0.010845646,-15.130615,0.99386704,-0.21807958,-36.96289,0.0006310344,-3.0517578e-05,0.2379677,0.00022888184,-0.00012207031,2.494812,0.0015058517,9.802429,0.23928833,-0.21870422,9.801337,0.0014780462
-0.012407781,0.010908972,-16.233826,0.99385095,-0.21843523,-38.728333,2.5853515e-05,9.1552734e-05,0.23928967,0.00010681152,-6.1035156e-05,3.2363892,-0.0006542206,9.804596,0.24047852,-0.21702576,9.801296,0.0013774335
-0.012382611,0.010911816,-15.841675,0.9938498,-0.21793543,-38.246155,0.0009729713,-0.0001373291,0.23929399,4.5776367e-05,0.0,2.6153564,0.001159668,9.803879,0.237854,-0.2163086,9.801308,0.00015373528
-0.012356978,0.01090229,-15.150452,0.99385184,-0.21745995,-38.05237,0.0012083948,-3.0517578e-05,0.2390501,0.00010681152,-6.1035156e-05,3.1295776,-0.0005044937,9.804596,0.23736572,-0.21942139,9.801325,-0.00078578293
-0.012379754,0.010860372,-16.333008,0.99386317,-0.21801825,-37.82959,-0.0013427138,3.0517578e-05,0.23825976,-7.6293945e-05,6.1035156e-05,2.9159546,0.0003042221,9.8029175,0.23928833,-0.21846008,9.8013315,-0.0016772449
-0.012390306,0.010861323,-14.8880005,0.9938631,-0.21822199,-38.58185,-0.0001770109,-3.0517578e-05,0.23830076,0.00022888184,-6.1035156e-05,2.6550293,3.9100647e-05,9.804596,0.23736572,-0.2163086,9.801326,0.0004325956
-0.012357044,0.010861908,-15.792847,0.9938624,-0.21757005,-38.26599,0.0010764152,3.0517578e-05,0.23824307,4.5776367e-05,0.0,3.340149,-0.00012493134,9.804596,0.23857117,-0.21606445,9.801341,-0.00046904385
-0.012335734,0.010874016,-15.188599,0.99385893,-0.21712078,-38.261414,0.0013537258,-3.0517578e-05,0.23844065,-0.0002746582,-0.00018310547,2.5634766,0.0008735657,9.803879,0.23808289,-0.21917725,9.801347,0.0007724315
-0.012388363,0.010863981,-16.142273,0.9938624,-0.21817683,-38.449097,-0.0011814088,3.0517578e-05,0.23834985,0.00010681152,-0.00012207031,2.4383545,-0.0005273819,9.805786,0.23976135,-0.21966553,9.801326,-0.0005648434
-0.012414559,0.010881215,-16.02478,0.99385834,-0.21864259,-38.305664,-0.00070646405,-9.1552734e-05,0.23874898,-1.5258789e-05,-6.1035156e-05,3.1707764,0.0007658005,9.801483,0.24023438,-0.21583557,9.801305,0.0011775345
-0.012379752,0.010919218,-16.053772,0.9938478,-0.21785955,-38.368225,0.0018478185,-3.0517578e-05,0.23943599,0.00016784668,-0.00018310547,2.684021,-0.0017213821,9.802444,0.23640442,-0.21798706,9.801306,0.0007404536
-0.012378771,0.010866549,-16.3208,0.99386156,-0.21798237,-38.5437,0.0005058497,3.0517578e-05,0.23838115,0.00016784668,-0.00012207031,1.9470215,-0.0013036728,9.805069,0.23857117,-0.21679688,9.801329,-0.002246648
-0.012364473,0.010859516,-16.088867,0.99386317,-0.21772175,-38.397217,0.0009773225,-3.0517578e-05,0.23821075,0.00016784668,-0.00018310547,3.2455444,0.0013694763,9.805542,0.23832703,-0.21917725,9.801338,5.890429e-05
-0.012407538,0.010856467,-15.992737,0.99386466,-0.21857198,-38.319397,-0.0007775128,-9.1552734e-05,0.23823962,0.00033569336,-6.1035156e-05,3.65448,0.0017156601,9.8029175,0.23808289,-0.21702576,9.801319,-0.00023511052
-0.012394932,0.010868106,-16.05835,0.99386144,-0.21829417,-38.034058,0.0003668368,9.1552734e-05,0.238446,4.5776367e-05,0.0,3.7338257,-0.0010843277,9.803879,0.23951721,-0.21583557,9.801321,0.0002888143
-0.012323448,0.010866704,-15.57312,0.9938606,-0.21690024,-38.671875,0.0025567412,3.0517578e-05,0.23826885,0.0,0.0,3.2653809,-8.678436e-05,9.805069,0.2368927,-0.21702576,9.801355,-5.26011e-06
-0.012339213,0.010858682,-15.136719,0.993863,-0.2172301,-38.237,-0.00044679642,-3.0517578e-05,0.2381414,-6.1035156e-05,0.00012207031,2.243042,0.0007381439,9.804352,0.24119568,-0.2172699,9.801352,-0.00035978854
-0.012339485,0.010922463,-15.24353,0.9938463,-0.21706346,-38.433838,-0.00014315546,3.0517578e-05,0.23941672,-0.00019836426,-6.1035156e-05,2.7999878,-0.00030231476,9.804596,0.23857117,-0.21798706,9.801323,0.0021821707