timestamp,rotationVector_x,rotationVector_y,rotationVector_z,accelerometer_x,accelerometer_y,accelerometer_z,magneticField_x,magneticField_y,magneticField_z,gravity_x,gravity_y,gravity_z,linearAcceleration_x,linearAcceleration_y,linearAcceleration_z,gyroscope_x,gyroscope_y,gyroscope_z
2019-07-01T19:46:47.422Z,-0.007343802,-0.0019302226,-0.5791934,-0.24885559,0.105285645,9.9039,-17.080688,11.665344,-27.146912,0.114284985,-0.095484674,9.80552,-0.0058579594,1.7331103,-0.009961128,-0.007873535,0.015335083,-0.33372498
2019-07-01T19:46:47.630Z,-0.0030711922,-0.004780972,-0.56126934,-2.1798553,-6.214157,9.664612,-18.22052,9.243774,-25.556946,0.111414604,0.0027782621,9.806017,-0.1506485,1.8652946,0.0376482,0.006668091,-0.00036621094,0.1088562
2019-07-01T19:46:47.824Z,-0.009985496,0.00033076335,-0.5506646,-0.18902588,3.0556335,9.851257,-23.423767,10.676575,-20.06836,0.102432065,-0.16704063,9.804692,-0.14549835,-3.3846407,-0.02266121,0.0012207031,-0.0017089844,0.18307495
2019-07-01T19:46:48.026Z,-0.008275213,-0.0010484438,-0.5461455,-0.08135986,1.0600128,9.832108,-18.286133,11.654663,-27.024841,0.10586666,-0.12472331,9.805285,0.19300541,0.91529584,0.0051021576,-0.004272461,0.0076446533,0.013931274
2019-07-01T19:46:48.236Z,-0.0040618745,-0.004181901,-0.5366538,0.16989136,-2.1870422,9.932602,-16.374207,11.277771,-27.48413,0.111961246,-0.023204593,9.805984,0.14217107,2.0417871,0.017402649,0.0027618408,-0.0029296875,0.10848999
2019-07-01T19:46:48.437Z,-0.008354971,-0.0013525413,-0.5356092,1.2801666,-0.102890015,9.810577,-22.235107,14.039612,-20.56427,0.11017021,-0.124165945,9.805245,-0.16902894,-2.0846615,-0.008408546,0.003189087,-0.007751465,0.108795166
2019-07-01T19:46:48.643Z,-0.011852095,1.3286209e-06,-0.53540134,0.27038574,5.517853,9.832108,-19.088745,13.037109,-24.21875,0.1244367,-0.19632871,9.803895,0.14881828,-1.2637705,-0.0073843,-0.00592041,0.0073394775,-0.26071167
2019-07-01T19:46:48.841Z,-0.005179241,-0.0039133285,-0.53418845,0.009567261,-2.6799622,9.812973,-17.240906,9.983826,-28.164673,0.11914659,-0.044870663,9.805823,-0.2349563,3.082314,0.036467552,0.0011138916,-0.011108398,0.26994324
2019-07-01T19:46:49.044Z,-0.007195004,-0.0021855035,-0.52178484,-0.5024872,-2.2348938,9.76033,-21.495056,12.559509,-20.669556,0.11019879,-0.09801339,9.805541,-0.071657695,-1.1855061,-0.021593094,0.0050201416,-0.0032806396,0.0017089844
2019-07-01T19:46:49.245Z,-0.011827114,0.0012566218,-0.53111887,0.83987427,4.450653,9.800995,-21.347046,13.948059,-19.79065,0.102322124,-0.20961735,9.803876,-0.26049438,-2.1635828,-0.010020256,-0.0025634766,0.009475708,0.09663391
2019-07-01T19:46:49.446Z,-0.007941185,-0.00038598775,-0.5161046,-0.830307,-1.6654053,9.786652,-16.749573,11.828613,-26.826477,0.08686879,-0.12949337,9.80541,0.34553352,1.6615922,-0.0028333664,-0.003479004,0.0038604736,-0.13897705
2019-07-01T19:46:49.646Z,-0.005574085,-0.0030432376,-0.5358122,-0.43310547,-2.108078,9.683746,-20.814514,11.889648,-22.418213,0.10897362,-0.060324036,9.805859,0.020736367,1.2088779,0.02358818,0.0049591064,-0.0028686523,-0.06890869
2019-07-01T19:46:49.849Z,-0.010372143,0.00021310568,-0.5365862,0.18424988,0.19381714,9.805786,-23.335266,12.266541,-17.556763,0.10563203,-0.17389496,9.80454,-0.15468448,-2.2639177,-0.01508522,0.00079345703,0.0012359619,0.07122803
2019-07-01T19:46:50.055Z,-0.011214973,0.0015600084,-0.5351479,0.28953552,3.8524475,9.848862,-17.752075,12.324524,-24.19281,0.091867864,-0.20217246,9.804135,0.10768642,-0.49652714,-0.0021953583,-0.003479004,0.010818481,-0.055648804
2019-07-01T19:46:50.251Z,-0.0048540756,-0.0033012247,-0.528811,-0.086135864,-3.6275177,9.745972,-16.767883,11.239624,-26.04065,0.10529795,-0.046562444,9.805974,0.20194504,3.1053057,0.02537632,0.002029419,-0.0071411133,0.07299805
2019-07-01T19:46:50.459Z,-0.008383783,-0.0008059292,-0.5202243,0.20100403,-1.4380798,9.846466,-20.710754,13.542175,-18.461609,0.09904131,-0.13220124,9.805259,-0.2411736,-1.7731987,-0.006313324,0.002090454,-0.0044555664,0.033843994
2019-07-01T19:46:50.661Z,-0.01231571,0.0019325812,-0.5312891,1.2969055,1.5792694,9.71965,-18.347168,13.070679,-22.053528,0.09622512,-0.22475633,9.803602,-0.10102229,-1.7222667,-0.012775421,-0.0017700195,0.0073394775,0.011001587
2019-07-01T19:46:50.859Z,-0.007627574,-0.0005711509,-0.52024513,-0.15553284,-2.0985107,9.84407,-16.365051,11.569214,-27.801514,0.08739611,-0.12192957,9.805503,0.10739139,2.111068,0.0065631866,-0.00390625,-0.0061035156,0.15638733
2019-07-01T19:46:51.067Z,-0.0058504515,-0.0025445458,-0.50655144,-0.31106567,-2.1320038,9.86322,-20.187378,14.678955,-19.688416,0.10115416,-0.07365255,9.805852,-0.051864244,0.8996537,0.021382332,0.005142212,-0.00793457,0.0284729
2019-07-01T19:46:51.272Z,-0.0118359355,0.000386153,-0.5153993,0.14596558,1.3974152,9.786652,-19.396973,14.445496,-20.220947,0.113156006,-0.20281842,9.8039,-0.11220084,-2.5094357,-0.016117096,-0.006652832,-0.008163452,-0.2886963
2019-07-01T19:46:51.474Z,-0.01141507,-0.000113406284,-0.51794684,-0.17468262,2.005188,9.817749,-17.10205,11.151123,-26.87378,0.11786416,-0.19034687,9.804094,-0.0152202025,0.28678548,-0.0010919571,-0.002380371,0.015823364,-0.07757568
2019-07-01T19:46:51.676Z,-0.0047366163,-0.0033267841,-0.5104084,0.12921143,-4.1683044,9.71965,-19.992065,12.614441,-24.343872,0.103525914,-0.046582717,9.805993,-0.0020654723,2.7265427,0.021300316,0.0053253174,-0.00061035156,0.124191284
2019-07-01T19:46:51.878Z,-0.008668456,-0.00057547126,-0.49283844,0.6963043,-0.8661957,9.810577,-22.407532,12.7456665,-15.005493,0.093611404,-0.14236538,9.80517,-0.10893125,-1.9573355,-0.008481026,0.003250122,-0.0015869141,0.18997192
2019-07-01T19:46:52.082Z,-0.012586594,0.0018887938,-0.48447487,0.3637085,4.0534363,9.796219,-17.178345,14.253235,-23.446655,0.08719557,-0.2338832,9.8034725,0.023821533,-1.7186463,-0.020835876,-0.00012207031,0.011734009,-0.08406067
2019-07-01T19:46:52.281Z,-0.008501944,1.3146723e-05,-0.50071526,-0.9451599,-0.059814453,9.784256,-15.901184,10.861206,-26.377869,0.08327167,-0.14446397,9.805232,-0.06507734,1.8155963,0.010581017,-0.0061035156,-0.0017700195,-0.19204712
2019-07-01T19:46:52.486Z,-0.0042391843,-0.0024030148,-0.50685304,-0.38046265,-0.6699829,9.815353,-20.742798,13.040161,-19.921875,0.08276984,-0.04778351,9.806185,-0.004760854,1.7194109,0.015882492,0.004837036,-0.0033569336,0.104400635
2019-07-01T19:46:52.686Z,-0.010045335,0.00081506907,-0.49924186,0.22253418,-0.15792847,9.774673,-21.322632,14.228821,-18.373108,0.084511206,-0.17868178,9.804658,-0.3247468,-2.5206566,-0.009539604,0.00079345703,-0.0033569336,0.1157074
2019-07-01T19:46:52.888Z,-0.01098046,0.0020765713,-0.5013151,0.38763428,1.2035828,9.872787,-14.642334,13.705444,-25.247192,0.07272683,-0.2067483,9.804201,0.0012127832,-0.4804643,-0.0006971359,-0.0013427734,0.0068511963,-0.070129395
2019-07-01T19:46:53.092Z,-0.0064139473,-0.0016137977,-0.49350053,-0.13160706,-2.2612152,9.7986145,-20.185852,13.91449,-15.161133,0.08961002,-0.09378944,9.805793,0.5124308,2.2822604,0.009420395,-0.001953125,-0.0015869141,0.0012207031
2019-07-01T19:46:53.298Z,-0.007319656,-0.0013441931,-0.49544576,-0.0382843,-1.976471,9.789032,-16.12854,16.067505,-22.894287,0.0940275,-0.111637525,9.805564,-0.17298955,-0.4454177,0.0038070679,0.0045318604,-0.0048828125,0.028961182
2019-07-01T19:46:53.499Z,-0.008473028,0.00023037523,-0.50607765,0.43070984,0.34217834,9.824936,-15.39917,12.927246,-25.375366,0.08020515,-0.1456115,9.805242,0.24952714,1.340579,-0.0060014725,-0.004333496,0.0035552979,-0.09913635
2019-07-01T19:46:53.700Z,-0.005179467,-0.00244093,-0.50217205,0.06460571,-0.28474426,9.88475,-22.17102,13.075256,-17.591858,0.09241346,-0.063805416,9.806007,0.38424152,1.515297,0.022855759,0.0028839111,-0.0053710938,-0.024429321
2019-07-01T19:46:53.900Z,-0.010127719,0.00016385155,-0.5058029,0.36131287,-0.624527,9.834503,-20.835876,14.334106,-18.370056,0.0976996,-0.17296854,9.804638,-0.55904114,-2.0839307,-0.0029258728,0.0,-0.0060424805,0.07165527
2019-07-01T19:46:54.096Z,-0.012240525,0.0022752187,-0.51162034,0.25842285,1.8281097,9.82254,-16.01715,11.79657,-25.730896,0.08449043,-0.2290862,9.80361,0.05308476,-1.0338172,-0.006310463,-0.0010375977,0.00630188,-0.08258057
2019-07-01T19:46:54.301Z,-0.008926139,0.0005486557,-0.5076341,-0.21534729,1.6797638,9.808182,-14.219666,9.3185425,-29.02832,0.0796012,-0.15629095,9.805081,0.017304868,1.450821,0.0051870346,-0.0036621094,0.0065460205,-0.00970459
2019-07-01T19:46:54.518Z,-0.0052379114,-0.0014654502,-0.5090128,0.37088013,-1.3567352,9.829712,-18.17627,13.4552,-23.11554,0.077031985,-0.07379614,9.806069,0.14957538,1.5889337,0.013958931,0.003250122,-0.0012817383,0.06732178
2019-07-01T19:46:54.710Z,-0.0056066024,-0.0017324227,-0.49017173,-0.122039795,-0.9140625,9.817749,-22.87445,11.332703,-15.200806,0.08351713,-0.07918996,9.805975,-0.030631572,-0.21321288,-0.00035476685,0.003921509,-0.006958008,0.16737366
2019-07-01T19:46:54.920Z,-0.010889557,0.0014305331,-0.49650294,0.08135986,-0.31825256,9.734009,-20.884705,13.163757,-18.078613,0.08169025,-0.19931084,9.804284,-0.35878175,-2.3023655,-0.016109467,-0.0053100586,-0.008300781,-0.18423462
2019-07-01T19:46:55.122Z,-0.013069298,0.0034034539,-0.5092929,0.91166687,3.5270233,9.815353,-15.473938,10.031128,-28.453064,0.073108025,-0.2545673,9.803073,-0.3042617,-0.8587736,0.00042438507,-0.0022583008,0.005142212,0.04624939
2019-07-01T19:46:55.327Z,-0.008972615,0.0006363213,-0.50261486,-1.0169525,1.2179413,9.848862,-14.389038,10.908508,-28.697205,0.07766264,-0.15840337,9.805063,0.43176797,1.9247899,0.0019979477,-0.0010375977,0.0124053955,-0.12809753
2019-07-01T19:46:55.525Z,-0.003987095,-0.0019641672,-0.48145992,-0.15792847,-2.100891,9.82254,-20.243835,14.653015,-16.519165,0.07141466,-0.049991336,9.806263,0.0013224185,1.918538,0.025384903,0.005508423,-0.0065307617,0.21411133
2019-07-01T19:46:55.775Z,-0.006337626,-0.0011762963,-0.4588071,0.52163696,-3.180069,9.78186,-20.547485,9.899902,-7.9589844,0.077529445,-0.0998585,9.805835,-0.22372669,-1.0453405,-0.0032691956,0.0027618408,-0.010131836,0.16755676
2019-07-01T19:46:55.981Z,-0.011589279,0.0022021297,-0.44442257,0.18424988,-0.20817566,9.870392,-11.862183,15.979004,-21.876526,0.062331125,-0.2228003,9.803922,-0.2657234,-2.2738452,-0.0189991,-0.0014038086,0.007522583,0.12840271
2019-07-01T19:46:56.186Z,-0.0132825235,0.0031304003,-0.45687616,0.30389404,0.009567261,9.853638,-12.586975,10.165405,-30.432129,0.064414196,-0.25975898,9.802998,0.15953866,-0.657109,0.0044794083,-0.003540039,0.0036773682,-0.2108612
2019-07-01T19:46:56.341Z,-0.007745954,-0.0006829749,-0.4633014,-0.13639832,-0.75613403,9.824936,-14.172363,13.371277,-25.108337,0.08225702,-0.12842363,9.805464,0.47143537,2.6399338,0.012134552,-0.001953125,0.003189087,-0.17237854
2019-07-01T19:46:56.543Z,-0.0053358776,-0.0014153022,-0.45638105,-5.864807,-3.3403778,8.4227295,-18.409729,20.491028,-20.61615,0.072461,-0.08044929,9.806052,-0.21195942,0.7903978,0.008954048,0.0031280518,0.50183105,0.10525513
2019-07-01T19:46:56.742Z,0.12554923,0.26603097,-0.45108944,-7.211975,0.14117432,6.754944,4.3014526,32.06787,-30.969238,-5.5072765,-0.27880993,8.109411,3.4069424,-1.99548,1.2962818,-0.24440002,3.5925446,0.30397034
2019-07-01T19:46:56.950Z,0.24125218,0.50930125,-0.34569967,-5.8791656,-0.2416687,-8.4227295,34.9411,9.963989,-1.31073,-9.130246,0.096858434,3.5776546,2.030592,0.12347834,3.1110792,1.1613312,6.4270935,0.11087036
2019-07-01T19:46:57.158Z,0.53635204,0.7970604,-0.1728738,-3.1274261,0.035888672,-9.540192,31.430054,5.656433,16.078186,-5.2126164,-0.4186357,-8.296009,-2.9114208,0.47011256,4.7394958,0.2632904,3.0940094,0.20072937
2019-07-01T19:46:57.355Z,0.5597436,0.81468886,-0.06923863,1.0121613,-0.18424988,-1.8951111,24.571228,3.829956,23.764038,-2.91431,0.37371376,-9.356149,-1.2289152,-0.778008,-0.40571117,0.094940186,1.7913818,0.33909607
2019-07-01T19:46:57.555Z,0.5740953,0.8168616,-0.016696807,-0.16989136,-0.32781982,-9.918243,22.485352,3.6026,25.843811,-1.046737,0.33601698,-9.744836,0.09068233,-0.43848354,-0.8383455,0.002822876,0.4433136,0.013748169
2019-07-01T19:46:57.758Z,0.57426864,0.8168689,-0.016046997,-0.07896423,0.35891724,-9.92543,22.531128,3.0334473,24.667358,-1.0106639,0.32634804,-9.748971,1.0208051,-0.34893247,-0.5872507,-0.0005493164,0.0022735596,-0.022598267
2019-07-01T19:46:57.958Z,0.57433015,0.81715435,-0.014806863,0.25602722,-1.7132568,-9.812973,21.975708,6.478882,26.750183,-0.91586256,0.28916702,-9.759506,0.87073684,-0.2703658,-0.6641474,0.0036773682,0.00843811,-0.4837494
2019-07-01T19:46:58.160Z,0.52138186,0.8520879,-0.020062188,0.69392395,5.551346,-9.631119,21.90857,6.994629,25.424194,-0.8951526,0.08691558,-9.765324,1.1836915,-1.4125246,-0.6288986,0.004714966,0.01222229,-0.3049469
2019-07-01T19:46:58.365Z,0.5179109,0.85426325,-0.011110888,0.6197357,-1.696518,-9.939789,22.447205,6.4468384,25.36621,-0.839178,0.25417775,-9.767372,0.7038396,3.8390014,-0.60971546,0.020599365,-0.024734497,0.007751465
2019-07-01T19:46:58.563Z,0.5081703,0.8603849,-0.0177159,-0.48335266,0.87815857,-9.784256,21.524048,9.074402,26.46637,-0.7579433,0.044420253,-9.777215,0.85058844,-4.099235,-0.5640974,-0.030227661,0.012771606,-0.36993408
2019-07-01T19:46:58.783Z,0.48923618,0.8712436,-0.020698471,-0.22013855,4.9746857,-9.772293,21.292114,9.353638,26.081848,-0.77914566,-0.02770361,-9.77561,0.6603694,-0.66552675,-0.53289413,0.009231567,0.0135650635,0.0050201416
2019-07-01T19:46:58.976Z,0.48426962,0.87403876,-0.012774901,-0.22970581,-5.0512543,-9.745972,23.2193,7.7453613,24.467468,-0.75723875,0.1333298,-9.776461,0.3988871,3.9634092,-0.49125385,0.012832642,-0.034561157,-0.014724731
2019-07-01T19:46:59.165Z,0.4785922,0.8772974,-0.016365219,0.071777344,-1.1437683,-9.805786,23.077393,11.740112,25.057983,-0.7061046,0.019807491,-9.781177,0.9431589,-2.6536007,-0.5748987,-0.02357483,0.018585205,-0.24501038
2019-07-01T19:46:59.379Z,0.46050242,0.8870081,-0.020110046,-0.13160706,4.340576,-9.707687,20.088196,10.934448,27.886963,-0.658023,-0.102533355,-9.784011,0.95604175,-1.8295598,-0.4146948,0.001159668,-0.0008392334,-0.031585693
2019-07-01T19:46:59.579Z,0.4788312,0.8773506,-0.013932978,-0.32781982,-0.107681274,-9.767502,22.810364,11.138916,25.022888,-0.6121954,0.022948017,-9.787496,0.29533517,2.26966,-0.43386745,0.01966858,-0.0008392334,0.09083557
2019-07-01T19:46:59.785Z,0.47614518,0.878803,-0.013604448,0.39720154,-2.165512,-9.896713,22.840881,12.023926,23.994446,-0.6163755,0.030633193,-9.787212,0.56359655,0.8739237,-0.42749405,-0.00018310547,-0.004272461,-0.15979004
2019-07-01T19:46:59.983Z,0.47731957,0.8783269,-0.013815029,-0.51924133,1.9405823,-9.846466,19.80896,10.499573,25.39215,-0.5210621,-0.025108375,-9.792766,0.65338403,-0.5627971,-0.35960388,0.005065918,0.00831604,0.08869934
2019-07-01T19:47:00.182Z,0.49088642,0.87082374,-0.010967357,0.5096741,-4.5511475,-9.824936,20.303345,10.902405,24.85199,-0.5155806,0.04379216,-9.79299,0.14086324,1.726068,-0.36779118,0.02255249,-0.03211975,0.1643219
2019-07-01T19:47:00.389Z,0.49671903,0.867573,-0.012184727,0.5120697,-0.8805542,-9.779465,23.306274,9.794617,24.050903,-0.47512972,-0.0032693432,-9.795133,0.8057542,-1.2935181,-0.38996506,-0.026870728,0.025909424,-0.14581299
2019-07-01T19:47:00.612Z,0.4779422,0.8780984,-0.014380467,-0.047851562,0.9906311,-9.681366,22.17102,11.164856,25.508118,-0.4368378,-0.08327101,-9.796562,0.612398,-1.5006093,-0.28685284,-0.0021972656,-0.0031738281,-0.06768799
2019-07-01T19:47:00.789Z,0.48213646,0.87584203,-0.00918393,-0.028717041,-1.4165497,-9.509079,19.485474,11.91864,27.659607,-0.4131681,0.021871982,-9.797919,0.21038505,2.1775663,-0.29647827,0.032562256,-0.012878418,0.26560974
2019-07-01T19:47:00.996Z,0.49117512,0.87078226,-0.009918665,0.50727844,-2.0530396,-9.418152,21.755981,11.001587,24.433899,-0.43149516,0.020092662,-9.7971325,0.48077437,0.36096147,-0.3073387,-0.024856567,0.034469604,-0.13883972
2019-07-01T19:47:01.199Z,0.48392987,0.87491816,-0.012639282,-0.8063812,3.3427734,-9.865616,21.995544,10.942078,24.789429,-0.34390035,-0.09302878,-9.800177,0.7489453,-2.7309563,-0.29122353,-0.0053100586,-0.017700195,-0.098098755
2019-07-01T19:47:01.407Z,0.49012908,0.8714691,-0.00876615,-0.24645996,0.95951843,-10.1527405,19.647217,10.108948,27.433777,-0.34809962,-0.0014518064,-9.80047,0.12199685,1.7326294,-0.24841022,0.02645874,-0.0056762695,0.10385132
2019-07-01T19:47:01.609Z,0.4716491,0.88157135,-0.006463487,0.100494385,-0.84706116,-9.805786,20.133972,10.516357,25.987244,-0.37735572,0.058143046,-9.799214,0.20483682,2.127978,-0.2637148,-0.006652832,-0.010009766,-0.19102478
2019-07-01T19:47:01.812Z,0.47558448,0.8795517,-0.0098655345,0.21774292,-0.102890015,-9.817749,22.795105,11.003113,23.713684,-0.27367648,-0.071967475,-9.802567,0.78368616,-3.1383119,-0.25495148,-0.021133423,0.013137817,-0.1552124
2019-07-01T19:47:02.019Z,0.4762206,0.87920237,-0.011420231,-0.37806702,2.6153564,-9.698105,21.237183,11.755371,26.194763,-0.26724496,-0.10995446,-9.802391,0.5195194,-0.877942,-0.21887493,0.0029296875,0.0005645752,0.20959473
2019-07-01T19:47:02.218Z,0.4785546,0.8779709,-0.005634113,0.92123413,-0.6628113,-10.054642,18.537903,10.392761,28.067017,-0.24220794,0.006176782,-9.803657,-0.103142425,2.5265212,-0.20492554,0.03036499,-0.0119018555,-0.058273315
2019-07-01T19:47:02.410Z,0.4678648,0.8836689,-0.0052480213,1.3926239,-6.57547,-9.7986145,22.843933,12.095642,24.160767,-0.29589164,0.040207528,-9.802102,0.31337243,1.1836138,-0.18975449,-0.022659302,0.00819397,-0.086364746
2019-07-01T19:47:02.628Z,0.4712315,0.8819203,-0.010901308,-0.825531,2.778061,-9.78186,22.180176,11.538696,24.525452,-0.20825072,-0.13112596,-9.803561,0.911435,-3.9931219,-0.22497082,-0.008117676,0.0001373291,0.027496338
2019-07-01T19:47:02.828Z,0.4808806,0.87671417,-0.008163544,-0.2368927,3.0604248,-9.430115,18.70575,10.707092,26.916504,-0.20964001,-0.06761843,-9.804176,0.042729557,1.1679946,-0.19287395,0.012649536,0.012649536,0.10494995
2019-07-01T19:47:03.029Z,0.46869504,0.88325363,-0.0040409057,0.5886383,-3.1633148,-9.669403,19.532776,11.578369,25.170898,-0.264124,0.050441932,-9.802963,-0.15360442,3.2015884,-0.19997883,0.009536743,-0.038726807,-0.28753662
2019-07-01T19:47:03.230Z,0.45465538,0.8905897,-0.0065760063,0.5120697,-1.524231,-9.726822,22.686768,10.716248,22.071838,-0.22902845,-0.027880764,-9.803936,0.5964627,-1.7485534,-0.14657497,-0.018203735,0.020477295,-0.013320923
2019-07-01T19:47:03.436Z,0.5147849,0.8572535,-0.010331279,-0.68673706,4.065399,-9.7005005,22.024536,11.904907,23.095703,-0.14620253,-0.14854966,-9.804435,0.8896799,-2.983194,-0.17192459,-0.008972168,0.0041046143,0.1599884
2019-07-01T19:47:03.636Z,0.5419129,0.8403887,-0.005978572,-0.32302856,1.031311,-10.083359,17.881775,10.131836,28.03955,-0.16964957,-0.030123185,-9.805136,-0.2892995,2.1604688,-0.14384842,0.02053833,0.0062408447,0.20195007
2019-07-01T19:47:03.839Z,0.5323278,0.84646225,-0.0032575203,0.34457397,-4.7641144,-9.769897,21.191406,12.705994,25.257874,-0.21451373,0.059434574,-9.804124,-0.1614757,2.7680933,-0.12672329,0.010940552,-0.03982544,-0.11734009
2019-07-01T19:47:04.042Z,0.5216897,0.85309017,-0.006386809,-0.1603241,-0.8901367,-9.88475,23.390198,8.282471,22.454834,-0.16604254,-0.045287207,-9.80514,0.7384745,-2.6334007,-0.18435764,-0.03352356,0.035369873,-0.14141846
2019-07-01T19:47:04.250Z,0.5275393,0.84947747,-0.0093885325,0.035888672,3.706482,-9.762711,20.47882,12.799072,26.213074,-0.12197777,-0.1409989,-9.804877,0.52880967,-2.300352,-0.12549114,0.00030517578,-0.006591797,0.13249207
2019-07-01T19:47:04.448Z,0.53070474,0.847539,-0.0032654118,-0.275177,-0.29910278,-9.836899,20.263672,11.465454,26.855469,-0.10734564,-0.0083473865,-9.806059,-0.22016628,3.00525,-0.113438606,0.031402588,-0.023086548,-0.09693909
2019-07-01T19:47:04.652Z,0.5078759,0.8613619,-0.0026527108,0.07417297,-0.8877411,-9.767502,22.66388,9.74884,24.519348,-0.20410767,0.059950504,-9.804343,-0.051050246,1.972758,-0.11948681,-0.018127441,0.0023345947,-0.21936035
2019-07-01T19:47:04.856Z,0.51085407,0.85964674,-0.0057875887,-0.1603241,0.41874695,-9.812973,23.110962,9.132385,23.242188,-0.082736745,-0.08287505,-9.805951,0.79484797,-3.62863,-0.13723564,-0.019058228,0.021331787,0.004348755
2019-07-01T19:47:05.059Z,0.51086354,0.85963404,-0.0068594175,-0.0143585205,0.72502136,-9.745972,20.384216,12.730408,24.691772,-0.082904674,-0.1072275,-9.805713,0.28323168,-0.7034382,-0.09357929,0.0010528564,-0.0013885498,0.06500244
2019-07-01T19:47:05.253Z,0.51243675,0.85871613,-0.0029296721,0.28474426,-0.35891724,-9.817749,20.002747,13.137817,25.318909,-0.07297436,-0.023366177,-9.80635,-0.18262583,1.901967,-0.100554466,0.012649536,0.021759033,0.010147095
2019-07-01T19:47:05.458Z,0.51203525,0.85895944,-0.0026882144,0.090927124,-0.0382843,-9.791428,19.711304,13.623047,25.958252,-0.0468729,-0.033440147,-9.806481,0.16341159,-0.06859193,-0.09794426,-0.0014648438,-0.0028076172,-0.0064086914
2019-07-01T19:47:05.660Z,0.51215225,0.8588903,-0.002559539,0.06460571,-0.01914978,-9.865616,20.20874,13.943481,26.38092,-0.042511426,-0.033098873,-9.806501,0.12729955,-0.0026295297,-0.09122944,0.00036621094,-0.0012207031,0.00038146973
2019-07-01T19:47:05.863Z,0.5123264,0.85878694,-0.0024545165,0.112457275,-0.04307556,-9.808182,21.156311,13.725281,25.315857,-0.03776145,-0.03352946,-9.80652,0.12021896,-0.0062592253,-0.09986687,0.00030517578,-0.0006713867,0.0002593994
2019-07-01T19:47:06.066Z,0.51248336,0.8586938,-0.0023401633,0.086135864,-0.047851562,-9.808182,19.451904,13.316345,25.75531,-0.032882143,-0.03382639,-9.806537,0.12617058,-0.010252804,-0.083732605,-0.0008544922,-0.0012817383,-0.00048828125
2019-07-01T19:47:06.265Z,-0.5132652,-0.8582284,0.0013320382,0.105285645,-0.03111267,-9.791428,20.457458,12.286377,26.25885,0.004560782,-0.033168886,-9.806593,0.077541955,-0.00028223917,-0.0556612,0.00012207031,0.0002593994,0.00018310547
2019-07-01T19:47:06.478Z,-0.51390314,-0.8578449,0.00067751145,0.088531494,-0.0382843,-9.815353,19.43512,12.95166,25.604248,0.04926272,-0.03612376,-9.80646,0.03220826,-0.0036763512,-0.028144836,0.00012207031,-0.00024414062,1.5258789e-05
2019-07-01T19:47:06.667Z,-0.51457167,-0.8574399,1.325911e-05,0.06939697,-0.033493042,-9.8033905,20.12024,11.97052,26.283264,0.060090344,-0.036365047,-9.806398,0.028781954,0.000417877,-0.012537003,0.00012207031,-0.0013427734,0.00030517578
2019-07-01T19:47:06.866Z,-0.5147515,-0.85733056,-0.0001227465,0.093322754,-0.0382843,-9.8033905,20.327759,13.154602,25.610352,0.06683976,-0.03732334,-9.806352,0.012649588,-0.0029126555,-0.016171455,-6.1035156e-05,0.0001373291,6.1035156e-05
2019-07-01T19:47:07.086Z,-0.51488256,-0.8572507,-0.00023651456,-0.8805542,2.0578308,-9.784256,20.059204,12.710571,24.473572,0.07206006,-0.037869573,-9.806313,0.00884071,-0.00018593296,-0.007276535,0.0006713867,0.0027618408,0.0005493164
2019-07-01T19:47:07.279Z,-0.5136978,-0.85796213,-0.0017796885,-0.14117432,-0.27278137,-9.772293,20.661926,13.322449,26.083374,0.07699617,-0.0054171868,-9.806346,-0.31672376,0.8125132,0.0012788773,0.0143585205,-0.028335571,-0.07342529
2019-07-01T19:47:07.479Z,0.48740768,0.8731737,0.001211727,0.25602722,-1.1102753,-10.159927,22.409058,13.162231,23.939514,0.011418208,0.020844204,-9.806622,0.08932477,0.78507215,-0.008972168,-0.013061523,0.013809204,0.08375549
2019-07-01T19:47:07.686Z,-0.49503866,-0.86883754,0.0020331382,-0.12921143,0.3517456,-9.865616,22.001648,7.672119,23.442078,0.105350785,-0.10591963,-9.805512,0.4265897,-3.0621903,-0.026938438,-0.010864258,0.005935669,0.11489868
2019-07-01T19:47:07.889Z,-0.515008,-0.85715526,0.003700673,-0.653244,6.484543,-9.817749,22.799683,11.148071,23.742676,0.06615719,-0.12442337,-9.805637,0.122652516,-0.4515588,0.008022308,0.0026855469,-0.0030517578,0.12528992
2019-07-01T19:47:08.099Z,0.50034726,0.8658208,0.0026162134,0.6508484,-3.4049835,-9.82254,21.30127,10.18219,22.625732,0.021032656,0.04710974,-9.806515,-0.40817368,4.278436,0.11332703,0.017593384,-0.026870728,-0.16920471
2019-07-01T19:47:08.298Z,-0.5025185,-0.8645658,0.00044271685,0.7082825,-2.383255,-9.722046,21.528625,8.010864,22.627258,0.012644463,-0.017392782,-9.806626,0.1842893,-1.4920119,-0.12583351,-0.018371582,0.033477783,0.04081726
2019-07-01T19:47:08.501Z,-0.5087608,-0.8608576,0.0045335665,-0.49291992,5.206787,-9.714859,20.153809,13.006592,24.681091,0.09204018,-0.1576764,-9.80495,0.73924583,-3.4784927,0.008281708,-0.002380371,-0.010253906,0.06463623
2019-07-01T19:47:08.705Z,-0.5116138,-0.85920906,-0.00034161287,0.29670715,0.36610413,-9.939789,21.109009,10.8810425,24.890137,0.059425514,-0.027586805,-9.806432,-0.6363077,2.82024,-0.00084495544,0.030853271,-0.023391724,0.12449646
2019-07-01T19:47:08.905Z,0.49045113,0.87145936,0.0032496643,0.13160706,-1.1413727,-10.226929,22.392273,7.635498,22.21222,-0.009739807,0.078618124,-9.80633,0.037248958,2.2484279,-0.017954826,-0.022232056,-0.010864258,-0.48098755
2019-07-01T19:47:09.106Z,-0.48327488,-0.8754555,0.00078124,0.047851562,0.78245544,-9.877579,22.369385,10.6918335,22.457886,0.073933505,-0.05831541,-9.806198,0.3445827,-3.2995443,-0.020273209,-0.008483887,0.03579712,0.16499329
2019-07-01T19:47:09.309Z,-0.5076604,-0.8615202,0.0037429575,-0.9690857,8.257629,-9.934998,19.433594,12.953186,25.454712,0.08205285,-0.13355699,-9.805398,0.21873659,-0.89273196,-0.0035171509,0.01020813,0.0062408447,0.1505127
2019-07-01T19:47:09.515Z,0.49281743,0.8701207,0.0037457938,1.138977,-5.6757812,-9.779465,23.535156,8.155823,21.141052,-0.0086038755,0.089304835,-9.80624,-0.44914693,4.27954,0.022846222,-0.020217896,-0.04849243,-0.16712952
2019-07-01T19:47:09.716Z,-0.48788857,-0.8729058,0.00043907852,-0.011962891,-1.7515411,-9.655045,22.775269,10.7925415,22.312927,-0.0011471298,-0.009224484,-9.806645,0.2076442,-2.347466,-0.044241905,-0.0008544922,0.046554565,-0.043182373
2019-07-01T19:47:09.921Z,-0.49542272,-0.86859846,0.004661445,-1.1509552,5.2378845,-9.772293,18.722534,10.9939575,27.651978,0.098580696,-0.16147499,-9.804825,0.45607015,-2.793883,-0.002746582,0.012466431,0.003616333,0.06774902
2019-07-01T19:47:10.118Z,-0.4980817,-0.8671196,-0.00070545694,-0.42352295,2.3736877,-9.891922,20.384216,12.730408,24.693298,0.078419596,-0.029088583,-9.8062935,-0.43014947,2.7430263,0.016727448,-0.0012054443,-0.026565552,0.13114929
2019-07-01T19:47:10.326Z,0.49386224,0.8694986,0.0071672616,0.8279114,-5.83609,-9.875183,21.807861,7.008362,22.789001,-0.008457936,0.16646439,-9.805234,-0.4502517,3.1844404,-0.012425423,-0.01751709,-0.0059814453,-0.09791565
2019-07-01T19:47:10.527Z,-0.49228433,-0.87042993,-0.0010561553,0.114852905,-1.3926239,-9.7986145,22.685242,12.466431,22.053528,0.054684762,-0.0071297204,-9.806496,0.5207693,-3.37417,-0.07851124,0.0057525635,0.03250122,-0.19633484
2019-07-01T19:47:10.727Z,-0.48310792,-0.8755056,0.0036548274,-0.92123413,6.233307,-9.67897,17.930603,13.430786,26.068115,0.12206596,-0.14922501,-9.804755,0.47108984,-2.4859622,0.035559654,0.008377075,0.022125244,-0.00048828125
2019-07-01T19:47:10.933Z,-0.47856382,-0.878049,-0.001374402,0.49531555,0.3756714,-9.853638,22.590637,12.246704,21.406555,0.050185844,0.0033474802,-9.806521,-0.57082945,3.0793269,0.13611507,-0.007385254,-0.06315613,0.0021362305
2019-07-01T19:47:11.134Z,0.45766872,0.889089,0.005899961,0.5383911,-2.6560364,-9.181259,23.60382,8.248901,19.265747,-0.03474271,0.1480295,-9.805471,-0.16577058,2.1859138,-0.11160374,-0.0033569336,-0.0016479492,-0.21490479
2019-07-01T19:47:11.332Z,-0.47201538,-0.8815786,0.00083884486,-0.41156006,0.45942688,-9.745972,20.56427,15.231323,23.45581,0.06932681,-0.055781182,-9.806247,0.58964324,-3.9809072,-0.033830643,-0.00030517578,0.029449463,0.08943176
2019-07-01T19:47:11.540Z,-0.5318557,-0.8468067,0.0025928789,-0.107681274,0.7130585,-9.592819,18.284607,14.035034,26.55487,0.07956881,-0.11002699,-9.80571,-0.0867597,-0.43360177,-0.011099815,0.01234436,0.0054473877,0.1482544
2019-07-01T19:47:11.742Z,-0.52221054,-0.8528163,-0.00076275103,-0.5264282,1.031311,-9.786652,22.431946,14.5095825,19.607544,0.0095954705,0.011666289,-9.806639,-0.24816541,2.6025014,0.05321312,0.0012817383,-0.06059265,-0.17642212
2019-07-01T19:47:11.947Z,0.48678067,0.8735059,0.0034473082,-0.13639832,-1.5912323,-9.6263275,22.897339,10.232544,20.381165,-0.04396802,0.10190395,-9.806022,-0.21326187,1.2691834,-0.025709152,-0.008728027,0.029937744,-0.18624878
2019-07-01T19:47:12.152Z,-0.5051498,-0.863017,-0.0002788082,-0.5240326,0.62213135,-9.724426,20.108032,15.78064,23.661804,0.08781735,-0.045065977,-9.806153,0.5220855,-3.1290104,-0.041745186,-0.0028076172,0.036895752,0.13677979
2019-07-01T19:47:12.352Z,-0.51169676,-0.8591428,0.0011392523,-1.0193481,5.103897,-9.942184,20.648193,15.307617,23.544312,0.09349672,-0.081692554,-9.805864,-0.00018827617,-0.30281642,0.01927948,0.0045318604,-0.0072631836,0.11717224
2019-07-01T19:47:12.548Z,0.51070887,0.85975075,0.0019053207,0.04307556,-1.3615112,-9.791428,23.757935,9.78241,20.25299,-0.00157142,0.04439888,-9.806549,-0.39540118,2.7882257,0.0124053955,0.0034332275,-0.033218384,-0.20793152
2019-07-01T19:47:12.756Z,0.4890617,0.8722447,0.0027434973,1.3902283,-4.9746857,-9.800995,22.180176,12.376404,19.862366,0.115236096,-0.10655395,-9.805394,-0.013347831,-0.18835068,0.0025911331,-0.017166138,0.037994385,-0.057540894
2019-07-01T19:47:12.960Z,-0.50239044,-0.8646039,0.0017455316,-0.32781982,3.0723877,-9.851257,18.778992,12.387085,26.953125,0.11735561,-0.07360472,-9.805673,-0.3779418,0.92927927,0.016423225,0.01423645,-0.023757935,0.13873291
2019-07-01T19:47:13.159Z,0.5080624,0.86130387,0.0042394875,1.0289154,-2.7493591,-9.848862,21.658325,14.578247,23.051453,-0.011981755,0.1036051,-9.806096,-0.45557776,3.6545558,0.016824722,-0.0115356445,-0.027053833,-0.10206604
2019-07-01T19:47:13.363Z,0.50915074,0.86067396,0.0023759743,0.69869995,-3.1633148,-9.827316,21.41571,7.348633,22.270203,0.017083505,0.044037987,-9.806537,0.21765617,-1.3538717,-0.022779465,-0.007385254,0.031158447,-0.039093018
2019-07-01T19:47:13.566Z,-0.5086999,-0.8609253,7.735718e-05,0.098098755,0.9667053,-9.743576,21.850586,9.779358,23.123169,0.09484554,-0.057804197,-9.806021,0.45932192,-2.379762,-0.012891769,-0.00024414062,0.008071899,-0.046905518
2019-07-01T19:47:13.766Z,-0.5065805,-0.86218333,-0.0019311401,0.0382843,-0.028717041,-9.824936,23.382568,10.185242,21.331787,0.078826636,-0.002385359,-9.806333,-0.26978084,1.1784567,0.012503624,0.0010375977,-0.004211426,0.023025513
2019-07-01T19:47:13.968Z,-0.5066967,-0.86211604,-0.0017280302,0.062210083,-0.011962891,-9.800995,23.384094,10.031128,22.357178,0.07416174,-0.0042750854,-9.806369,-0.015056029,-0.017742954,-0.003777504,0.0004272461,0.0006866455,0.0
2019-07-01T19:47:14.171Z,-0.50667745,-0.8621272,-0.0016908643,0.057434082,-0.026321411,-9.817749,22.407532,11.343384,23.721313,0.07486703,-0.005533395,-9.806363,-0.016249418,-0.0038044923,0.00048732758,0.0004272461,0.00062561035,0.00019836426
2019-07-01T19:47:14.380Z,-0.5067088,-0.8621087,-0.0016907644,0.095718384,0.06939697,-9.796219,21.772766,10.148621,21.542358,0.07528574,-0.0057846163,-9.806359,-0.019293457,-0.013593473,-0.0020399094,-0.0005493164,0.0013427734,0.0010528564
2019-07-01T19:47:14.581Z,-0.50673735,-0.8620913,-0.0017964046,0.071777344,0.114852905,-9.820145,22.36023,10.472107,22.639465,0.078079835,-0.005026271,-9.806338,-0.013723344,-0.0050289435,0.006211281,-0.00091552734,0.0012359619,-0.0032958984
2019-07-01T19:47:14.783Z,-0.50698173,-0.8619486,-0.0012117676,0.03111267,-0.01675415,-9.8033905,24.053955,10.813904,21.20514,0.07225387,-0.0149254445,-9.806373,-0.013162792,-0.021923246,-0.00049209595,0.00036621094,-0.0015869141,-0.02381897
2019-07-01T19:47:14.994Z,-0.5069068,-0.8619941,-0.0009271803,0.062210083,0.0382843,-9.800995,23.110962,11.408997,20.988464,0.06477517,-0.016995618,-9.806421,-0.003283985,-0.0028708708,0.0011415482,0.00036621094,-0.0013427734,6.1035156e-05
2019-07-01T19:47:15.180Z,-0.50650346,-0.862232,-0.0012795181,0.050247192,-0.0047912598,-9.82254,23.02246,11.33728,20.373535,0.062160827,-0.007410252,-9.80645,-0.008091822,0.021296721,-0.00212574,0.00048828125,0.0011138916,0.00018310547
2019-07-01T19:47:15.391Z,-0.5152873,-0.85701215,-0.0010747978,0.06700134,0.009567261,-9.820145,23.033142,11.405945,21.064758,0.058681723,-0.010685736,-9.806469,-0.00938043,-0.0065414635,0.002565384,-0.00024414062,0.0017242432,0.00024414062
2019-07-01T19:47:15.587Z,-0.5152253,-0.85704875,-0.001350192,0.062210083,-0.01675415,-9.779465,22.413635,11.946106,21.125793,0.062725894,-0.006810022,-9.806447,0.0026045889,0.0070533366,0.0023403168,6.1035156e-05,-0.00010681152,0.0005493164
2019-07-01T19:47:15.798Z,-0.51529896,-0.85700464,-0.0012038667,0.07896423,0.007171631,-9.793823,21.939087,10.15625,21.98944,0.061592534,-0.009483039,-9.806452,-0.0041695684,-0.004400747,-0.005941391,0.0,0.0014038086,0.0009918213
2019-07-01T19:47:15.995Z,-0.5153644,-0.856965,-0.0011800191,0.06700134,-0.021530151,-9.817749,21.824646,11.169434,22.04895,0.06274182,-0.01072515,-9.806443,-0.0017229542,-0.0036331955,0.0032129288,-0.00012207031,0.00018310547,-6.1035156e-05
2019-07-01T19:47:16.202Z,-0.5153996,-0.8569439,-0.0011087486,0.052642822,-0.01675415,-9.827316,22.685242,10.945129,20.60852,0.062171403,-0.012016097,-9.806446,-0.0006767623,-0.0025868965,0.0008611679,0.0,-0.00024414062,0.0
2019-07-01T19:47:16.405Z,-0.5153328,-0.8569843,-0.0011287524,0.055038452,-0.04067993,-9.812973,22.096252,12.145996,20.651245,0.060912944,-0.010796114,-9.806455,-0.0011004135,0.0031365426,-0.0011730194,0.0020751953,-0.004211426,0.0018920898
2019-07-01T19:47:16.611Z,-0.51551825,-0.85687315,-0.00071992003,0.25125122,0.38763428,-9.88475,23.042297,11.927795,19.43512,0.05723501,-0.017955769,-9.806467,-0.006952733,-0.008849671,0.01261425,-0.00024414062,0.002456665,-0.059066772
2019-07-01T19:47:16.814Z,-0.5107052,-0.85974073,0.0012433156,-0.33738708,2.1726837,-9.772293,21.580505,14.872742,21.755981,0.07104948,-0.07056805,-9.806139,0.24962899,-0.9789615,-0.028712273,0.002456665,0.005630493,0.112335205
2019-07-01T19:47:17.018Z,-0.5210058,-0.8535469,-0.0006653028,0.14117432,1.4165497,-9.865616,19.11316,14.904785,24.80774,0.060201142,-0.021459276,-9.806442,-0.26475784,1.0896084,0.015825272,0.011978149,-0.019302368,0.04966736
2019-07-01T19:47:17.218Z,0.5262567,0.8503196,0.0025708228,0.727417,-3.139389,-9.923035,23.016357,11.114502,20.629883,-0.006307795,0.06320131,-9.806444,-0.3284577,2.0377345,-0.013731003,-0.001159668,-0.0034179688,0.12779236
2019-07-01T19:47:17.415Z,-0.53634125,-0.8439946,-0.00012711994,0.1603241,-1.3830566,-9.810577,22.039795,6.880188,22.450256,0.056485903,-0.03294157,-9.806432,0.30748022,-2.352717,-0.047885895,-0.015579224,0.02267456,-0.06512451
2019-07-01T19:47:17.626Z,-0.5355357,-0.8444776,0.0031351089,0.17228699,1.9142609,-9.525833,21.554565,12.240601,22.807312,0.08341124,-0.12570599,-9.80549,0.31215066,-1.8220835,0.024933815,0.0054473877,0.0034942627,0.15490723
2019-07-01T19:47:17.826Z,-0.54360706,-0.8393365,-0.00063742127,0.30389404,-0.47138977,-9.705292,20.819092,13.487244,24.902344,0.044267274,-0.01377533,-9.8065405,-0.43068707,2.7126355,0.023600578,0.012710571,-0.027664185,-0.086380005
2019-07-01T19:47:18.028Z,0.5267632,0.8500084,0.0020736575,1.1892395,-3.4169464,-9.530609,22.180176,8.427429,21.551514,-0.0016078212,0.04884417,-9.806528,0.0008900487,1.182757,-0.029540062,-0.009521484,0.011856079,-0.04336548
2019-07-01T19:47:18.231Z,-0.5289188,-0.8486569,0.0010956472,0.0047912598,1.0121613,-9.793823,22.747803,12.258911,21.10138,0.072219394,-0.070331,-9.806132,0.3812471,-2.9336414,-0.01591301,-0.008911133,0.015640259,-0.08906555
2019-07-01T19:47:18.430Z,-0.5286906,-0.8488066,-0.00068673986,0.3014984,-0.653244,-9.779465,21.002197,12.492371,22.880554,0.067507155,-0.026179515,-9.806383,-0.20507024,0.9431008,0.009340286,0.0022583008,-0.0008392334,0.09541321
2019-07-01T19:47:18.631Z,-0.5359727,-0.8442241,0.0008047443,-0.114852905,2.531601,-9.865616,19.709778,14.004517,23.846436,0.062340923,-0.05827413,-9.806279,0.13604161,-0.4961558,-0.012436867,0.0029907227,-0.0040283203,0.02003479
2019-07-01T19:47:18.836Z,-0.5293024,-0.8484308,-0.0018033675,0.85902405,-3.275772,-9.805786,21.063232,12.138367,22.354126,0.034519736,0.020153044,-9.806569,-0.2965167,1.9259444,0.0012874603,0.011550903,-0.0146484375,-0.03366089
2019-07-01T19:47:19.037Z,-0.53078413,-0.8475016,0.00017550377,0.55274963,-0.90927124,-9.82254,23.38562,12.155151,21.055603,0.04878159,-0.034613114,-9.806468,0.17998832,-1.3147136,-0.023620605,-0.017211914,0.017227173,-0.19332886
2019-07-01T19:47:19.245Z,-0.5065208,-0.8621953,0.0024175635,-0.68196106,3.3475647,-9.76033,17.276001,13.4765625,24.214172,0.09566403,-0.11119241,-9.805553,0.47336605,-1.8184053,0.005443573,0.003921509,0.0056915283,-0.04850769
2019-07-01T19:47:19.443Z,-0.5130401,-0.8583573,-0.00083579076,0.007171631,1.2155609,-9.793823,16.000366,13.220215,27.31018,0.06621582,-0.020479774,-9.806405,-0.5375823,1.9569807,0.018450737,0.0181427,-0.009216309,0.0713501
2019-07-01T19:47:19.646Z,-0.50893635,-0.86079276,-0.00018082709,0.0765686,-0.4283142,-9.867996,19.31305,14.581299,21.336365,0.076494634,-0.041106705,-9.806266,0.35040024,-2.3833094,-0.017723083,-0.013122559,0.014480591,-0.12498474
2019-07-01T19:47:19.850Z,-0.49167764,-0.8707559,0.0016819241,-0.5048828,2.6129608,-9.82254,19.276428,15.672302,21.107483,0.08391659,-0.08526702,-9.805921,0.14748389,-0.853699,0.006131172,0.0034942627,0.0014648438,-0.07775879
2019-07-01T19:47:20.056Z,-0.49308273,-0.8699739,-0.0009981387,-0.13160706,-0.4091797,-9.84407,16.131592,14.474487,26.579285,0.07310491,-0.018931909,-9.806359,-0.3738547,1.5410032,0.031765938,0.0143585205,-0.015991211,0.07550049
2019-07-01T19:47:20.257Z,-0.49589688,-0.86837965,-0.0017075355,0.99780273,-2.5651093,-9.690933,17.010498,14.692688,24.549866,0.022258539,0.02585547,-9.806591,-0.2610522,1.1188816,-0.027863503,-0.01361084,0.0181427,0.026275635
2019-07-01T19:47:20.482Z,-0.4951825,-0.868771,0.0009825014,-0.0765686,0.26081848,-9.836899,21.08612,15.310669,17.710876,0.08416175,-0.07015073,-9.806039,0.5640614,-2.4200652,-0.015800476,-0.0032348633,-0.00030517578,-0.19430542
2019-07-01T19:47:20.670Z,-0.48188108,-0.87621105,0.0022032377,-1.2873383,4.919647,-9.86322,16.981506,16.235352,22.750854,0.087866925,-0.09763885,-9.805771,0.034415126,-0.45344716,0.00039958954,0.0035552979,0.0010528564,-0.064315796
2019-07-01T19:47:20.861Z,0.48458305,0.87474245,0.002118965,0.2368927,-2.926422,-9.7986145,16.081238,13.15155,27.520752,0.009556484,0.042216748,-9.806555,-0.8556532,3.413272,0.012664795,0.017715454,-0.024429321,0.20959473
2019-07-01T19:47:21.065Z,0.50047857,0.8657486,0.0007310291,0.62931824,-1.1700897,-9.779465,20.297241,15.312195,20.011902,0.0025360878,0.015095174,-9.806638,0.08001464,-0.75064105,-0.013260841,-0.023635864,0.024383545,0.11753845
2019-07-01T19:47:21.257Z,-0.506267,-0.8623533,0.0020883277,0.088531494,-0.04547119,-9.793823,23.08197,12.956238,18.737793,0.08091691,-0.09499923,-9.805856,0.6697198,-2.7261503,-0.0134830475,0.0023345947,0.00038146973,0.0014038086
2019-07-01T19:47:21.465Z,-0.51535386,-0.85695267,0.002301103,-0.07896423,1.3088684,-9.712463,17.652893,14.73999,24.305725,0.07927803,-0.100339904,-9.805817,-0.08717329,0.11133037,-0.0068092346,0.004837036,0.0018463135,0.12986755
2019-07-01T19:47:21.672Z,-0.51636964,-0.8563605,-0.0011398898,0.5288086,-0.35653687,-9.891922,16.726685,11.294556,27.946472,0.05847214,-0.009150865,-9.806472,-0.3625733,2.132301,0.031977654,0.016815186,-0.018554688,-0.02558899
2019-07-01T19:47:21.872Z,0.5190741,0.8547258,0.0022961583,0.92362976,-1.3543396,-9.604797,16.87622,13.520813,24.316406,0.0099409055,0.04665228,-9.806534,-0.06258101,1.1385258,-0.016536713,-0.0134887695,0.010635376,0.15356445
2019-07-01T19:47:22.079Z,-0.53162575,-0.8469619,0.0007121354,0.39242554,-0.87338257,-9.875183,20.951843,13.452148,21.115112,0.082162246,-0.068062656,-9.806069,0.41484728,-2.697102,-0.013532639,-0.0048217773,0.0050811768,0.16786194
2019-07-01T19:47:22.357Z,-0.5451537,-0.8382969,0.0030569835,-0.22970581,3.7734833,-9.791428,18.43872,12.380981,24.775696,0.090871625,-0.13061315,-9.80536,0.2788223,-0.9435351,-0.014498711,0.004776001,0.0060577393,-0.076538086
2019-07-01T19:47:22.486Z,-0.5334652,-0.8458128,-0.00068583,0.17468262,0.9188385,-9.791428,16.76941,8.827209,26.838684,0.07169735,-0.029317196,-9.806344,-0.49927008,2.0268354,0.03360939,0.015945435,-0.017944336,0.0053710938
2019-07-01T19:47:22.682Z,0.5402757,0.84147835,0.003431184,0.59820557,-3.637085,-9.915863,18.417358,11.715698,25.77362,0.00069611316,0.07952628,-9.806328,-0.65035415,2.244162,-0.01543045,-0.014221191,0.00093078613,0.23274231
2019-07-01T19:47:22.884Z,-0.5592115,-0.8290083,-0.00048164546,-0.6460571,0.16989136,-9.762711,22.003174,11.619568,21.983337,0.090607524,-0.04972492,-9.806106,0.71985924,-2.8597205,-0.022937775,-0.0049438477,0.013809204,-0.18118286
2019-07-01T19:47:23.088Z,-0.53479785,-0.84495527,0.0020790475,-1.0911255,3.2063751,-9.820145,19.012451,12.715149,24.443054,0.07977487,-0.09874926,-9.805828,0.07385878,-0.87442064,0.0028686523,0.005569458,0.0068511963,-0.08998108
2019-07-01T19:47:23.296Z,0.5265492,0.85014296,0.0016363419,0.46180725,-1.7108612,-9.853638,22.009277,11.689758,22.44873,0.009857905,0.03164562,-9.806594,-0.6846294,2.8347266,0.017054558,-0.0056762695,-0.028579712,-0.010986328
2019-07-01T19:47:23.561Z,-0.49350595,-0.86974156,-0.0011904777,0.72502136,-2.761322,-9.889542,20.822144,13.945007,22.276306,0.017361267,0.016995016,-9.80662,0.20828936,-0.8324669,-0.014382362,-0.0064086914,0.027374268,0.06604004
2019-07-01T19:47:23.756Z,-0.47944793,-0.87753606,0.0034788754,0.19142151,1.655838,-9.750748,17.053223,11.465454,27.592468,0.08654929,-0.12503646,-9.805471,0.6516416,-2.7566488,-0.0172081,0.0058135986,-0.002319336,-0.2778778
2019-07-01T19:47:23.955Z,-0.47357443,-0.8807258,0.002683821,0.035888672,7.4656067,-9.832108,17.877197,12.188721,26.194763,0.087178074,-0.10664079,-9.805683,-0.26615292,0.49114913,0.011839867,0.0064849854,-0.0030517578,0.011001587
2019-07-01T19:47:24.155Z,0.47677705,0.8790061,0.0052609774,-0.69392395,-5.24028,-9.827316,22.7417,12.57019,18.748474,0.02046661,0.017463313,-9.806613,-0.024294492,-2.0647638,-0.026489258,-0.008911133,-0.022537231,0.097976685
2019-07-01T19:47:24.361Z,-0.44690874,-0.89455307,0.0038938457,0.112457275,2.8307037,-9.726822,18.713379,15.786743,20.39795,0.06551213,-0.11809863,-9.80572,0.31398958,-2.6269429,-0.0029878616,0.0084991455,-0.004333496,-0.15260315
2019-07-01T19:47:24.558Z,-0.46840873,-0.88349104,0.0023952455,-0.16989136,2.2636108,-9.688538,17.131042,11.4730835,27.288818,0.07472948,-0.092791975,-9.805926,0.04323887,0.84724426,-0.004037857,0.008804321,-0.01739502,0.1643219
2019-07-01T19:47:24.757Z,0.4682251,0.88358855,0.005035535,1.2442627,-4.546356,-9.832108,18.409729,13.546753,24.861145,-0.011678584,0.11795995,-9.805934,-0.58246946,3.8309364,0.020817757,-0.018569946,-0.0026855469,0.10623169
2019-07-01T19:47:24.966Z,-0.48856702,-0.87252563,-0.000997301,-0.6652069,-2.0315094,-9.896713,22.756958,10.8078,20.20111,0.018564682,0.012022854,-9.806625,0.38199466,-2.2124617,-0.027860641,0.0011138916,0.020477295,-0.033416748
2019-07-01T19:47:25.166Z,-0.46314627,-0.8862336,0.005669347,-0.42114258,3.5796661,-9.748352,19.140625,13.893127,24.073792,0.075446144,-0.1648862,-9.804974,0.3868292,-3.2280903,-0.029547691,0.00843811,0.007095337,-0.12669373
2019-07-01T19:47:25.368Z,-0.4732744,-0.8809032,0.001337027,0.026321411,1.4955139,-9.750748,16.133118,10.600281,27.981567,0.06323536,-0.06374212,-9.806239,-0.41186494,2.1887999,0.029141426,0.009536743,-0.0095825195,0.08888245
2019-07-01T19:47:25.579Z,0.46981472,0.8827467,0.0051741353,0.25125122,-3.1298065,-9.836899,17.860413,13.644409,26.039124,0.0066985786,0.11139265,-9.806015,-0.35987842,3.172758,0.001742363,-0.012634277,-0.012939453,0.0022583008
2019-07-01T19:47:25.779Z,0.47289947,0.88111407,0.0020303098,0.5312042,-2.6321106,-9.889542,23.464966,10.952759,17.105103,0.017217448,0.03595311,-9.806569,0.21608956,-1.4778626,-0.012458801,-0.004760742,0.019561768,0.008926392
2019-07-01T19:47:25.981Z,-0.4656475,-0.8849363,0.0042124894,-0.20817566,2.1511536,-9.762711,19.541931,16.201782,20.977783,0.074597284,-0.13261054,-9.8054695,0.6506563,-3.2857642,-0.011915207,0.0096588135,-0.00390625,-0.1631012
2019-07-01T19:47:26.185Z,-0.46397284,-0.8858294,0.0030651507,-1.0480499,2.9192505,-9.913467,15.805054,12.252808,28.179932,0.060932286,-0.09977826,-9.805953,-0.3325289,0.92986524,-0.00087070465,0.0034942627,0.004043579,0.035736084
2019-07-01T19:47:26.388Z,-0.46644458,-0.8845498,-0.0007653054,-0.050247192,-0.32302856,-9.786652,16.383362,12.811279,27.061462,0.01995438,0.0064468235,-9.806628,-0.44947177,2.4574516,0.021507263,0.0004272461,-0.012390137,0.091934204
2019-07-01T19:47:26.586Z,0.4620145,0.88686657,0.0030705028,0.47616577,-1.4811554,-9.640686,20.326233,15.818787,20.640564,0.012102172,0.06159968,-9.806449,-0.031968832,0.52823025,-0.014169693,-0.0017700195,-0.0014038086,-0.06871033
2019-07-01T19:47:26.792Z,-0.46426988,-0.88568634,0.0002053667,0.050247192,-0.033493042,-9.820145,21.44165,15.829468,19.465637,0.06102242,-0.03653521,-9.806393,0.529769,-2.0385237,-0.000374794,-0.0078125,0.010696411,-0.07434082
2019-07-01T19:47:27.006Z,-0.4588289,-0.8885197,-9.9709665e-05,0.2679901,-1.0337067,-9.942184,20.622253,17.233276,19.55719,0.052543186,-0.02493216,-9.806478,-0.11260227,0.21205091,-0.008067131,0.00091552734,0.0011138916,0.017593384
2019-07-01T19:47:27.201Z,-0.4671906,-0.88413924,0.002664764,-0.13639832,1.5601196,-9.614365,17.608643,15.307617,25.784302,0.059939325,-0.09078468,-9.8060465,0.18508185,-1.1424696,-0.0040454865,0.005630493,-0.0036621094,0.10324097
2019-07-01T19:47:27.400Z,-0.46090254,-0.8874387,0.002143827,-0.047851562,2.6488495,-9.865616,16.694641,12.463379,27.656555,0.051879786,-0.074324176,-9.8062315,-0.091600254,0.5746625,0.0015115738,0.0053863525,-0.004760742,0.064941406
2019-07-01T19:47:27.607Z,0.45932525,0.88826454,0.0022658175,0.25602722,-2.7493591,-9.7986145,18.38684,15.008545,23.953247,0.00044983867,0.049797386,-9.806524,-0.309364,2.4873157,0.016055107,-0.0056762695,-0.011352539,-0.02607727
2019-07-01T19:47:27.803Z,-0.45016965,-0.89294225,0.0003047051,0.052642822,-0.14596558,-9.734009,19.543457,16.352844,20.402527,0.017269067,-0.0153988395,-9.8066225,0.24785185,-1.3477904,-0.022062302,-0.006286621,0.023223877,-0.101760864
2019-07-01T19:47:28.025Z,-0.44800344,-0.89401215,0.0026781077,0.009567261,0.27038574,-9.633499,15.940857,13.95874,25.72937,0.06919045,-0.09342405,-9.805961,0.32322896,-1.7354099,-0.00016212463,0.0065460205,-0.0045166016,-0.02003479
2019-07-01T19:47:28.202Z,-0.44993454,-0.89304155,0.0027571183,-0.29910278,1.4189453,-9.664612,17.079163,11.975098,27.9953,0.06848844,-0.09505669,-9.80595,-0.007963352,0.18480268,-0.0032043457,0.003189087,0.0029449463,0.031463623
2019-07-01T19:47:28.404Z,-0.454936,-0.89052355,-0.00046501143,0.062210083,-2.423935,-9.841675,17.095947,12.414551,27.857971,0.019506626,0.0002763922,-9.806631,-0.37315628,2.26956,0.034358025,0.010696411,-0.021484375,0.3075714
2019-07-01T19:47:28.625Z,0.47620538,0.8793339,0.00056148,0.19381714,-1.8209381,-9.82254,19.439697,15.304565,22.987366,0.0033462204,0.010711499,-9.8066435,-0.069386296,0.13500983,-0.033270836,-0.014465332,0.027313232,-0.0064697266
2019-07-01T19:47:28.820Z,-0.46634576,-0.8845836,0.0024092635,-0.8039856,2.945572,-9.738785,14.996338,14.402771,26.00708,0.069174305,-0.08988542,-9.805994,0.35387132,-2.3486314,-0.0008611679,0.0029449463,-0.008972168,-0.20140076
2019-07-01T19:47:29.026Z,-0.4619034,-0.88692456,0.0006397448,-0.9068756,2.9527435,-9.245865,16.461182,12.818909,26.683044,0.0482598,-0.039280392,-9.806453,-0.17843232,1.0555155,0.0042095184,0.009719849,-0.025283813,0.078430176
2019-07-01T19:47:29.230Z,0.4637272,0.8859705,0.0032184534,0.59580994,-2.5651093,-10.157532,20.124817,15.161133,19.154358,-0.0009039206,0.07172115,-9.806388,-0.36950332,2.1086323,0.02796936,-0.010009766,0.008132935,0.16944885
2019-07-01T19:47:29.431Z,-0.47938952,-0.877592,0.00077797915,-0.5814514,2.292328,-9.722046,17.55371,14.52179,23.208618,0.06425612,-0.052487,-9.806299,0.3413142,-2.5817683,-0.051825523,-0.0019378662,0.043258667,-0.38136292
2019-07-01T19:47:29.633Z,-0.46252492,-0.8865904,0.0020687964,-0.117248535,0.8422699,-9.734009,16.363525,12.373352,26.972961,0.06612142,-0.08025982,-9.806099,0.11021491,-0.3375143,0.00051498413,0.005569458,-0.02204895,0.27799988
2019-07-01T19:47:29.836Z,-0.4717777,-0.8817172,0.00073868746,-0.18664551,-2.1990051,-9.827316,20.440674,14.505005,21.954346,-0.0019888526,-0.015367505,-9.806638,-0.15354425,1.5829009,0.04237461,0.009353638,-0.04788208,0.06829834
2019-07-01T19:47:30.039Z,0.4991638,0.86650383,0.00049953477,-0.550354,-1.7276154,-9.690933,23.222351,12.379456,19.367981,-0.037765164,0.03306213,-9.806521,-0.35728315,0.68239045,-0.031359673,-0.018127441,0.03475952,0.21325684
2019-07-01T19:47:30.244Z,-0.4968857,-0.8678018,0.0032737835,0.023925781,0.9451599,-9.78186,19.145203,13.88855,24.60022,0.03165246,-0.092112936,-9.806167,0.20093226,-2.6340077,-0.014110565,0.0069732666,0.007095337,-0.07147217
2019-07-01T19:47:30.440Z,-0.4859042,-0.87399435,0.0029685628,0.19621277,1.8281097,-9.734009,16.944885,10.800171,27.838135,0.052445874,-0.09577314,-9.806043,0.2789533,0.16493776,0.006011009,0.0037994385,-0.004333496,-0.023452759
2019-07-01T19:47:30.643Z,0.4824556,0.87591845,-0.0011388988,-0.098098755,-4.9794617,-9.820145,18.281555,14.950562,21.151733,-0.036033083,-0.005654777,-9.806582,-0.114951946,1.9933716,0.007926941,-0.0024414062,-0.09136963,-0.19491577
2019-07-01T19:47:30.874Z,0.47961128,0.87747324,-0.0029098666,-0.30867004,2.428711,-9.791428,20.899963,14.176941,20.96405,0.037715364,-0.089680895,-9.806168,0.30589128,-1.2163045,-0.007862091,0.0042877197,0.008132935,-0.012634277
2019-07-01T19:47:31.047Z,-0.48810628,-0.8727814,0.00070939196,-0.28474426,2.3042908,-9.777069,18.432617,12.158203,25.2594,0.028982807,-0.03215025,-9.806555,-0.16896822,1.17975,0.013393402,0.0050201416,-0.044647217,0.027801514
2019-07-01T19:47:31.250Z,0.48685715,0.8734506,-0.0012916276,-0.14596558,-2.7996063,-9.640686,17.167664,12.277222,27.297974,-0.13657591,0.047124878,-9.805586,-0.034743443,1.5685041,0.0009717941,-0.0010375977,-0.0025024414,0.0012207031
2019-07-01T19:47:31.455Z,-0.4572307,-0.8893389,0.003172174,0.26560974,1.1318054,-9.769897,20.030212,14.331055,21.936035,0.015565839,-0.07796011,-9.806328,-0.032795012,-2.5895562,-0.012799263,-0.0040893555,0.04386902,0.1214447
2019-07-01T19:47:31.654Z,-0.47391078,-0.88056356,0.0022138401,0.07417297,0.13400269,-9.779465,19.186401,13.169861,23.620605,0.03806995,-0.06979821,-9.806328,0.26342404,0.38470197,3.8146973e-06,0.002456665,0.0004272461,0.07978821
2019-07-01T19:47:31.858Z,-0.47243506,-0.8813641,0.0011688202,-0.8805542,-0.75852966,-9.841675,18.070984,10.877991,27.430725,0.0068594734,-0.029686961,-9.806603,-0.057106666,0.8786555,0.016856194,-0.0044555664,-0.10731506,-0.07196045
2019-07-01T19:47:32.062Z,0.46246698,0.8866042,-0.0019725051,-0.27278137,-2.3018951,-9.815353,18.502808,13.842773,24.768066,-0.14501101,0.03200716,-9.805527,-0.14354892,0.96052814,-0.015575409,-0.0020141602,0.08454895,-0.05290222
2019-07-01T19:47:32.269Z,-0.47269058,-0.8812173,0.0034084376,0.0047912598,2.2061768,-9.6263275,21.720886,14.752197,19.763184,0.017496245,-0.08524538,-9.806264,0.060991794,-2.3283744,-0.0097055435,0.004043579,0.020477295,0.20573425
2019-07-01T19:47:32.473Z,-0.4821503,-0.8760855,0.00079411524,-0.110076904,1.8807526,-9.748352,19.088745,12.57019,24.711609,0.02959001,-0.03406285,-9.806546,0.11445098,1.154869,0.014094353,0.004714966,-0.028213501,0.014846802
2019-07-01T19:47:32.670Z,0.47681868,0.87896264,-0.0023787434,-0.27278137,-1.3208313,-10.013962,19.458008,11.642456,25.491333,-0.15900926,0.033183187,-9.805305,0.04297526,1.183566,0.0012693405,-0.008972168,-0.041229248,-0.16047668
2019-07-01T19:47:32.869Z,-0.46841243,-0.8835022,0.0030183233,0.2632141,1.5098724,-9.731613,21.128845,13.748169,21.923828,0.009480324,-0.07203058,-9.806381,-0.06188136,-2.1188238,-0.032141685,0.001159668,0.07104492,0.140625
2019-07-01T19:47:33.077Z,-0.49249443,-0.8703087,0.0015451652,0.090927124,1.5481567,-9.865616,19.465637,12.0147705,24.507141,0.03816247,-0.056417026,-9.806414,0.18197088,0.5541359,0.017512321,0.003616333,-0.020019531,0.1350708
2019-07-01T19:47:33.294Z,0.48959437,0.87194633,-0.0013034354,-0.36610413,-1.7922211,-9.829712,18.540955,11.001587,25.01831,-0.051820997,-0.0002216,-9.806513,0.08437112,1.217934,0.009695053,-0.002319336,-0.07597351,0.0050811768
2019-07-01T19:47:33.480Z,0.4877586,0.8729711,-0.0017019514,-0.54556274,-1.9094696,-9.791428,21.939087,11.827087,22.935486,-0.07076747,0.0013024424,-9.806395,-0.22426882,-0.024755342,-0.007425308,-0.004272461,0.07984924,-0.085998535
2019-07-01T19:47:33.744Z,-0.48742935,-0.87314963,0.0035244657,-0.071777344,0.19381714,-9.76033,19.215393,9.954834,24.627686,0.020210689,-0.09044973,-9.806212,-0.032894567,-2.0243099,-0.007528305,0.0029449463,0.019561768,0.05265808
2019-07-01T19:47:33.938Z,-0.49228612,-0.87041885,0.0024318357,0.279953,1.380661,-9.808182,18.988037,10.076904,25.944519,0.051929455,-0.08416553,-9.806151,0.3258857,0.3160506,0.006123543,0.0030670166,-0.0032196045,0.0362854
2019-07-01T19:47:34.143Z,-0.48915777,-0.8721949,0.0008767681,-0.92123413,-1.9501495,-9.882355,20.089722,13.673401,22.854614,-0.007429297,-0.015549511,-9.806635,-0.045930155,1.5804615,0.00513649,0.00044250488,-0.077438354,-0.22198486
2019-07-01T19:47:34.343Z,0.44421953,0.89589256,-0.0020187977,-0.27757263,-0.92123413,-9.812973,18.388367,13.642883,21.636963,-0.13070604,0.020614851,-9.8057575,-0.104259655,0.020308528,0.008434296,-0.016418457,0.064331055,-0.29388428
2019-07-01T19:47:34.551Z,-0.47732675,-0.8787121,0.0032902395,0.03111267,3.0269165,-9.800995,18.682861,8.520508,26.394653,0.032234732,-0.09094832,-9.806175,0.08715962,-2.0374537,-0.018470764,0.008987427,0.013442993,0.60165405
2019-07-01T19:47:34.749Z,-0.50400954,-0.8636938,0.00039633494,0.01675415,2.7972107,-9.736389,18.44635,10.324097,27.075195,0.041743662,-0.03335972,-9.806504,0.21620503,1.4233447,0.018212318,0.0060577393,-0.027114868,0.001159668
2019-07-01T19:47:34.955Z,0.47284627,0.88113385,0.00017605779,0.44506836,-5.5010986,-9.985245,20.639038,15.77301,19.940186,-0.07457605,0.043938857,-9.806269,0.14541015,1.4506121,-0.0022611618,-0.031326294,-0.10084534,-0.7384796
2019-07-01T19:47:35.160Z,0.4373795,0.8992659,-0.002103528,0.27038574,-0.653244,-9.71965,19.493103,12.902832,22.877502,-0.08774522,-0.0032007687,-9.806257,0.044465154,-1.6382779,-0.05184269,0.005935669,0.11784363,0.19352722
2019-07-01T19:47:35.360Z,-0.47584853,-0.87951463,0.00293227,0.15792847,3.7710876,-9.848862,18.585205,9.823608,27.041626,0.036260158,-0.08500661,-9.806214,-0.042248145,-1.2736206,0.02468872,0.00843811,0.00831604,0.42797852
2019-07-01T19:47:35.560Z,-0.5021712,-0.8647656,5.578318e-05,-0.5407715,2.1894379,-9.674179,20.17212,11.546326,25.138855,0.035545807,-0.021906711,-9.806561,0.17836666,1.4269668,0.022931099,0.0076446533,-0.038223267,-0.07849121
2019-07-01T19:47:35.762Z,-0.46482676,-0.8854,0.00014599811,0.47616577,-1.5816498,-9.827316,20.535278,13.05542,21.655273,0.028465556,-0.01817828,-9.806592,0.12298526,-2.1465964,-0.040483475,-0.008911133,0.04307556,-0.03237915
2019-07-01T19:47:35.957Z,-0.46573436,-0.88490313,0.002883399,0.04067993,0.110076904,-9.745972,19.450378,13.394165,25.16632,0.06816994,-0.09978482,-9.805905,0.13018216,-1.4799398,0.028663635,0.0053863525,0.002822876,0.054122925
2019-07-01T19:47:36.157Z,0.46655214,0.88449365,-0.00030369518,-0.830307,0.45463562,-9.753143,16.95404,11.021423,27.656555,-0.0063541457,-0.00338264,-9.806647,-0.10802615,1.9853618,0.033968925,0.008682251,-0.034072876,-0.12020874
2019-07-01T19:47:36.373Z,0.45675847,0.8895839,0.0018321071,0.050247192,-0.5814514,-9.664612,20.506287,13.839722,23.704529,-0.035413645,0.058576502,-9.806412,-0.3782936,1.3570048,-0.030485153,-0.009094238,-0.0031585693,0.040267944
2019-07-01T19:47:36.575Z,-0.4606969,-0.8875545,0.00031195956,-0.31106567,-1.1126556,-9.829712,21.876526,14.0060425,23.228455,0.036963895,-0.026080286,-9.806546,0.32411456,-2.087258,-0.010451317,-0.0049438477,0.033843994,0.0896759
2019-07-01T19:47:36.778Z,-0.49269053,-0.87018675,0.0031011542,0.023925781,-0.0047912598,-9.784256,19.021606,10.809326,25.941467,0.049095917,-0.09769291,-9.806041,-0.10940891,-1.087452,-0.0039224625,0.006729126,0.00630188,0.41252136
2019-07-01T19:47:36.975Z,-0.5034723,-0.8640089,-0.00017604807,-0.122039795,1.5218353,-9.934998,19.126892,9.350586,26.922607,0.036371812,-0.017198125,-9.806567,0.24024095,1.6270913,0.037002563,0.010940552,-0.022354126,-0.003540039
2019-07-01T19:47:37.195Z,0.4865319,0.8736602,0.0017485457,-0.01675415,-0.5623169,-9.920639,21.124268,11.399841,24.087524,-0.0043384037,0.04166994,-9.8065605,0.075399004,1.4844644,-0.024849892,-0.012145996,-0.013793945,-0.27830505
2019-07-01T19:47:37.384Z,-0.48131907,-0.8765423,0.00068460446,0.52163696,-0.77526855,-9.698105,21.598816,11.364746,23.22998,0.03195127,-0.032863256,-9.806543,-0.05301207,-1.9897922,-0.007683754,-0.0014038086,0.02444458,0.28253174
2019-07-01T19:47:37.588Z,-0.51470387,-0.8573498,0.0028246054,0.055038452,0.033493042,-9.76033,20.567322,9.455872,25.450134,0.052619774,-0.09620543,-9.806037,0.1146377,-0.9135431,-0.004473686,0.0042877197,0.0034942627,0.11955261
2019-07-01T19:47:37.796Z,-0.51238054,-0.85875773,0.00092895125,-0.62213135,-0.9020996,-9.7986145,19.290161,9.509277,26.420593,0.0019672744,-0.022390213,-9.806624,-0.013685894,1.4655039,0.036323547,-0.010681152,-0.10487366,-0.181427
2019-07-01T19:47:37.991Z,0.47226685,0.8814329,-0.00108958,0.12921143,-0.8685913,-9.848862,21.078491,14.097595,23.582458,-0.11787504,0.038912855,-9.805864,-0.036685564,0.6047603,-0.027729988,-0.0014648438,0.049972534,-0.2574768
2019-07-01T19:47:38.197Z,-0.51160884,-0.859208,0.003616117,0.41874695,1.8376923,-9.827316,19.439697,9.532166,24.684143,0.0013851641,-0.08336907,-9.806295,-0.258618,-1.8844701,-0.000166893,0.008377075,0.051315308,0.6419678
2019-07-01T19:47:38.395Z,-0.53585696,-0.84430283,-5.4125077e-05,0.46420288,1.8568268,-9.734009,20.065308,8.982849,25.831604,0.053234763,-0.03252939,-9.806452,0.36598164,0.97195417,0.0070610046,0.0005493164,-0.010498047,0.05253601
2019-07-01T19:47:38.606Z,-0.5260579,-0.8504481,-0.0009194645,0.15074158,-2.2420807,-9.791428,20.736694,9.611511,25.4776,0.019361807,0.009228406,-9.806626,0.1773229,1.1352565,-4.4822693e-05,6.1035156e-05,-0.02961731,-0.24085999
2019-07-01T19:47:38.799Z,0.51285994,0.8584701,-0.0019485361,-0.06460571,-0.04307556,-9.805786,20.707703,11.235046,23.164368,-0.023259357,-0.030622251,-9.806575,-0.1600275,-1.1688994,-0.003033638,-0.0029296875,-0.0026245117,-0.02619934
2019-07-01T19:47:39.007Z,0.5134769,0.85810053,-0.0021703825,-0.033493042,-0.028717041,-9.805786,21.07544,10.22644,24.455261,-0.030675666,-0.03125147,-9.806552,-0.030586021,-0.010860391,-0.00040531158,0.00030517578,0.00642395,0.0042266846
2019-07-01T19:47:39.246Z,0.5135598,0.85805136,-0.0020293319,-0.20100403,-0.55274963,-9.750748,22.294617,10.606384,23.652649,-0.023829816,-0.032123595,-9.806569,-0.024508437,-0.009988517,0.0019102097,0.00012207031,0.00012207031,1.5258789e-05
2019-07-01T19:47:39.421Z,-0.52391446,-0.85176873,0.0017668076,-0.0047912598,-0.059814453,-9.793823,22.296143,10.6033325,24.102783,-0.006200114,-0.036869716,-9.806579,-0.08281905,-0.13660383,-0.005428314,-0.0012207031,0.013442993,0.0635376
2019-07-01T19:47:39.619Z,-0.52788866,-0.8493119,0.0014684751,0.052642822,0.1651001,-9.82254,21.464539,9.660339,25.608826,-0.0010062328,-0.03328622,-9.806594,0.003874979,0.065592185,0.0007610321,-0.00061035156,0.0064849854,0.039154053
2019-07-01T19:47:39.820Z,-0.5314547,-0.8470863,0.00060961343,-0.01675415,-0.04547119,-9.810577,21.020508,10.806274,24.575806,0.0027339275,-0.015830124,-9.806637,-0.00033784774,0.03329883,0.0049743652,0.00012207031,-0.0051879883,0.018997192
2019-07-01T19:47:40.024Z,-0.53168565,-0.8469412,0.0009207952,-0.009567261,-0.047851562,-9.827316,21.614075,9.603882,24.83368,-0.0020437557,-0.020040562,-9.806629,-0.016617559,-0.008430539,-0.004975319,-0.0005493164,0.011306763,-6.1035156e-05
2019-07-01T19:47:40.227Z,-0.5316416,-0.8469684,0.0007745617,0.0143585205,-0.01675415,-9.800995,21.47522,10.105896,24.565125,0.009734937,-0.024047157,-9.806616,-0.011414344,-0.008253377,-0.00013065338,0.00030517578,0.0045928955,-0.001953125
2019-07-01T19:47:40.427Z,-0.53172123,-0.8469178,0.0008925382,0.050247192,-0.0047912598,-9.784256,20.709229,9.259033,24.046326,0.013837389,-0.029357282,-9.806597,-0.008102856,-0.013224117,-0.0020160675,-0.0017700195,0.013198853,-0.00036621094
2019-07-01T19:47:40.628Z,-0.5315406,-0.8470294,5.104765e-06,0.033493042,-0.021530151,-9.820145,22.445679,10.243225,24.62616,0.03993491,-0.025178755,-9.806537,-0.007876225,0.0034044832,0.003870964,-0.00024414062,0.0030517578,0.00050354004
2019-07-01T19:47:40.827Z,-0.53158873,-0.8469991,8.124777e-05,0.026321411,-0.03111267,-9.815353,20.46814,9.240723,24.201965,0.039398108,-0.026608195,-9.806535,0.0043968447,-0.0040176995,0.0011548996,0.0,-0.00035095215,0.0011138916
2019-07-01T19:47:41.039Z,-0.53162,-0.84697944,0.0001157045,0.028717041,-0.021530151,-9.820145,20.74585,9.983826,24.797058,0.039362907,-0.027386077,-9.806533,-0.00083551183,-0.0008572154,-0.0016326904,6.1035156e-05,0.0001373291,-0.00048828125
2019-07-01T19:47:41.236Z,-0.5316621,-0.8469529,0.0001654611,0.03111267,-0.04067993,-9.832108,21.302795,9.799194,25.189209,0.039244223,-0.028466618,-9.80653,-5.699694e-07,-0.0019274764,-0.00044727325,6.1035156e-05,0.00024414062,-4.5776367e-05
2019-07-01T19:47:41.436Z,-0.53175837,-0.8468923,0.00025501798,-0.035888672,-1.2322998,-9.8033905,20.574951,9.828186,24.24469,0.039479252,-0.030694736,-9.806522,-0.00023623183,-0.0037576016,-0.0003004074,0.0,0.0015869141,-0.010498047
2019-07-01T19:47:41.642Z,-0.53158647,-0.8469944,0.0017550297,0.0382843,0.21057129,-9.743576,19.741821,8.888245,25.822449,0.04216066,-0.067100085,-9.80633,-0.009616893,-0.67682177,0.0012950897,0.0017242432,-0.001953125,0.027008057
2019-07-01T19:47:41.847Z,-0.53303355,-0.8460933,0.00095100945,0.5431671,-4.1563263,-9.9062805,21.136475,9.718323,24.726868,0.001826446,-0.023195982,-9.8066225,0.056797944,1.0647899,0.021232605,0.00831604,-0.058395386,0.13482666
2019-07-01T19:47:42.045Z,0.5443204,0.8388734,-0.0025647623,0.6699829,-0.1268158,-9.858429,21.318054,8.496094,23.866272,-0.033494003,-0.038231805,-9.806519,-0.05958276,-0.23192294,-0.02193451,-0.009399414,0.052490234,-0.04434204
2019-07-01T19:47:42.253Z,-0.54299647,-0.8397332,0.00087347813,-0.04307556,-0.100494385,-9.870392,20.76416,8.451843,25.161743,0.015734687,-0.030575922,-9.80659,-0.14279386,0.98435557,0.01635456,0.004470825,-0.054656982,0.13072205
2019-07-01T19:47:42.446Z,0.5610722,0.8277595,-0.0019679854,-0.095718384,-0.5288086,-9.96611,21.156311,8.335876,24.594116,-0.06865961,-9.086851e-05,-9.80641,0.017209113,0.88806087,-0.017015457,0.0034942627,0.019927979,0.049362183
2019-07-01T19:47:42.651Z,-0.55678767,-0.83065045,0.002056972,0.1986084,0.6149597,-9.851257,22.01233,7.8125,24.076843,0.0062874076,-0.05278329,-9.806506,-0.09170683,-1.3087372,-0.01322937,-0.0040893555,0.023468018,0.07342529
2019-07-01T19:47:42.855Z,-0.5653803,-0.8248224,0.002629664,-0.0382843,1.1150513,-9.817749,22.328186,7.61261,24.398804,0.01104427,-0.07009985,-9.806394,0.043993026,-0.16438991,0.003066063,0.0009765625,0.0033111572,-0.008422852
2019-07-01T19:47:43.061Z,0.5628397,0.8265619,-0.002160816,-0.047851562,-1.8376923,-9.829712,21.6156,7.7056885,25.204468,-0.047755025,-0.018754816,-9.806516,0.04201416,1.1697086,0.027265549,0.001159668,-0.060897827,0.010391235
2019-07-01T19:47:43.258Z,0.5568203,0.8306259,-0.0030657758,0.23210144,-0.45224,-9.777069,22.563171,7.713318,22.975159,-0.058795284,-0.032976173,-9.806418,-0.027581874,-0.41041213,-0.021857262,-0.007873535,0.06427002,-0.09352112
2019-07-01T19:47:43.457Z,-0.56931627,-0.8221096,0.0021955117,0.062210083,1.282547,-9.789032,22.021484,8.110046,23.605347,0.026478922,-0.07071499,-9.806359,-0.057821058,-0.96178466,0.0091667175,0.0025634766,0.0041046143,0.06585693
2019-07-01T19:47:43.657Z,-0.56507957,-0.82503545,-0.0001510037,-0.086135864,1.2897339,-9.76033,22.148132,8.831787,25.486755,0.021940684,-0.011437759,-9.806619,-0.018109415,1.2123953,0.009812355,0.0034332275,-0.0119018555,-0.023025513
2019-07-01T19:47:43.868Z,0.57136726,0.82067204,-0.0059690564,0.16270447,-0.7393799,-10.011566,22.07489,9.048462,25.15564,-0.084722646,-0.083664164,-9.805927,-0.010492004,-1.068466,-0.03899479,0.006790161,-0.028152466,0.007507324
2019-07-01T19:47:44.070Z,-0.5583026,-0.8296177,0.0046478542,-0.2871399,1.4069824,-9.777069,21.136475,7.9711914,24.29657,0.0033514986,-0.112133496,-9.806008,0.12299108,-0.8284726,0.030471802,-0.013000488,0.03929138,-0.1418457
2019-07-01T19:47:44.275Z,-0.5662923,-0.82419884,0.0019410513,-0.055038452,0.28474426,-9.769897,21.417236,8.712769,25.039673,0.016493533,-0.057522804,-9.806467,-0.03802276,1.0768677,0.012094498,0.005142212,-0.0029296875,0.24110413
2019-07-01T19:47:44.478Z,-0.5743335,-0.81862074,0.00058737147,-0.14356995,-1.6534424,-9.870392,20.613098,6.9885254,24.493408,0.007767635,-0.019522462,-9.806627,-0.06495775,0.820884,-0.018309593,0.0073394775,-0.046295166,0.041778564
2019-07-01T19:47:44.683Z,-0.5826874,-0.8126673,0.0068331556,0.052642822,0.021530151,-9.805786,22.727966,7.722473,23.121643,-0.06625831,-0.11739922,-9.805723,0.04639951,-1.635333,-0.0065174103,-0.0078125,0.034835815,-0.037628174
2019-07-01T19:47:44.884Z,-0.5680927,-0.8229577,0.0017107296,0.047851562,0.830307,-9.667007,20.96405,7.6675415,24.543762,0.027625388,-0.05984081,-9.806429,0.026207121,0.6743133,0.014217377,-0.0015869141,0.013809204,-0.022903442
2019-07-01T19:47:45.086Z,-0.5706923,-0.8211624,-0.0007897112,-0.08375549,1.8711853,-9.853638,21.279907,7.3913574,25.152588,0.031519808,-0.0030436222,-9.8066,-0.017160974,1.1554332,0.0011892319,0.0018920898,-0.0053100586,-0.009338379
2019-07-01T19:47:45.290Z,0.5825938,0.81274426,-0.005503367,0.009567261,-0.31585693,-9.930222,21.151733,6.286621,25.463867,-0.07847796,-0.07654936,-9.806038,-0.047374092,-1.0734273,-0.038217545,0.011184692,-0.03529358,0.20487976
2019-07-01T19:47:45.488Z,-0.5887527,-0.80829775,0.003806672,0.1531372,0.18902588,-9.891922,21.844482,7.4310303,25.138855,0.007629289,-0.097923435,-9.806158,0.024428835,-0.62135303,0.03271866,-0.013549805,0.042404175,-0.11898804
2019-07-01T19:47:45.694Z,-0.5751971,-0.81801075,0.0009114975,-0.011962891,0.7154541,-9.7005005,21.434021,7.180786,25.55542,0.02850211,-0.041896377,-9.8065195,-0.042858034,0.9317851,0.024971008,0.0017242432,-0.001159668,-0.08300781
2019-07-01T19:47:45.954Z,-0.5719395,-0.82029516,0.00012786922,-0.009567261,-1.7324066,-9.767502,22.976685,7.8063965,23.808289,0.014918279,-0.013458922,-9.80663,0.011403056,0.732743,-0.020406723,0.010635376,-0.045074463,0.13139343
2019-07-01T19:47:46.148Z,-0.5905294,-0.80699205,0.006152155,0.24885559,-1.3710938,-9.786652,21.855164,6.2072754,23.075867,-0.05539251,-0.10898306,-9.805888,-0.04581137,-1.5085555,-0.0138607025,-0.0022583008,0.013626099,0.017410278
2019-07-01T19:47:46.356Z,-0.58208966,-0.81311643,0.0028065473,0.04547119,1.002594,-9.769897,21.678162,7.347107,24.82605,0.004910156,-0.0712113,-9.806391,-0.020703312,0.3380157,0.011277199,-0.006652832,0.029388428,-0.06340027
2019-07-01T19:47:46.570Z,-0.5752992,-0.8179406,-0.0019894203,0.28234863,4.208969,-9.836899,20.904541,8.023071,25.144958,0.02751263,0.028352851,-9.806571,0.08686584,1.8653225,-0.001581192,0.00091552734,-0.0024414062,-0.022415161
2019-07-01T19:47:46.758Z,-0.5774902,-0.8163522,0.008142715,1.036087,-1.208374,-9.978073,20.785522,7.1411133,25.047302,-0.047357526,-0.16211775,-9.805196,-0.14404982,-3.2748914,-0.020150185,0.0019683838,-0.0065307617,-0.18240356
2019-07-01T19:47:46.960Z,-0.56508654,-0.82502353,-0.0033045143,1.0863342,5.9892426,-10.8012085,20.741272,7.86438,25.646973,0.061884392,0.036170516,-9.806388,0.24008149,3.1469927,0.025407791,-0.008117676,0.045944214,-0.07318115
2019-07-01T19:47:47.161Z,-0.5565567,-0.83078367,0.005243722,-0.3517456,-7.9202423,-9.705292,22.10083,8.343506,22.218323,0.007315834,-0.12869045,-9.805802,-0.16524696,-2.4875803,-0.03540802,0.00630188,-0.091308594,-0.22894287
2019-07-01T19:47:47.371Z,-0.53318894,-0.84599155,-5.9818743e-05,-1.8305054,7.9465637,-9.734009,19.926453,7.58667,25.927734,0.04710874,-0.028303621,-9.806497,0.25389397,1.0263549,0.03384304,-0.012145996,0.08882141,0.1507721
2019-07-01T19:47:47.575Z,-0.57397753,-0.818854,-0.0047745216,0.04547119,-11.947357,-9.870392,20.736694,9.915161,24.179077,0.09026318,0.051086605,-9.806102,-0.14769766,1.7227169,0.028115273,0.017654419,-0.051483154,-0.099868774
2019-07-01T19:47:47.820Z,-0.5633266,-0.8262089,0.005442626,0.550354,2.5914307,-9.652649,21.051025,9.565735,25.0,-0.003130047,-0.12706245,-9.805826,0.6578093,-3.289373,-0.042723656,-0.021255493,0.022735596,-0.19242859
2019-07-01T19:47:47.977Z,-0.57013464,-0.82151765,-0.0074316184,-0.2679901,4.74736,-9.786652,20.610046,8.586121,25.271606,0.08630586,0.117519744,-9.805566,-0.5672744,4.389819,0.025975227,-0.0014038086,0.010574341,0.16273499
2019-07-01T19:47:48.182Z,-0.56998175,-0.82165235,0.0020034907,-1.1772614,-6.278763,-9.839294,23.136902,8.274841,21.255493,0.01044207,-0.05506773,-9.80649,0.30133954,0.26396704,0.014782906,0.009963989,-0.06578064,-0.037872314
2019-07-01T19:47:48.380Z,-0.5708161,-0.8210428,-0.00752094,0.009567261,0.4139557,-9.865616,21.06018,9.783936,24.893188,0.101530574,0.10906454,-9.805518,0.04585392,3.0834239,0.0028839111,0.016677856,-0.023635864,-0.0048217773
2019-07-01T19:47:48.585Z,-0.5863899,-0.8099868,0.008206735,0.8374939,-1.7778625,-9.923035,23.368835,9.437561,23.596191,-0.079657406,-0.14103918,-9.805312,-0.087806605,-4.4038267,-0.033893585,-0.016677856,-0.0259552,-0.31373596
2019-07-01T19:47:48.780Z,-0.5622273,-0.826977,-0.0013881375,-0.050247192,0.5383911,-9.889542,21.968079,10.662842,22.845459,0.059911203,-0.007809184,-9.806464,0.021914162,1.9620337,0.039003372,-0.0022583008,0.057800293,0.11349487
2019-07-01T19:47:49.054Z,-0.5563086,-0.8309643,-0.003856833,-0.0023956299,-9.174088,-9.817749,18.748474,10.136414,25.58899,0.074947245,0.04085613,-9.806278,-0.17378695,0.9016746,0.0023260117,0.02243042,-0.033950806,-0.05479431
2019-07-01T19:47:49.244Z,-0.5410334,-0.84097934,0.004668509,0.6771698,0.38285828,-9.561722,21.026611,11.488342,21.392822,0.0139440615,-0.11784561,-9.805933,0.6601097,-2.755906,-0.009774208,-0.026504517,0.011184692,-0.30915833
2019-07-01T19:47:49.446Z,-0.5380516,-0.8429044,-0.0029809223,-0.32781982,3.0747833,-10.025925,20.60852,10.78949,23.00415,0.06360927,0.028757602,-9.806401,-0.5079639,2.4671972,0.020295143,0.0024414062,0.0025177002,0.16096497
2019-07-01T19:47:49.648Z,-0.5498842,-0.8352375,0.00043666788,0.21057129,-1.1150513,-9.860825,19.003296,10.443115,25.715637,0.033753686,-0.032475874,-9.806539,0.0023729838,-0.6994823,-0.02282238,0.011856079,-0.03627014,0.07147217
2019-07-01T19:47:49.852Z,-0.55659777,-0.8307743,0.0027164703,-0.0382843,2.2492523,-9.805786,21.852112,11.448669,23.916626,0.008917566,-0.07010539,-9.806396,0.17555937,-0.7733556,-0.00025081635,-0.007751465,0.03727722,0.006164551
2019-07-01T19:47:50.054Z,-0.54387087,-0.8391579,-0.003828845,-0.093322754,2.0865479,-9.867996,19.807434,10.350037,25.891113,0.07327209,0.04199966,-9.806287,-0.32811758,1.9729949,0.011916161,0.0027008057,0.0066070557,-0.07757568
2019-07-01T19:47:50.253Z,-0.5527029,-0.83336896,0.0017203141,-0.107681274,-2.8402863,-9.688538,19.26117,10.902405,24.969482,0.039644487,-0.0667797,-9.806342,0.08213948,-1.6115301,-0.029100418,0.0077667236,-0.021621704,0.047286987
2019-07-01T19:47:50.459Z,-0.5463087,-0.8375718,0.00061146606,-0.23210144,4.3621216,-9.76033,21.728516,10.643005,23.153687,0.066768065,-0.057867993,-9.8062525,0.24453048,-0.417815,0.027008057,-0.011413574,0.017471313,0.043685913
2019-07-01T19:47:50.659Z,-0.56798434,-0.8230177,-0.0059680976,-0.9906311,-0.055038452,-9.731613,19.438171,9.153748,26.643372,0.068471126,0.094966836,-9.805951,-0.14768638,3.214304,0.0150203705,0.0069732666,-0.026565552,0.20542908
2019-07-01T19:47:50.867Z,0.55333835,0.83290136,-0.009038988,1.4644012,-0.8422699,-9.958923,22.062683,11.11145,22.17865,-0.15044577,-0.1128833,-9.804847,0.55679333,-4.4315267,-0.05643463,-0.016494751,-0.01953125,-0.36254883
2019-07-01T19:47:51.061Z,-0.54545385,-0.8381364,-0.002429157,0.21296692,4.359726,-10.157532,19.184875,11.045837,25.07782,0.046837527,0.02636292,-9.806503,-0.5029031,2.7564917,0.06537056,0.0014190674,0.05619812,-0.08943176
2019-07-01T19:47:51.282Z,-0.5320377,-0.84671736,0.00042323704,-0.25842285,-0.43070984,-9.786652,17.756653,13.130188,25.93689,0.03406623,-0.031209407,-9.806541,0.0034914054,-0.8342604,-0.06853104,-0.0053100586,-0.09088135,-0.4214325
2019-07-01T19:47:51.471Z,-0.49991614,-0.86607254,0.0014867387,-0.63409424,1.8448639,-9.851257,21.202087,13.53302,22.027588,-0.012585025,-0.026404636,-9.806606,0.27914214,-0.3396967,0.032473564,0.002822876,0.061828613,0.457901
2019-07-01T19:47:51.672Z,-0.53144354,-0.8470889,-0.00042725576,0.062210083,-0.5383911,-9.82254,18.79425,13.134766,24.838257,0.051452495,-0.022387577,-9.80649,-0.12396851,0.2525844,-0.004573822,0.002746582,0.0124053955,0.037765503
2019-07-01T19:47:51.877Z,-0.5343907,-0.8452309,-0.00030949456,0.01675415,-0.32302856,-9.693329,18.4021,11.424255,25.56305,0.059051454,-0.030153189,-9.806426,-0.020526104,-0.1277737,0.013115883,0.00024414062,0.007583618,0.055099487
2019-07-01T19:47:52.077Z,-0.5366149,-0.8438185,-0.00084173825,0.052642822,0.37806702,-9.791428,17.512512,10.91156,27.98767,0.07094671,-0.025552936,-9.80636,-0.018554896,0.1171997,-0.008760452,0.00079345703,0.0019073486,0.0006713867
2019-07-01T19:47:52.281Z,-0.53655684,-0.8438555,-0.00062524737,0.033493042,-0.32302856,-9.7986145,17.384338,9.9609375,27.044678,0.06900261,-0.029342512,-9.806363,-0.025933176,-0.032147806,0.0014467239,0.0012207031,0.00012207031,0.019851685
2019-07-01T19:47:52.488Z,-0.5392911,-0.8421104,-0.0008389678,0.04307556,0.40438843,-9.82254,17.84668,9.402466,27.667236,0.07178576,-0.0264321,-9.806352,-0.012923501,0.0915131,0.00019931793,0.00091552734,0.0019073486,0.03878784
2019-07-01T19:47:52.691Z,-0.54178196,-0.84051037,-0.0013224756,0.07896423,0.23449707,-9.82254,17.007446,8.61969,27.618408,0.07316969,-0.01630472,-9.806364,-0.024350323,0.24051592,0.031764984,0.0005493164,-0.0013427734,0.01637268
2019-07-01T19:47:52.889Z,-0.5413274,-0.8408113,-0.00027775927,-0.095718384,-0.22253418,-9.853638,18.830872,9.9105835,27.12555,0.018998595,-0.0057524075,-9.80663,-0.11447355,0.28428656,-0.024149895,-0.0052490234,-0.04928589,0.01576233
2019-07-01T19:47:53.088Z,0.54635197,0.837547,-0.0020429597,-0.04067993,-0.20817566,-9.812973,17.730713,8.900452,25.83313,-0.07475335,0.0009229814,-9.806365,0.0032057017,-0.20790847,0.0047445297,-0.0014648438,-0.0146484375,0.08491516
2019-07-01T19:47:53.292Z,0.5530423,0.8331484,-0.0016505554,-0.124420166,-0.021530151,-9.824936,19.340515,8.935547,25.775146,-0.055377074,-0.0020965266,-9.806494,-0.013772868,-0.06369926,-0.007630348,0.00079345703,0.00819397,0.07678223
2019-07-01T19:47:53.504Z,0.5640541,0.82573605,-0.0009817869,-0.033493042,-0.124420166,-9.856033,20.280457,9.934998,27.148438,-0.033928156,-0.00014375983,-9.806591,-0.024694957,0.0078036766,-0.0043697357,0.0004272461,0.0027618408,0.055892944
2019-07-01T19:47:53.702Z,0.5669912,0.82372195,-0.0006057694,-0.047851562,0.19621277,-9.805786,20.095825,9.944153,24.438477,-0.033339325,0.008524726,-9.80659,-0.008772057,0.0158886,-0.0009889603,-0.0012207031,0.0028839111,0.022415161
2019-07-01T19:47:53.906Z,0.56862754,0.8225931,-0.00058066455,-0.009567261,-0.107681274,-9.829712,21.202087,9.736633,22.914124,-0.03456302,0.010047222,-9.806584,-0.0027575046,-0.0035934728,0.00029468536,-0.0008544922,-0.001953125,0.032318115
2019-07-01T19:47:54.108Z,0.57162786,0.8205108,-0.00044764168,-0.0765686,0.102890015,-9.729218,23.135376,9.642029,23.495483,-0.034950517,0.013648802,-9.806579,0.0009670742,0.004540502,0.0025930405,-0.0006713867,-0.00012207031,0.015823364
2019-07-01T19:47:54.310Z,0.57058275,0.8212353,-0.0007416895,-0.086135864,-0.021530151,-9.841675,23.188782,9.367371,21.702576,-0.05203652,0.01844085,-9.806495,-0.022616442,0.0064432956,-0.0041980743,-0.0013427734,-0.005065918,-0.0014648438
2019-07-01T19:47:54.514Z,0.5718849,0.8203294,-0.0013065601,0.011962891,0.023925781,-9.762711,23.771667,8.177185,20.45288,-0.0528743,0.00562243,-9.806506,-0.000747513,-0.031697817,0.009646416,-0.0016479492,0.0036773682,-0.017105103
2019-07-01T19:47:54.718Z,0.56728625,0.82351243,-0.0005915125,-0.13877869,0.13160706,-9.9015045,24.446106,7.054138,20.42389,-0.065314904,0.030905291,-9.806384,-0.021764196,0.043747418,-0.01176548,-0.0030517578,-0.005493164,-0.057235718
2019-07-01T19:47:54.918Z,0.56822956,0.8228592,-0.004184739,-0.18902588,0.17468262,-9.78186,22.51892,5.3237915,20.303345,-0.05592768,-0.06112263,-9.8063,0.049465276,-0.19417943,0.0027589798,-0.0004272461,-0.00982666,0.01625061
2019-07-01T19:47:55.121Z,0.5704744,0.8213027,-0.0045239516,-0.06939697,-0.114852905,-9.829712,22.750854,3.2226562,20.620728,-0.060539603,-0.06598234,-9.806241,-0.03971743,-0.14026147,-0.0005683899,-0.0021362305,0.0077667236,-0.024307251
2019-07-01T19:47:55.325Z,-0.5700098,-0.82162154,0.0050996677,-0.0047912598,-0.22732544,-9.86322,23.146057,4.852295,20.783997,-0.041626465,-0.09285434,-9.806122,-0.009101246,-0.509408,-0.0045337677,0.0013427734,0.013076782,0.040252686
2019-07-01T19:47:55.518Z,-0.5838631,-0.8118385,0.0042359475,0.04307556,0.1986084,-9.76033,24.263,6.4559937,21.064758,-0.015928518,-0.09087891,-9.806216,0.029571805,0.09974001,0.011184692,0.0017852783,0.008621216,0.035614014
2019-07-01T19:47:55.725Z,-0.58952683,-0.8077352,0.0041673603,-0.047851562,-0.021530151,-9.78186,22.82257,9.840393,23.397827,-0.014434701,-0.090653785,-9.80622,-0.04060214,0.12798691,0.0005674362,0.011672974,-6.1035156e-05,-0.025283813
2019-07-01T19:47:55.935Z,-0.5889723,-0.8081331,0.0047734473,-0.07417297,-0.2416687,-9.820145,21.902466,9.126282,23.139954,-0.0057762484,-0.111637495,-9.806013,-0.021978568,-0.013482049,-0.008739471,0.001953125,0.008804321,0.03201294
2019-07-01T19:47:56.137Z,-0.590502,-0.80701655,0.004089403,0.0023956299,0.03111267,-9.867996,20.26062,8.056641,24.876404,0.013751919,-0.109445944,-9.806029,-0.017827637,0.13170615,0.0061903,0.0030517578,0.008255005,0.021621704
2019-07-01T19:47:56.327Z,-0.5925047,-0.80556244,0.0013501717,0.071777344,0.25842285,-9.867996,20.118713,6.5841675,25.488281,0.021449508,-0.04864932,-9.806506,0.005589025,0.13000926,0.0012111664,0.0018463135,0.0014801025,0.07550049
2019-07-01T19:47:56.529Z,-0.5948145,-0.80386156,-0.0015177458,0.04067993,0.0765686,-9.853638,19.825745,7.067871,26.280212,0.021990392,0.020759458,-9.806603,-0.0028410926,0.14841428,-0.0006465912,0.0020141602,0.00024414062,0.049972534
2019-07-01T19:47:56.751Z,0.5979782,0.80150986,0.0020181555,-0.03111267,0.0382843,-9.769897,20.4422,6.376648,26.641846,0.022021126,0.032955773,-9.80657,0.014358358,0.25777373,0.026222229,-0.00012207031,-0.0009765625,0.027908325
2019-07-01T19:47:56.949Z,0.59721243,0.8020789,0.0018236545,0.047851562,0.8829498,-9.858429,18.917847,6.4941406,26.727295,-0.0076853554,0.05031604,-9.806519,0.008402595,0.4000161,-0.021661758,-0.002380371,-0.025283813,-0.018508911
2019-07-01T19:47:57.152Z,0.5927637,0.80536336,0.0017409779,-0.052642822,0.071777344,-9.736389,19.787598,8.239746,25.234985,-0.046762,0.076815546,-9.806238,0.010155223,0.26536435,0.007426262,-0.0049438477,-0.018371582,-0.08605957
2019-07-01T19:47:57.353Z,0.58731306,0.8093438,0.0021509833,-0.098098755,0.46420288,-9.805786,22.581482,9.8220825,23.556519,-0.04852464,0.087337345,-9.806141,-0.026609052,0.013644271,-0.0057525635,-0.004272461,0.0116119385,-0.02607727
2019-07-01T19:47:57.551Z,0.58566725,0.81053483,0.001741992,-0.095718384,-0.20578003,-9.621536,23.00415,8.769226,22.04132,-0.058113758,0.08414272,-9.806117,-0.124934375,-0.18774456,0.013104439,-0.004272461,-0.0026855469,-0.037750244
2019-07-01T19:47:57.755Z,0.5864615,0.80996585,0.0010388839,-0.026321411,-1.0121613,-9.808182,22.694397,5.5480957,21.020508,-0.05393391,0.064207315,-9.806292,0.0465162,-0.5298422,-0.0096588135,-0.0028686523,0.0037384033,0.069885254
2019-07-01T19:47:57.960Z,0.59443146,0.8041434,-0.0009063924,-0.15792847,-1.8113708,-9.820145,24.316406,5.7250977,21.66748,-0.041142233,0.008305698,-9.8065605,-0.023464195,-1.0948839,-0.0075292587,0.0038604736,0.0076446533,0.026947021
2019-07-01T19:47:58.160Z,-0.5985964,-0.8010505,0.00063709513,-0.0047912598,-0.31825256,-9.858429,22.488403,7.8536987,22.857666,-0.0065532564,-0.010701917,-9.806642,-0.033165406,-0.46355656,-0.0023078918,-0.0043945312,0.014846802,0.0713501
2019-07-01T19:47:58.365Z,-0.6048951,-0.7963041,0.0012747735,0.052642822,0.15553284,-9.827316,20.55664,7.2647095,25.836182,-0.010578917,-0.023362104,-9.806617,-0.008326845,-0.10632262,0.0014333725,0.010391235,-0.0057373047,0.07550049
2019-07-01T19:47:58.572Z,-0.60976446,-0.7925826,-0.0003965848,0.31106567,2.3377838,-9.772293,19.877625,6.491089,25.85907,0.008807054,0.0030383037,-9.806645,0.12614231,0.97442466,0.0090065,0.0026397705,0.021148682,0.083999634
2019-07-01T19:47:58.790Z,0.60889834,0.7931996,0.008305689,0.01914978,2.5651093,-9.712463,20.826721,6.2667847,25.245667,0.0545322,0.16349584,-9.805136,-0.030606356,2.9280267,0.012491226,-0.00048828125,-0.02418518,0.00061035156
2019-07-01T19:47:58.976Z,0.60654986,0.79504454,-0.00086654036,-0.26560974,-4.922043,-9.961319,22.413635,6.021118,23.544312,-0.023462478,-0.0034772009,-9.806622,-0.030140145,-3.4481676,-0.042801857,-0.014770508,0.0023956299,-0.049850464
2019-07-01T19:47:59.178Z,-0.61770123,-0.78639996,0.0042250743,-0.1483612,3.7854462,-9.324829,20.541382,5.151367,25.634766,-0.027215276,-0.08399677,-9.8062525,-0.18431126,-1.8524927,-0.022481918,-0.006225586,0.00044250488,0.025527954
2019-07-01T19:47:59.379Z,0.60981846,0.792487,0.008383488,0.4785614,2.7756805,-9.777069,21.252441,6.8084717,24.80774,0.039162207,0.17733027,-9.804969,0.22739333,5.1610627,0.06289005,0.006668091,0.011856079,0.08198547
2019-07-01T19:47:59.580Z,0.59811616,0.8014088,-0.00071693823,-0.68434143,-3.883545,-9.978073,22.007751,5.844116,24.279785,-0.018702468,-0.0035877605,-9.806631,-0.13203807,-3.2315042,-0.035708427,0.0053253174,-0.014831543,0.09864807
2019-07-01T19:47:59.780Z,-0.6116806,-0.79108065,0.0061270185,-0.050247192,3.1776733,-9.872787,20.230103,3.6010742,25.556946,-0.060787126,-0.104899734,-9.805901,-0.42087692,-2.012972,-0.008059502,-0.0057373047,-0.0012207031,0.104888916
2019-07-01T19:47:59.976Z,0.6094124,0.7928494,-0.0012138023,-0.9954071,-4.7569275,-9.812973,22.044373,6.6467285,24.516296,-0.04871187,0.007415153,-9.806526,-0.15515974,-2.7335658,-0.02225399,-0.0036621094,-0.042266846,-0.35490417
2019-07-01T19:48:00.183Z,0.60220295,0.7983197,-0.0060988492,0.62213135,1.5337982,-9.9756775,21.766663,5.9799194,23.335266,-0.07402897,-0.09398947,-9.805921,-0.21022627,-2.1064296,-0.026463509,-0.006164551,0.0262146,0.053024292
2019-07-01T19:48:00.390Z,0.601075,0.79916036,0.0052631516,0.086135864,4.0534363,-9.791428,20.837402,4.740906,24.707031,-0.014562251,0.14011638,-9.805638,0.31487122,4.3332653,0.04150772,0.013809204,-0.0079956055,0.104644775
2019-07-01T19:48:00.621Z,0.60430366,0.79674995,-0.0003855956,-0.43070984,-5.21875,-9.820145,21.975708,6.55365,26.464844,-0.044352055,0.024147296,-9.80652,-0.03628862,-1.975015,-0.014137268,-0.0064086914,-0.015197754,-0.053329468
2019-07-01T19:48:00.787Z,0.6045381,0.79654485,-0.0070319483,1.3710938,-0.22970581,-9.836899,21.92688,5.912781,23.84491,-0.09486922,-0.101137765,-9.80567,-0.5913781,-2.5749767,-0.010836601,-0.002380371,0.013381958,0.04045105
2019-07-01T19:48:00.990Z,0.63158756,0.7752962,0.002136909,0.5168457,6.139984,-9.86322,21.116638,3.7368774,24.945068,-0.017510401,0.068323106,-9.8063965,0.87533015,3.1902173,0.011792183,0.0061187744,-0.00090026855,0.44862366
2019-07-01T19:48:01.196Z,0.6344198,0.77297664,0.00038274788,0.088531494,-2.519638,-9.789032,22.50061,4.348755,23.805237,-0.06041747,0.05929914,-9.806285,-0.008733597,0.22138456,0.008200645,0.002822876,-0.054840088,-0.21826172
2019-07-01T19:48:01.401Z,0.6229428,0.78222936,-0.0073460927,-0.2871399,-1.3399811,-9.748352,21.795654,4.8934937,22.81189,-0.12574665,-0.08404131,-9.805484,-0.25182545,-3.0175219,-0.022521019,-0.008666992,0.04093933,-0.082458496
2019-07-01T19:48:01.620Z,0.62009406,0.7845241,-0.0012924242,0.0765686,4.352539,-9.860825,21.966553,5.1223755,23.153687,-0.04493848,0.0032089702,-9.806547,0.18826634,1.4626265,0.017718315,0.0009765625,0.01576233,0.10324097
2019-07-01T19:48:01.813Z,0.62136185,0.7834978,0.003796329,-0.2416687,1.1892395,-9.734009,21.63086,4.5043945,24.551392,-0.032470945,0.12078109,-9.805852,0.17676024,2.4840386,0.009332657,0.010574341,-0.031570435,-0.014724731
2019-07-01T19:48:02.013Z,0.62200636,0.7829759,-0.0047777127,-0.22253418,-3.9242249,-9.786652,21.713257,4.812622,23.10028,-0.14776006,-0.002290879,-9.805537,-0.13793994,-2.2792642,-0.0058612823,-0.009094238,-0.021560669,-0.075683594
2019-07-01T19:48:02.219Z,0.62105304,0.78373927,-0.006755205,0.17945862,0.7082825,-9.894318,21.160889,5.143738,22.509766,-0.08895491,-0.09855326,-9.805751,-0.13092399,-2.1059432,-0.015078545,-0.0048217773,0.041366577,0.0896759
2019-07-01T19:48:02.413Z,0.6318577,0.77506846,0.0011200842,0.071777344,6.5324097,-9.734009,22.157288,3.7399292,24.145508,-0.05979944,0.077093504,-9.806165,0.2031253,3.426477,0.026463509,0.010025024,-0.003967285,0.09951782
2019-07-01T19:48:02.620Z,0.62997437,0.7766,0.00081867527,-0.36849976,-1.9477539,-9.832108,22.332764,4.269409,23.040771,-0.06465262,0.073121324,-9.806165,0.18620989,0.22597496,-0.016222,7.6293945e-05,-0.015930176,0.04789734
2019-07-01T19:48:02.827Z,0.6273543,0.77871764,-0.0036279245,-0.26081848,-2.1583252,-9.786652,22.538757,3.7109375,21.859741,-0.098068796,-0.012366331,-9.806151,-0.2184976,-1.9449539,-0.003657341,-0.010070801,-0.00016784668,-0.2144165
2019-07-01T19:48:03.029Z,0.62382597,0.7815546,-0.003241041,0.04067993,0.009567261,-9.858429,21.45996,4.7302246,21.96045,-0.06658274,-0.028188182,-9.806383,-0.062862486,-0.56450456,-0.013198853,-0.0048217773,0.023956299,0.04777527
2019-07-01T19:48:03.231Z,0.6277671,0.7783962,-0.0023555108,-0.15792847,0.052642822,-9.84407,21.55304,4.801941,23.104858,-0.052374404,-0.017112177,-9.806496,0.021036398,0.20304169,0.015732765,0.0065460205,-0.0075683594,0.059677124
2019-07-01T19:48:03.435Z,0.63091063,0.7758449,-0.0036633676,-0.114852905,-0.1603241,-9.858429,20.884705,4.322815,22.883606,-0.07202338,-0.03403931,-9.806326,-0.049041748,-0.059750147,-0.02133751,0.0008544922,-0.0012664795,-0.021377563
2019-07-01T19:48:03.638Z,0.63338214,0.77383655,-0.0018403449,0.06460571,0.3014984,-9.872787,22.320557,3.9779663,23.05603,-0.035013426,-0.017985983,-9.806571,0.046733767,0.1302152,0.025629997,-0.0012817383,0.045516968,0.074035645
2019-07-01T19:48:03.833Z,-0.6376549,-0.77032125,-0.0001134082,0.03111267,0.18185425,-9.800995,22.575378,4.286194,23.184204,0.01927083,-0.013064464,-9.8066225,0.052033566,0.28201583,0.008687973,0.004470825,-0.001953125,0.05204773
2019-07-01T19:48:04.039Z,-0.6404907,-0.7679647,-0.0010003352,0.047851562,0.3397827,-9.800995,22.8302,2.619934,23.890686,0.025849404,0.0039891647,-9.806616,0.0626832,0.45160794,0.0071058273,0.002380371,0.0019683838,0.030059814
2019-07-01T19:48:04.261Z,0.6397233,0.7686028,0.0018663788,0.17706299,0.74894714,-10.19342,23.345947,1.5625,23.730469,0.013927519,0.03603415,-9.806574,0.026265245,0.59830713,0.008136749,-0.009460449,-0.042877197,-0.013549805
2019-07-01T19:48:04.447Z,0.63633746,0.77139467,-0.0013215374,-0.06460571,0.45703125,-9.702896,22.599792,2.89917,23.579407,-0.089302704,0.04006716,-9.806162,0.08307119,0.35977682,-0.0021829605,0.015274048,-0.030410767,-0.04421997
2019-07-01T19:48:04.650Z,0.63014686,0.7764529,-0.0015323947,-0.1268158,-0.050247192,-9.702896,21.746826,3.6437988,23.690796,-0.10699084,0.048123587,-9.805948,2.2090971e-05,0.04208846,-0.00409317,-0.007446289,0.015457153,-0.11001587
2019-07-01T19:48:04.889Z,0.6238305,0.78154635,-0.0011604055,-0.112457275,-0.22970581,-9.748352,22.467041,5.593872,22.773743,-0.0818686,0.036227185,-9.806241,-0.0846712,-0.4403691,0.0026798248,-0.0057373047,0.007583618,-0.0826416
2019-07-01T19:48:05.057Z,0.61830264,0.7859288,-0.00059004966,-0.1651001,-0.42352295,-9.7986145,20.591736,5.0354004,22.511292,-0.071590066,0.04159628,-9.806301,-0.03322526,-0.08274766,-0.0053634644,-0.004333496,0.0010375977,-0.05204773
2019-07-01T19:48:05.260Z,0.6178218,0.7863063,-0.0009899717,-0.07896423,0.009567261,-9.8033905,21.266174,3.9123535,22.480774,-0.0767351,0.035599828,-9.806285,-0.042437688,-0.25909454,-0.003786087,-0.0032348633,-0.001159668,0.027374268
2019-07-01T19:48:05.458Z,0.621499,0.7834047,-0.0018313167,-0.18902588,-0.92123413,-9.791428,21.606445,4.450989,21.673584,-0.077151954,0.015358951,-9.8063345,-0.037473515,-0.47693703,-0.0015583038,-0.002746582,0.0016479492,0.0061187744
2019-07-01T19:48:05.659Z,0.61988723,0.78467965,-0.0024810452,-0.026321411,-0.31585693,-9.954147,20.178223,3.0426025,21.896362,-0.082506806,0.0031659945,-9.806303,-0.041436575,-0.27068323,-0.01196003,0.0006713867,-0.0056152344,-0.017837524
2019-07-01T19:48:05.862Z,0.62268883,0.7824629,-0.0025300002,-0.100494385,-0.30389404,-10.145569,21.202087,4.272461,22.480774,-0.061776314,-0.01425462,-9.806445,-0.021729711,-0.44803968,-0.0073451996,-0.005004883,0.022918701,0.040802002
2019-07-01T19:48:06.076Z,0.6241355,0.7813131,-0.0018797043,-0.01675415,-0.052642822,-9.82254,21.37146,4.5806885,21.93451,-0.039505623,-0.015627757,-9.806559,0.026108213,-0.07218665,0.016989708,0.0033111572,-0.0015258789,0.009475708
2019-07-01T19:48:06.274Z,0.62699014,0.77901936,-0.0034423913,-0.124420166,-0.071777344,-9.956543,20.974731,4.547119,22.698975,-0.050681602,-0.045876864,-9.806412,-0.09026059,-0.24054293,-0.011426926,0.009414673,0.0019683838,0.0056762695
2019-07-01T19:48:06.494Z,0.62426114,0.7812088,-0.0032437576,0.0143585205,0.3254242,-9.930222,21.890259,5.1879883,23.094177,-0.048610188,-0.0425938,-9.8064375,-0.009296998,-0.04210781,-0.01300621,0.0021362305,0.00079345703,0.016677856
2019-07-01T19:48:06.690Z,0.62722725,0.7788321,-0.0023922746,0.0,0.6006012,-9.808182,21.41571,5.2230835,23.950195,-0.043699417,-0.02505113,-9.80652,0.04848699,0.44332296,0.013547897,0.0035552979,0.0018310547,0.06138611
2019-07-01T19:48:06.891Z,0.6296191,0.776901,-0.0012249146,0.06460571,0.91166687,-9.789032,22.071838,3.7399292,23.396301,-0.04179526,0.002948366,-9.8065605,0.043468352,0.6273163,0.007173538,0.0025024414,-0.009765625,0.020095825
2019-07-01T19:48:07.139Z,0.6275273,0.77858657,-5.339669e-05,-0.055038452,0.5383911,-9.832108,21.940613,4.536438,22.9599,-0.05442538,0.04252082,-9.806407,0.13363045,0.77127874,-0.011707306,-0.0015258789,-0.0064086914,-0.02558899
2019-07-01T19:48:07.333Z,0.6234131,0.781882,-4.307931e-05,-0.112457275,-0.6149597,-9.621536,21.10138,5.192566,25.242615,-0.063106716,0.04923587,-9.806324,-0.004149355,-0.005206004,0.019949913,-0.0061035156,0.0077667236,-0.061141968
2019-07-01T19:48:07.543Z,0.6296982,0.7768335,-0.00021343351,-0.13877869,-0.32063293,-9.978073,22.7005,5.316162,22.860718,-0.050516643,0.03555993,-9.806456,-0.072960384,-0.45670044,-0.02238655,-0.0053710938,0.0023345947,-0.05117798
2019-07-01T19:48:07.737Z,0.6259081,0.7798915,-0.0018477162,-0.1268158,-0.20817566,-9.853638,22.351074,4.862976,22.027588,-0.056454003,-0.0011597701,-9.806488,-0.10123523,-0.85427856,0.004152298,-0.0032348633,-0.006286621,-0.05052185
2019-07-01T19:48:07.943Z,0.62565225,0.7800865,-0.004868339,-0.112457275,-1.2203369,-9.856033,21.807861,5.1101685,23.3078,-0.07137254,-0.06515622,-9.806174,-0.07531055,-1.2808067,-0.010661125,-0.0029296875,0.010147095,-0.0018310547
2019-07-01T19:48:08.145Z,-0.62712425,-0.7789075,0.004279591,0.050247192,0.55752563,-9.848862,22.059631,5.343628,23.420715,-0.049185008,-0.06815989,-9.80629,-0.10348125,-0.046695888,0.0077495575,0.0062408447,0.0041656494,0.01210022
2019-07-01T19:48:08.347Z,0.62511826,0.7805264,-0.0021363369,0.23928833,1.4021912,-9.872787,20.58258,4.663086,23.34137,-0.042503174,-0.019641705,-9.806539,0.14754054,1.2785051,0.002664566,0.0096588135,0.00032043457,0.012954712
2019-07-01T19:48:08.555Z,0.62463474,0.78091383,-0.001762461,-0.050247192,0.32781982,-9.810577,21.009827,4.8950195,25.106812,-0.042754542,-0.010067095,-9.806552,0.0329382,0.35152712,0.0025014877,0.0017089844,-0.010986328,-0.005859375
2019-07-01T19:48:08.755Z,0.62333953,0.78194153,-0.0017066271,-0.057434082,0.899704,-9.865616,21.733093,5.1742554,23.474121,-0.07481916,0.016837144,-9.806351,0.028392002,0.5361436,0.0030937195,-0.0006713867,-0.01763916,0.0017852783
2019-07-01T19:48:08.951Z,0.6223799,0.7826904,-0.00197008,0.011962891,0.45463562,-9.772293,22.561646,5.9661865,22.395325,-0.11501516,0.042091813,-9.805885,0.10182951,0.40896434,0.0033988953,-0.003540039,-0.021850586,-0.042388916
2019-07-01T19:48:09.164Z,0.60995394,0.7923957,-0.0037202663,-0.21057129,-1.1916199,-9.865616,21.992493,5.783081,22.531128,-0.1559929,0.027999323,-9.805369,-0.09048408,-0.454632,-0.008185387,-0.0095825195,-0.021316528,-0.21012878
2019-07-01T19:48:09.361Z,0.60695696,0.7946972,-0.0049293754,-0.14117432,-0.44984436,-9.7986145,21.107483,5.79834,22.494507,-0.15123568,-0.006143235,-9.805482,-0.05934632,-0.860297,-0.0076971054,-0.0020141602,0.044906616,0.05229187
2019-07-01T19:48:09.562Z,0.610814,0.7917639,-0.0033136539,-0.088531494,-0.30389404,-9.796219,22.470093,5.66864,22.563171,-0.075302854,-0.023990232,-9.806332,-0.013952024,-0.33421183,0.0028476715,0.00030517578,0.015457153,0.021026611
2019-07-01T19:48:09.768Z,0.6148701,0.78862023,-0.0031684984,-0.062210083,0.18424988,-9.693329,22.566223,5.886841,23.35968,-0.06445045,-0.028550183,-9.8063965,-0.033426404,-0.030077176,0.005056381,0.0035552979,0.0022735596,0.061813354
2019-07-01T19:48:09.969Z,0.61661756,0.7872573,-0.0021575368,-0.07417297,0.009567261,-9.820145,22.88971,5.982971,23.138428,-0.057205044,-0.008945505,-9.806479,0.053367406,0.4729183,0.003435135,0.002456665,0.00024414062,0.025115967
2019-07-01T19:48:10.174Z,0.61871696,0.78560627,-0.002549215,-0.08375549,-0.033493042,-9.810577,22.245789,5.8639526,23.742676,-0.067398354,-0.010561789,-9.806413,-0.009180278,0.0033733277,0.0027532578,-0.00012207031,-0.0045166016,0.0096588135
2019-07-01T19:48:10.374Z,0.61834174,0.7858996,-0.002559917,-0.110076904,-0.023925781,-9.777069,20.446777,5.3131104,22.724915,-0.076806344,-0.0034547446,-9.806349,-0.0244167,0.09534266,0.00028514862,-0.0021972656,-0.022415161,-0.0017700195
2019-07-01T19:48:10.577Z,0.6184278,0.78581244,-0.004485586,-0.090927124,0.0023956299,-9.817749,21.609497,6.0394287,23.6557,-0.13256587,-0.0076235803,-9.805752,-0.017489359,-0.12972167,-0.0057325363,6.1035156e-05,-0.0057373047,-0.0056152344
2019-07-01T19:48:10.782Z,0.6181874,0.78601974,-0.0029896642,-0.105285645,0.0143585205,-9.824936,21.88263,6.713867,23.857117,-0.08062083,-0.0111923255,-9.806313,0.0037962943,0.02315358,0.005317688,0.0010986328,0.029632568,0.0009918213
2019-07-01T19:48:10.989Z,0.61812925,0.78606755,-0.0026749382,-0.090927124,0.0023956299,-9.820145,21.876526,6.491089,24.266052,-0.07299742,-0.00933989,-9.806374,-0.007161282,-0.00047205854,-0.001666069,-0.0008544922,-0.0028076172,-0.0012207031
2019-07-01T19:48:11.288Z,0.6180978,0.78609186,-0.0027942918,-0.0382843,0.011962891,-9.836899,22.053528,5.3497314,22.592163,-0.054326497,-0.014386426,-9.806489,0.0012123734,0.0009896653,-0.000664711,0.0018920898,0.007583618,-0.0004272461
2019-07-01T19:48:11.493Z,0.6098507,0.7925121,-0.0021043287,-0.035888672,0.0023956299,-9.786652,21.11206,6.17218,21.211243,-0.048270144,-0.014933494,-9.8065195,-0.002476085,0.001059928,0.0050029755,-6.1035156e-05,0.0033111572,-0.00030517578
2019-07-01T19:48:11.608Z,0.6085066,0.7935446,-0.0020875055,-0.062210083,-0.009567261,-9.851257,22.418213,6.2454224,22.834778,-0.048789542,-0.014181733,-9.806519,-0.0048198253,0.002217318,-0.0022439957,0.00012207031,-0.0021972656,-0.00024414062
2019-07-01T19:48:11.814Z,0.6085284,0.7935275,-0.0022089654,-0.057434082,-0.035888672,-9.815353,21.37909,6.315613,23.646545,-0.05116249,-0.015362986,-9.806504,0.00018781424,-0.002584449,0.0018529892,0.00024414062,0.0012817383,-0.0015258789
2019-07-01T19:48:11.993Z,0.6085421,0.7935175,-0.0020938574,-0.04547119,-0.03111267,-9.808182,21.661377,5.69458,21.77124,-0.048091516,-0.014872354,-9.806521,-0.00097627565,0.0019448241,0.00044345856,-0.00012207031,0.0006866455,-0.00036621094
2019-07-01T19:48:12.198Z,0.6084908,0.7935565,-0.0021147872,-0.035888672,-0.009567261,-9.808182,20.883179,6.0668945,23.162842,-0.049818546,-0.014067735,-9.806514,-0.0033006817,0.0016308669,-0.0030508041,0.00024414062,-0.0005340576,-0.0022583008
2019-07-01T19:48:12.404Z,0.60846996,0.79357195,-0.0022255003,-0.06939697,-0.011962891,-9.827316,21.110535,5.6427,23.747253,-0.052954804,-0.01440028,-9.806497,-0.0028053112,0.0010018395,0.00034999847,0.0007324219,-0.0017089844,-0.00012207031
2019-07-01T19:48:12.601Z,0.6084944,0.79355264,-0.0023748404,-0.047851562,-0.023925781,-9.8033905,21.282959,6.02417,22.987366,-0.055926625,-0.01581119,-9.806478,0.0006409064,0.0004904829,-0.00057315826,0.0008544922,0.00079345703,-0.0006713867
2019-07-01T19:48:12.807Z,0.6086725,0.79341716,-0.0022381416,-0.028717041,-0.028717041,-9.800995,21.548462,6.625366,22.871399,-0.048404004,-0.018193265,-9.806514,0.0051004775,-0.0047861263,-0.0014820099,0.0005493164,0.008132935,-0.0012817383
2019-07-01T19:48:13.008Z,0.60904074,0.7931374,-0.0015658267,-0.03111267,-0.033493042,-9.810577,20.391846,5.8135986,23.58551,-0.023523293,-0.020657593,-9.806601,0.0055711325,0.002218103,0.006875038,0.00079345703,0.005630493,-0.0018920898
2019-07-01T19:48:13.215Z,0.6088558,0.79327923,-0.00154863,-0.1483612,0.055038452,-9.8033905,20.84961,5.72052,20.753479,-0.027560163,-0.01713583,-9.806597,-0.004998859,0.0044483,0.0020399094,-0.00048828125,-0.0029296875,0.0014038086
2019-07-01T19:48:13.458Z,0.6089406,0.7932134,-0.0018323115,-0.023925781,-0.0023956299,-9.800995,20.251465,6.3934326,22.802734,-0.032292664,-0.02051557,-9.806576,-0.0017007403,-0.0060576554,-0.001200676,0.00079345703,-0.002319336,-0.00024414062
2019-07-01T19:48:13.620Z,0.6088936,0.7932475,-0.002375407,-0.035888672,0.011962891,-9.800995,20.779419,5.781555,21.826172,-0.046377912,-0.023132797,-9.806514,-0.00984716,0.00015483797,-0.008803368,0.00012207031,-0.00030517578,0.0010375977
2019-07-01T19:48:13.823Z,0.60889775,0.7932456,-0.002033942,-0.057434082,0.0,-9.815353,19.659424,7.597351,22.467041,-0.03813193,-0.02101955,-9.806553,0.00079524145,0.0021147747,0.0006971359,6.1035156e-05,0.0021972656,-0.00030517578
2019-07-01T19:48:14.025Z,0.6089838,0.7931799,-0.0019502352,0.0047912598,-0.033493042,-9.793823,20.393372,5.8914185,22.920227,-0.034068376,-0.022067245,-9.806566,0.0015233494,-0.0018572602,-0.000330925,0.00079345703,0.0012207031,-0.00035095215
2019-07-01T19:48:14.228Z,0.6090499,0.7931291,-0.0020133972,-0.03111267,0.01675415,-9.8033905,20.002747,6.4575195,21.69342,-0.033988412,-0.023689143,-9.806562,-0.0059681237,0.0026363581,-0.0024461746,0.00079345703,0.0007324219,-0.00012207031
2019-07-01T19:48:14.429Z,0.60902977,0.793144,-0.0021820513,-0.18185425,-0.5431671,-9.841675,20.47882,6.1187744,22.735596,-0.038498003,-0.024397293,-9.806544,-0.0074314997,-0.001670653,-0.003870964,0.00030517578,-0.0010375977,0.0001373291
2019-07-01T19:48:14.630Z,0.60905695,0.79312474,-0.0016452373,-0.07896423,-0.08135986,-9.829712,20.399475,6.188965,22.453308,-0.025029108,-0.021464834,-9.806595,0.0037231185,0.0066292435,0.011166573,-0.00036621094,0.00843811,0.015090942
2019-07-01T19:48:14.837Z,0.6106213,0.7919167,-0.00308914,0.055038452,-0.59103394,-10.054642,21.195984,6.251526,20.99762,-0.04088716,-0.04498084,-9.806461,0.01151922,-0.05783628,-0.035357475,-0.0017700195,-0.0078125,0.005935669
2019-07-01T19:48:15.036Z,-0.6121491,-0.79072064,0.0049086143,0.5862427,-3.1011047,-11.755936,19.346619,7.8689575,22.233582,-0.009325382,-0.11453134,-9.805977,-0.5354608,-1.1383402,-0.87533665,0.27293396,0.023956299,-0.19218445
2019-07-01T19:48:15.230Z,-0.5875232,-0.7949128,0.08732888,3.316452,-6.36969,-10.99263,14.077759,18.171692,21.150208,0.9224077,-2.7870586,-9.3569145,1.4377985,-2.667463,0.36612988,2.2649841,1.2268829,-0.2348175
2019-07-01T19:48:15.447Z,-0.6142678,-0.7002472,0.15509798,1.0121613,-6.972687,-1.7778625,8.953857,18.855286,20.516968,2.6506238,-6.0944676,-7.2112446,0.3855908,0.4008665,0.18422365,0.5496063,-0.02760315,0.023834229
2019-07-01T19:48:15.648Z,-0.6049654,-0.70341647,0.22193696,-0.1531372,-7.704895,-5.139786,5.5526733,29.960632,6.9107056,1.5047523,-6.620853,-7.0760455,-1.1187028,-1.6967072,3.2770624,3.1953583,-1.2497101,0.40396118
2019-07-01T19:48:15.847Z,-0.41304442,-0.49959734,0.57655865,-0.090927124,-10.442276,-0.51924133,6.7321777,31.440735,-4.6157837,0.20280953,-9.678832,1.5650783,-1.2323446,-0.28851795,-3.5661292,2.391571,-0.10884094,0.174469
2019-07-01T19:48:16.049Z,-0.44945905,-0.568676,0.5626025,-0.7010956,-9.044876,-0.7800598,12.387085,32.56836,1.9500732,-0.52506113,-9.779898,-0.49829224,0.9917256,-0.084466934,-0.26449007,-1.559906,-0.72428894,0.6864319
2019-07-01T19:48:16.257Z,-0.40858436,-0.6375207,0.553506,1.2873383,-11.105087,-1.9740753,12.445068,33.203125,-4.2648315,-0.09950909,-9.699972,-1.4391012,-0.18000603,-0.23777199,0.3739457,0.2783203,-0.5250244,-0.69003296
2019-07-01T19:48:16.459Z,-0.36729017,-0.6347731,0.60427237,0.9308014,-11.633911,-2.995819,15.628052,34.214783,-4.1900635,-0.47519195,-9.766975,-0.7421468,2.367285,-1.9005842,-2.1327386,-0.38423157,-1.0933228,0.5240631
2019-07-01T19:48:16.660Z,-0.30500758,-0.77335304,0.5328905,-14.871399,-6.970291,-4.922043,7.371521,37.55493,11.628723,-0.79327714,-9.027301,-3.7481916,-1.7624452,0.5603485,1.2735672,-2.9013214,-1.5024872,-1.295166
2019-07-01T19:48:16.860Z,-0.16209789,-0.9357807,0.30209213,2.4813538,0.1483612,-10.083359,7.1914673,31.022644,25.106812,0.55071956,-5.8062887,-7.883788,-1.498523,-0.6081724,-1.866889,-1.9109192,-0.3490448,-0.28167725
2019-07-01T19:48:17.062Z,-0.1560518,-0.985369,0.06257362,-3.5988007,5.1852417,-10.794022,8.433533,21.429443,32.01294,0.34834242,-1.2948161,-9.714551,-1.6324148,1.420589,2.5409908,-3.4122467,-0.99998474,-1.1169739
2019-07-01T19:48:17.269Z,0.095871195,0.92741,0.25122178,-7.625931,7.245468,3.2805634,25.85907,-6.2576294,28.907776,-4.2571483,5.0585327,-7.2428117,-0.8789134,0.31085014,4.0711637,-5.0852356,-2.6376038,0.23017883
2019-07-01T19:48:17.480Z,-0.07410415,0.69539654,0.6188935,-4.8358917,7.984848,-2.3904266,26.359558,-21.18988,22.37091,-5.777313,7.9213037,0.21441734,-3.3083205,1.5578914,-1.6799988,-1.3163605,1.0736694,0.04423523
2019-07-01T19:48:17.669Z,-0.010927476,0.8514792,0.5136957,2.411972,0.5766754,-7.405792,11.071777,-12.918091,37.368774,-1.8600887,8.556423,-4.415664,1.3939221,-5.016265,-2.9533195,3.0878906,1.1279144,2.5263672
2019-07-01T19:48:17.894Z,-0.33122298,-0.94064856,-0.007057521,0.35653687,0.38523865,-12.031113,8.813477,10.232544,40.664673,1.4043243,-0.34814343,-9.699333,-1.4003102,1.2526953,-0.23824883,0.85998535,-1.244873,1.0586395
2019-07-01T19:48:18.088Z,-0.3649965,-0.91878945,0.14131744,-0.22732544,-0.53359985,-13.392624,15.12146,17.858887,32.821655,-0.08700401,-2.9139376,-9.363321,0.2746714,2.7550836,-2.2184544,1.0397644,0.26953125,0.08692932
2019-07-01T19:48:18.344Z,-0.31494117,-0.9345142,0.15604076,-1.3615112,-7.104294,-4.577469,16.923523,22.810364,29.830933,0.06426699,-3.2065494,-9.267378,-1.2225753,-0.8853924,-0.22353554,-0.8368225,-0.5340729,-0.7745209
2019-07-01T19:48:18.539Z,0.2611843,0.96423584,-0.008141579,-3.1489563,-4.0007935,-11.112274,17.030334,18.998718,33.807373,-0.8801984,0.07315148,-9.766794,-0.38199836,-6.2483616,-0.37316227,-0.63627625,-0.11740112,-0.3284607
2019-07-01T19:48:18.734Z,0.22947802,0.97190166,-0.034912273,-1.3926239,2.9359894,-8.736191,15.711975,18.099976,34.960938,-0.9023048,-0.48956066,-9.752772,-1.5015366,0.54934657,0.7369108,-0.26937866,0.20526123,-0.010192871
2019-07-01T19:48:18.937Z,0.28634593,0.9579107,-0.0024913175,1.3686981,3.7136536,-11.160126,17.375183,17.784119,33.395386,-0.3929713,0.066481106,-9.798548,0.04608625,4.507533,-1.0290394,0.3254242,0.13171387,0.99217224
2019-07-01T19:48:19.141Z,0.3440632,0.937915,-0.035569847,-1.7563324,-0.5168457,-10.4279175,18.80951,17.671204,32.182312,-0.716434,-0.47956687,-9.768682,0.38697606,2.2931516,-1.1339998,0.039718628,-0.22930908,-0.2830658
2019-07-01T19:48:19.348Z,0.26127237,0.9635024,-0.0350102,-0.39720154,-5.577667,-8.815155,17.878723,18.103027,34.118652,-1.0605559,-0.4226632,-9.739967,-0.51676226,-3.9115465,0.928442,-0.37017822,-0.25312805,-0.8072052
2019-07-01T19:48:19.549Z,0.26763555,0.96140176,-0.018319506,-1.5409851,-0.5742798,-8.73381,16.670227,18.247986,33.291626,-1.2496723,-0.02432288,-9.72667,-0.910123,-2.5581324,0.48526096,-0.060531616,0.050338745,-0.16859436
2019-07-01T19:48:19.750Z,0.2547925,0.9651885,-0.010464331,-1.6486511,3.225525,-6.467804,11.51123,17.823792,34.474182,-1.1532576,0.09253946,-9.738163,-1.1710755,1.4873306,2.144289,0.0019073486,0.45828247,0.07397461
2019-07-01T19:48:19.954Z,-0.27934065,-0.9573789,-0.014903961,9.930222,-1.8735809,-5.355133,-9.371948,22.573853,32.59735,1.4320878,-0.11416727,-9.70085,3.337649,0.653418,2.301093,0.54000854,3.2059784,0.29803467
2019-07-01T19:48:20.157Z,-0.27826965,-0.7824998,-0.09689151,16.986649,-4.0821533,0.47616577,-29.663086,26.661682,18.026733,8.947142,-1.5066617,-3.7214248,3.8686657,-1.8448184,2.0663905,0.15608215,5.0269775,0.4343872
2019-07-01T19:48:20.399Z,-0.32167536,-0.5611553,-0.19243672,13.112671,-3.0580292,3.4456635,-36.557007,17.20581,12.608337,9.336268,-2.5379508,1.6010276,7.1740274,-0.38289213,0.43313134,-1.3872681,1.662674,-0.24673462
2019-07-01T19:48:20.596Z,-0.3002636,-0.4922775,-0.43528876,6.6711884,1.5768738,3.2015991,-38.272095,-6.1157227,6.4956665,9.239041,0.13105284,3.2853186,-0.29934692,-0.50245374,0.16622877,-1.1041412,0.48883057,-2.7589874
2019-07-01T19:48:20.803Z,-0.21211292,-0.5195479,-0.64123607,4.62294,5.4723816,1.976471,-32.073975,-21.562195,11.401367,8.000647,4.3569717,3.6299922,-2.9568553,-0.11168051,0.110773325,-0.80792236,-0.87194824,-2.375122
2019-07-01T19:48:21.009Z,-0.22275527,-0.60079587,-0.68525267,3.9936218,5.81456,-2.3306122,-22.845459,-22.654724,24.47052,7.0733037,6.5622087,1.7539078,-1.4900198,-1.0574083,-0.8213109,0.6767273,-1.4021759,-0.68600464
2019-07-01T19:48:21.209Z,-0.2620968,-0.74308664,-0.5664313,6.8075867,3.4097748,-32.762527,-10.423279,-14.923096,36.70807,6.430318,7.0143523,-2.3707087,-1.9034381,-1.6609931,-5.1205835,1.6163635,-1.4220276,-0.10385132
2019-07-01T19:48:21.469Z,0.3872459,0.778322,0.49035275,2.5818634,-3.316452,-11.38266,1.8112183,-26.760864,32.28607,2.782083,7.954258,-5.015993,1.3095505,-1.8591156,-4.898522,2.0047607,-0.67103577,0.46652222
2019-07-01T19:48:21.664Z,-0.50510335,-0.81631535,-0.24263367,4.5966187,10.557129,-9.322433,1.1260986,-7.4295044,40.10315,4.646846,2.496757,-8.267009,0.9041662,0.5518205,2.7307234,1.7352448,-0.62667847,1.6446991
2019-07-01T19:48:21.870Z,-0.5867073,-0.7857443,-0.1781727,5.4795685,8.145172,-8.865402,7.293701,-0.7537842,40.455627,3.305581,1.8085065,-9.0538845,-0.3249836,8.372139,-1.9727116,0.28559875,-0.68678284,0.78637695
2019-07-01T19:48:22.068Z,-0.6771714,-0.724516,-0.08001348,0.5024872,-2.2468567,-5.0608215,12.6297,1.7959595,39.624023,2.4917476,-0.198657,-9.482727,1.8061199,1.0210372,2.889351,0.3191223,-1.2133636,0.95350647
2019-07-01T19:48:22.286Z,0.69235104,0.7195498,-0.0027808168,-4.0486603,-5.4317017,-8.111664,23.731995,-0.92315674,34.236145,-0.7964981,0.6908117,-9.749808,-3.1502237,-4.809183,3.208438,-0.30700684,-1.0567932,-0.9798279
2019-07-01T19:48:22.479Z,0.6433737,0.75783443,-0.10288532,-2.268402,-12.174683,-9.705292,27.622986,5.770874,31.512451,-1.8070953,-1.0972819,-9.576053,-1.7420214,-6.1493664,1.2917719,0.513443,-0.031448364,-0.6646881
2019-07-01T19:48:22.679Z,-0.6162104,-0.7629894,0.17551242,-1.4524384,-10.528427,-7.8891296,24.520874,14.349365,31.092834,-0.840253,-3.6610482,-9.058759,-0.8006584,-9.494501,-0.7452154,1.2160034,0.43206787,-0.49998474
2019-07-01T19:48:22.885Z,-0.617899,-0.75119525,0.16464525,1.8783722,-4.881363,-5.3886414,19.624329,18.255615,30.957031,0.4165526,-4.4097023,-8.749366,-0.0164904,-3.626772,2.3116121,-0.4608307,0.83439636,0.57232666
2019-07-01T19:48:23.080Z,-0.6887947,-0.70055974,0.055069603,2.5986023,4.051056,-8.324631,14.761353,10.96344,36.541748,1.7041689,-3.1636925,-9.12454,1.4602218,3.2569609,0.11762047,-0.5995636,1.0477142,0.13757324
2019-07-01T19:48:23.288Z,-0.67128384,-0.72177964,-0.07735757,3.328415,5.8983154,-11.102692,9.664917,4.3304443,39.40277,3.1385632,-0.8766352,-9.249395,0.17068624,6.700268,1.2444849,-0.85935974,0.47898865,-0.21307373
2019-07-01T19:48:23.492Z,-0.6217397,-0.76277983,-0.12439538,0.035888672,8.712265,-11.358734,7.348633,2.7877808,39.93988,3.4171278,0.31218162,-9.186739,-1.6379483,6.49888,-1.7928896,-0.3803711,-0.28153992,-0.93022156
2019-07-01T19:48:23.695Z,-0.52455366,-0.838068,-0.14132383,0.20578003,7.101898,-8.379669,12.001038,2.6687622,38.81836,2.2779799,1.807226,-9.365636,-1.9002085,6.214748,-1.2777824,0.07203674,-0.41433716,-0.6415863
2019-07-01T19:48:23.894Z,-0.49670517,-0.8628118,-0.090756744,1.076767,-1.9860382,-10.040283,14.720154,6.137085,37.902832,1.2996894,1.2966231,-9.633274,-0.65544116,2.0552344,1.239913,0.64863586,-0.18208313,-0.010391235
2019-07-01T19:48:24.088Z,-0.5593936,-0.82329607,-0.039084684,1.2418823,-1.7730865,-8.331802,14.035034,5.3710938,37.017822,1.8489627,-0.33380288,-9.624983,0.35304832,-2.5532985,-0.23466206,-0.07702637,0.13110352,1.0682831
2019-07-01T19:48:24.292Z,-0.6135705,-0.78596485,-0.045790825,0.7800598,-4.4362946,-9.456436,14.874268,8.129883,36.036682,1.4879323,-0.025500774,-9.69308,-0.8401995,-3.4643638,0.052559853,0.3807068,-0.18415833,-0.17984009
2019-07-01T19:48:24.498Z,-0.6172847,-0.78124285,0.012919537,0.41635132,-5.9318085,-8.472992,16.34674,12.156677,37.173462,1.2522953,-1.3110307,-9.6376,-0.050090075,-4.0004253,0.2860937,0.24893188,-0.12722778,0.106658936
2019-07-01T19:48:24.705Z,-0.6217432,-0.7750493,0.050377395,0.66041565,-6.2931213,-9.334396,15.737915,11.167908,37.072754,0.92063415,-1.9971412,-9.556895,-0.68773764,-4.806044,-0.5401821,0.36238098,-0.095947266,-0.28404236
2019-07-01T19:48:24.911Z,-0.63249934,-0.7651825,0.05080776,1.6319122,-6.850647,-9.705292,16.531372,7.4401855,35.751343,1.0040293,-2.1134381,-9.523429,0.4989084,-3.99275,0.14471436,-0.32221985,0.06744385,0.2581482
2019-07-01T19:48:25.114Z,-0.6622426,-0.7399468,0.044478778,0.32781982,0.023925781,-8.283951,17.414856,3.553772,36.813354,1.00777,-2.064508,-9.533761,0.20321536,-1.0004637,0.8063936,-0.3993683,0.011672974,0.18766785
2019-07-01T19:48:25.313Z,-0.671394,-0.7397478,-0.0078076464,0.70588684,3.1178436,-9.559326,14.996338,5.1345825,37.838745,0.74223924,-0.46706188,-9.76736,-0.5572427,2.3425663,0.19707394,-0.33261108,0.113204956,0.26805115
2019-07-01T19:48:25.519Z,-0.65299666,-0.7524519,-0.02707002,1.3591309,4.240082,-9.765106,13.278198,3.0319214,38.378906,1.5527735,-0.64716226,-9.661287,-0.641315,4.822597,-0.5748234,0.23188782,0.33403015,-0.26939392
2019-07-01T19:48:25.722Z,-0.6348782,-0.7661702,-0.05744128,1.9884338,2.9288177,-10.262817,12.759399,4.017639,38.372803,1.937313,-0.14946118,-9.612226,-0.23977017,3.5032878,-0.6958208,-0.17848206,0.2705536,0.059936523
2019-07-01T19:48:25.924Z,-0.6076315,-0.7855751,-0.07227291,1.4380798,3.3547363,-10.851456,11.494446,4.5150757,38.60321,2.2761848,0.019185344,-9.5388155,-0.18011808,3.0504544,-0.97113514,0.096710205,0.039718628,-0.24012756
2019-07-01T19:48:26.139Z,-0.5646735,-0.8174974,-0.06906686,2.2420807,5.333603,-8.293518,13.111877,2.722168,39.154053,2.205444,0.11238852,-9.554778,-0.3817413,4.522184,-0.60427284,-0.22198486,0.01864624,-0.20805359
2019-07-01T19:48:26.376Z,-0.60156566,-0.7907931,-0.067501865,2.045868,-2.5339966,-9.377472,10.914612,4.034424,39.20746,2.2016532,-0.022009194,-9.556287,-0.22125292,-2.190244,-0.60716724,0.070007324,0.054138184,0.43066406
2019-07-01T19:48:26.575Z,-0.63138485,-0.76493055,-0.07833281,2.3377838,-1.9190369,-8.300705,8.79364,3.3065796,39.52484,2.477685,-0.06922189,-9.488238,-0.15482593,-2.309752,0.5414667,0.19781494,0.13061523,0.14520264
2019-07-01T19:48:26.775Z,-0.63333005,-0.7621181,-0.044641834,2.1439667,-3.1465607,-9.401398,10.362244,7.8582764,39.631653,2.4497619,-0.9076742,-9.452257,-0.19378424,-2.1534488,0.3806162,0.4039154,-0.111831665,-0.16108704
2019-07-01T19:48:27.005Z,-0.6262801,-0.7699036,-0.020789271,1.454834,-1.2538452,-9.334396,11.022949,6.4453125,39.54315,2.0792859,-1.1697493,-9.512027,-0.68342495,-0.5066265,-0.004963875,-0.3005371,-0.24354553,-0.09803772
2019-07-01T19:48:27.185Z,-0.6159563,-0.7833616,-0.027980328,1.0648041,-0.7393799,-12.607788,13.082886,5.860901,38.435364,1.543861,-0.5182464,-9.6704855,-0.7801552,-0.17290676,-0.8651209,-0.19784546,-0.30639648,-0.3008423
2019-07-01T19:48:27.386Z,-0.602027,-0.7962582,-0.030178148,3.0771637,0.6269226,-7.7312164,13.179016,0.9170532,37.5,1.1565741,-0.13373667,-9.73729,1.2813014,0.47119024,-0.49454784,-0.38954163,-0.10481262,0.19792175
2019-07-01T19:48:27.606Z,-0.65479153,-0.7532308,-0.05497719,-1.0121613,0.6316986,-9.250656,15.727234,4.156494,36.317444,1.1415386,0.43362314,-9.730327,0.42804062,-0.62095296,1.3993073,0.1637268,-0.22497559,0.016067505
2019-07-01T19:48:27.797Z,-0.60182947,-0.7984078,-0.0149681065,1.4069824,-1.6031952,-6.4366913,19.226074,3.3752441,35.560608,0.3498121,0.103888154,-9.799859,-0.28386852,-0.51086867,1.1633444,-0.05319214,-0.30438232,-0.36346436
2019-07-01T19:48:28.001Z,0.6367114,0.770497,0.0065145832,-0.08375549,0.42352295,-11.58844,21.409607,-3.3935547,34.01947,-0.36959422,0.47109607,-9.788353,0.9708742,-1.183933,1.1604824,0.0011749268,-0.57066345,1.4929047
2019-07-01T19:48:28.206Z,0.85622346,0.5135111,0.017163025,2.835495,0.6460571,-12.693924,12.011719,-22.80426,31.584167,-0.253513,1.0761486,-9.744127,0.5984338,0.6681236,-2.1890936,-0.4815979,-0.33450317,4.6878204
2019-07-01T19:48:28.405Z,0.99645424,0.06797375,-0.035116,-1.8664093,-2.5076752,-7.3459625,3.8711548,-20.095825,35.33783,-0.7329677,0.6373253,-9.7584305,1.351645,-2.5268116,-0.36339474,1.161026,-0.7508087,3.6253357
2019-07-01T19:48:28.610Z,-0.990313,0.116961546,0.07457256,-0.72262573,7.4440765,-10.688736,1.7303467,-24.371338,32.365417,-1.4627984,0.0495458,-9.696812,1.2711074,2.2142537,-0.09262848,-0.6467743,0.03440857,0.2655487
2019-07-01T19:48:28.815Z,0.99632466,-0.012419081,-0.034225453,-2.4335022,5.87677,-8.839081,0.5874634,-28.076172,30.45044,-0.6499213,1.5234435,-9.66577,-1.3792746,3.9323902,-0.7388439,-0.2494049,0.3121643,-0.14239502
2019-07-01T19:48:29.015Z,0.9824145,-0.121158056,-0.059313692,-0.78245544,6.2883453,-8.819946,-1.095581,-29.716492,30.110168,-0.8361199,2.6283176,-9.410804,-1.0623732,3.793351,0.5477686,-0.36112976,-0.2979126,0.5686035