rotationVector_x,rotationVector_y,rotationVector_z,accelerometer_x,accelerometer_y,accelerometer_z,magneticField_x,magneticField_y,magneticField_z,gravity_x,gravity_y,gravity_z,linearAcceleration_x,linearAcceleration_y,linearAcceleration_z,gyroscope_x,gyroscope_y,gyroscope_z
0.0109041305,-0.012333475,0.993851,0.24047852,-0.21942139,9.805069,1.9073486,-15.45105,-37.98523,0.2390378,-0.21699542,9.801334,-0.0005053729,-0.0014295131,-0.00072193146,3.0517578e-05,1.5258789e-05,4.5776367e-05
0.010933093,-0.012370991,0.99384403,0.23904419,-0.21487427,9.804352,3.4439087,-15.351868,-37.727356,0.23969504,-0.21765083,9.801305,0.0014356971,-0.0014674515,0.002070427,-9.1552734e-05,1.5258789e-05,0.00010681152
0.010906765,-0.012313407,0.99385,0.237854,-0.21702576,9.8022,2.8762817,-15.463257,-37.72583,0.23904856,-0.21659593,9.801343,-0.0010190308,0.0024871677,-0.0008573532,-9.1552734e-05,0.0001373291,0.00010681152
0.010906733,-0.01233036,0.9938503,0.24119568,-0.21774292,9.806992,2.6931763,-15.986633,-37.52289,0.2390833,-0.21692751,9.801335,0.00014863908,-0.0005353689,0.00023269653,0.00015258789,-4.5776367e-05,0.00022888184
0.010905291,-0.012348921,0.99385095,0.23808289,-0.21774292,9.802673,2.2277832,-15.579224,-37.64801,0.23909324,-0.2172943,9.801327,0.00059580803,-0.0011000782,0.0012674332,-3.0517578e-05,0.00019836426,0.00016784668
0.010906251,-0.012350129,0.9938507,0.23857117,-0.21966553,9.805542,2.1484375,-15.510559,-37.857056,0.23911496,-0.21731535,9.801326,0.00033722818,0.000104531646,-0.0006008148,-9.1552734e-05,7.6293945e-05,0.000289917
0.010857915,-0.0123883085,0.99386394,0.23664856,-0.21870422,9.803162,2.909851,-14.883423,-36.854553,0.23822846,-0.2181921,9.801328,-0.0014170259,-0.0013989955,0.0013589859,-3.0517578e-05,-0.00010681152,0.000289917
0.010878259,-0.012368483,0.99385834,0.23664856,-0.21894836,9.8029175,2.5482178,-15.629578,-37.747192,0.23859377,-0.21774966,9.801329,0.0006181747,0.0012666434,0.0010757446,3.0517578e-05,1.5258789e-05,3.0517578e-05
0.0108868675,-0.012370809,0.99385613,0.24072266,-0.21655273,9.804352,2.9464722,-15.675354,-37.69684,0.2387707,-0.21777195,9.801324,-4.62085e-05,-0.00014619529,-7.343292e-05,0.00015258789,-4.5776367e-05,0.00035095215
0.010889914,-0.012364302,0.99385524,0.23736572,-0.21821594,9.8022,2.0309448,-16.392517,-37.805176,0.238818,-0.2176365,9.801326,0.00040109456,-4.3332577e-05,-0.00053215027,0.00015258789,7.6293945e-05,0.00010681152
0.010885305,-0.012354727,0.99385625,0.24119568,-0.2163086,9.805542,2.682495,-14.456177,-37.5885,0.23870592,-0.21746174,9.801333,-0.0001937449,-0.00022742152,-0.0008382797,3.0517578e-05,7.6293945e-05,-3.0517578e-05
0.010893946,-0.012337169,0.99385375,0.237854,-0.21870422,9.805313,2.7297974,-15.107727,-37.799072,0.23884194,-0.21709509,9.801336,0.0013167411,0.0003670305,0.0013427734,3.0517578e-05,9.1552734e-05,0.00010681152
0.0108883185,-0.012360414,0.9938556,0.23951721,-0.21702576,9.802444,2.8640747,-15.45105,-39.309692,0.238778,-0.21756479,9.801329,-0.0005298406,-0.00082342327,0.00025844574,3.0517578e-05,1.5258789e-05,0.00010681152
0.010883409,-0.012356701,0.9938568,0.23951721,-0.21678162,9.803635,2.8320312,-16.183472,-39.38141,0.23867211,-0.21750544,9.801332,6.839633e-05,0.0005339533,-0.0015773773,3.0517578e-05,0.0001373291,0.00047302246
0.010893624,-0.012331173,0.9938537,0.23832703,-0.21751404,9.802673,4.1488647,-15.283203,-40.534973,0.23882303,-0.21697876,9.801341,0.0006299764,0.00048437715,0.00037574768,3.0517578e-05,-4.5776367e-05,0.00010681152
0.010883793,-0.012332281,0.9938563,0.23880005,-0.21559143,9.806503,2.947998,-15.522766,-38.723755,0.23862883,-0.2170269,9.801344,0.00011949241,4.8175454e-05,-0.0010242462,-9.1552734e-05,0.00019836426,-9.1552734e-05
0.010887977,-0.012329016,0.9938551,0.23857117,-0.21774292,9.806503,2.1133423,-16.16211,-38.894653,0.23870565,-0.2169518,9.801344,0.00050629675,0.0004684925,0.0020227432,3.0517578e-05,0.0001373291,0.000289917
0.010871336,-0.012324813,0.9938594,0.237854,-0.21655273,9.802444,2.3162842,-15.048218,-39.5813,0.23836428,-0.21691447,9.801353,-0.00012220442,-0.00027810037,0.00071048737,-9.1552734e-05,7.6293945e-05,0.00022888184
0.010845021,-0.012320755,0.9938662,0.237854,-0.21655273,9.8029175,3.1860352,-15.657043,-38.380432,0.23782986,-0.21690597,9.801366,-0.001009807,0.0004194975,-0.0009689331,9.1552734e-05,1.5258789e-05,0.000289917
0.01085251,-0.012309535,0.9938641,0.2359314,-0.21463013,9.804108,3.3462524,-15.644836,-38.38501,0.23795612,-0.21666643,9.801368,0.0005519986,0.00017111003,-0.00080394745,3.0517578e-05,-0.00010681152,0.000289917
0.010823612,-0.012280834,0.99387115,0.23808289,-0.21798706,9.8022,3.022766,-15.667725,-38.37738,0.23731875,-0.21618302,9.801394,-0.0016851574,0.0013576299,-0.0006933212,-9.1552734e-05,0.0001373291,0.000289917
0.010837725,-0.012323519,0.9938682,0.24072266,-0.2172699,9.801483,1.3275146,-15.779114,-38.557434,0.23768981,-0.21697965,9.801368,0.000828743,-0.0016765296,-0.00014781952,3.0517578e-05,-0.00015258789,0.000289917
0.010879695,-0.012316188,0.9938571,0.2400055,-0.2163086,9.8029175,2.331543,-15.061951,-37.69684,0.23851335,-0.2167233,9.801353,0.0012154281,0.00068843365,-0.0016813278,-9.1552734e-05,-0.00015258789,0.00010681152
0.010939773,-0.0123311905,0.99384165,0.24095154,-0.21749878,9.800766,2.4795532,-15.344238,-37.835693,0.23974541,-0.21685459,9.801321,0.001661256,0.000102967024,-2.861023e-06,-3.0517578e-05,-0.00021362305,0.00010681152
0.010959839,-0.012346946,0.99383664,0.23976135,-0.2172699,9.807938,3.189087,-15.507507,-38.72986,0.24017939,-0.21710844,9.801305,3.130734e-05,-0.00036890805,-0.000787735,-3.0517578e-05,-0.00015258789,0.00016784668
0.010959892,-0.012353536,0.99383676,0.23904419,-0.21702576,9.8029175,1.9805908,-15.817261,-37.384033,0.24019419,-0.21723716,9.801301,-3.1784177e-05,3.235042e-05,0.003944397,-0.00015258789,-4.5776367e-05,0.00016784668
0.01092995,-0.0123560475,0.9938446,0.23664856,-0.21607971,9.799805,2.3635864,-14.332581,-37.625122,0.23960097,-0.21736711,9.801312,-0.0020399243,0.00014150143,-0.0018262863,-9.1552734e-05,-4.5776367e-05,0.00016784668
0.010890358,-0.012331064,0.9938546,0.23953247,-0.21679688,9.804596,2.4017334,-15.274048,-38.12256,0.23875752,-0.21698542,9.801342,-0.0011749566,0.0014187992,-0.0016956329,-9.1552734e-05,7.6293945e-05,0.00022888184
0.010904003,-0.012339225,0.9938511,0.23928833,-0.2141571,9.8029175,3.6224365,-14.976501,-37.582397,0.23904727,-0.2171082,9.801332,0.0006749779,-0.00037032366,0.0009431839,0.00015258789,1.5258789e-05,4.5776367e-05
0.010913598,-0.012286278,0.9938477,0.23904419,-0.21655273,9.805069,2.1636963,-15.144348,-38.01117,0.23912847,-0.21604708,9.801353,0.000107333064,-0.0004582107,0.0013179779,-3.0517578e-05,-0.00016784668,0.000289917
0.0108744735,-0.012327817,0.99385864,0.23927307,-0.21679688,9.804825,1.8997192,-15.596008,-38.316345,0.23843324,-0.21696474,9.80135,-0.0011133254,-0.0019419491,-0.00055885315,-0.00015258789,7.6293945e-05,0.00016784668
0.010891489,-0.012311812,0.9938539,0.23736572,-0.2172699,9.803879,5.053711,-15.242004,-38.072205,0.23873992,-0.21660593,9.801351,0.00096067786,0.0010696203,0.0012245178,9.1552734e-05,7.6293945e-05,0.00022888184
0.0108724525,-0.012330293,0.99385923,0.2400055,-0.2172699,9.805542,4.072571,-15.597534,-38.104248,0.23839803,-0.21701859,9.80135,-0.00060504675,-0.0011570752,2.002716e-05,-3.0517578e-05,1.5258789e-05,0.00016784668
0.010885414,-0.012316499,0.9938556,0.23808289,-0.21487427,9.804108,1.902771,-15.597534,-38.015747,0.23862828,-0.21671396,9.801351,0.0008083433,0.0007074326,0.0015993118,-3.0517578e-05,-4.5776367e-05,0.00010681152
0.010884058,-0.012298418,0.99385566,0.23857117,-0.21679688,9.803162,3.1295776,-15.306091,-37.02545,0.23856342,-0.21636407,9.801359,-0.00031031668,0.00083968043,-0.00051784515,-9.1552734e-05,1.5258789e-05,0.00010681152
0.010881196,-0.012310941,0.9938566,0.23808289,-0.21678162,9.803635,1.1657715,-15.939331,-37.82959,0.23853238,-0.21661666,9.801355,-2.3260713e-05,-0.0005968958,-0.0009870529,0.00015258789,-4.5776367e-05,0.00016784668
0.010886311,-0.012275978,0.9938547,0.23904419,-0.21464539,9.804596,2.5436401,-15.779114,-37.399292,0.23856165,-0.21591927,9.801371,-0.00053045154,0.00084763765,-0.0008201599,3.0517578e-05,1.5258789e-05,-1.5258789e-05
0.010867632,-0.012280829,0.99385965,0.23736572,-0.21702576,9.803879,2.9022217,-14.953613,-37.397766,0.23819846,-0.21606444,9.801375,-0.00017786026,4.1216612e-05,0.00088596344,3.0517578e-05,7.6293945e-05,0.000289917
0.010867391,-0.012274268,0.99385965,0.23832703,-0.21846008,9.804825,2.3849487,-15.562439,-38.48114,0.23817997,-0.21593681,9.801379,-0.00039730966,-7.8216195e-05,0.0007543564,3.0517578e-05,-0.00021362305,0.00022888184
0.010887224,-0.01234123,0.99385554,0.24072266,-0.21774292,9.801727,2.3452759,-14.772034,-37.487793,0.2387161,-0.21719263,9.801338,0.0002516955,-0.0021592528,0.00034999847,-3.0517578e-05,-0.00015258789,3.0517578e-05
0.010914988,-0.012349181,0.99384844,0.23760986,-0.21798706,9.800049,3.364563,-15.057373,-39.172363,0.23928759,-0.21727322,9.801322,0.00091920793,-0.00043079257,-0.0027990341,-3.0517578e-05,1.5258789e-05,3.0517578e-05
0.010877826,-0.012353722,0.9938582,0.23904419,-0.21534729,9.8022,2.1469116,-15.509033,-38.08441,0.23855431,-0.21746223,9.801336,-0.001216054,-1.1503696e-05,-0.0012254715,-3.0517578e-05,1.5258789e-05,0.00010681152
0.010898973,-0.012330748,0.9938523,0.23951721,-0.21989441,9.801483,2.4734497,-15.415955,-37.92572,0.23892903,-0.21695602,9.801338,0.00080895424,0.00091278553,-0.00034046173,0.00015258789,-0.0002746582,0.00010681152
0.010920751,-0.012382211,0.9938474,0.24047852,-0.2182312,9.801239,2.8305054,-16.409302,-38.29651,0.2394718,-0.21790354,9.801305,2.9981136e-05,-0.0019768178,-0.0006971359,-9.1552734e-05,7.6293945e-05,0.00022888184
0.010932841,-0.012379609,0.9938443,0.23904419,-0.21846008,9.8022,3.2562256,-15.94696,-37.84027,0.23970799,-0.21782,9.8013,0.00029151142,8.252263e-05,-0.0007791519,3.0517578e-05,-4.5776367e-05,-0.00015258789
0.010929237,-0.012407582,0.99384564,0.23904419,-0.21798706,9.802673,2.3208618,-15.202332,-38.33008,0.23969437,-0.21837667,9.801288,-0.0001925379,-0.0007865727,0.00075626373,-0.00015258789,-4.5776367e-05,0.00022888184
0.010895078,-0.012385534,0.9938542,0.23664856,-0.21774292,9.8029175,3.0288696,-15.594482,-38.061523,0.23896551,-0.21803771,9.801312,-0.0011343658,0.0010328144,0.00066661835,-3.0517578e-05,7.6293945e-05,-1.5258789e-05
0.010863839,-0.0123775285,0.9938623,0.24047852,-0.21583557,9.804352,2.3895264,-15.493774,-37.86316,0.23832439,-0.21796536,9.801331,-0.0012173504,5.558133e-06,0.0006055832,3.0517578e-05,-4.5776367e-05,-9.1552734e-05
0.010910249,-0.012332656,0.9938494,0.23857117,-0.21534729,9.805542,2.7297974,-15.107727,-37.799072,0.23915839,-0.21696292,9.801332,0.0017524511,0.00163728,0.00087833405,3.0517578e-05,-0.00010681152,0.00010681152
0.010921022,-0.012327871,0.9938465,0.2400055,-0.22181702,9.802673,1.4099121,-15.849304,-38.124084,0.23936372,-0.2168403,9.801331,-0.00037494302,0.00058190525,0.0012254715,9.1552734e-05,0.0001373291,4.5776367e-05
0.010891483,-0.01239395,0.9938553,0.23880005,-0.21368408,9.8029175,1.8829346,-16.035461,-38.102722,0.23891123,-0.21821195,9.801311,8.238852e-05,-0.0035588741,-0.0004682541,3.0517578e-05,1.5258789e-05,0.00010681152
0.010893648,-0.012297721,0.99385315,0.23857117,-0.21917725,9.803879,1.9897461,-15.370178,-38.728333,0.23875365,-0.21632461,9.801356,-8.970499e-06,0.0036519915,0.00047779083,9.1552734e-05,0.0002593994,-0.00015258789
0.01088181,-0.012358454,0.99385726,0.23976135,-0.21487427,9.8029175,2.772522,-16.056824,-37.390137,0.23864383,-0.217544,9.801332,0.00010986626,-0.0023081303,-0.00079250336,-9.1552734e-05,-0.00010681152,0.00016784668
0.010907936,-0.012305903,0.9938496,0.23857117,-0.21511841,9.803162,2.1728516,-14.99939,-37.75482,0.23905629,-0.21644607,9.801347,0.0006596446,0.0023300946,-4.7683716e-05,3.0517578e-05,1.5258789e-05,-9.1552734e-05
0.0108929,-0.012281904,0.9938531,0.23808289,-0.21679688,9.800278,3.4835815,-16.14685,-38.41858,0.23870566,-0.21601735,9.801364,-0.00018301606,0.00071395934,0.0002784729,-9.1552734e-05,0.00019836426,-0.00015258789
0.01086461,-0.0122971665,0.9938607,0.23760986,-0.2172699,9.806503,2.2155762,-15.7196045,-38.505554,0.23817214,-0.21639201,9.801369,-0.001064524,-0.00037831068,-0.0015621185,-3.0517578e-05,-4.5776367e-05,-0.00021362305
0.010875761,-0.012306231,0.993858,0.23951721,-0.2172699,9.801727,1.6311646,-16.271973,-38.14087,0.23841393,-0.21653922,9.80136,0.0005823523,-0.00044304132,0.0015106201,9.1552734e-05,7.6293945e-05,0.00010681152
0.010876175,-0.012312434,0.993858,0.23880005,-0.21870422,9.8022,2.3544312,-16.369629,-37.965393,0.23843515,-0.21665937,9.801356,0.0005661398,-0.00081568956,-0.00044631958,0.00015258789,1.5258789e-05,4.5776367e-05
0.01087323,-0.012344354,0.99385923,0.23880005,-0.21774292,9.804825,3.2470703,-16.0141,-38.61084,0.23844288,-0.21729141,9.801342,8.46684e-05,-0.0013730526,2.670288e-05,3.0517578e-05,-0.00010681152,0.000289917
0.010895312,-0.012360675,0.99385375,0.23880005,-0.21702576,9.802673,1.5045166,-15.553284,-37.913513,0.23891832,-0.21755104,9.801325,0.0005547106,-0.00015163422,2.3841858e-05,-0.00015258789,7.6293945e-05,0.00010681152
0.010891861,-0.012357122,0.9938546,0.24023438,-0.21534729,9.801239,2.7038574,-15.614319,-38.279724,0.23884195,-0.21749088,9.801329,-8.2179904e-05,0.0005017966,-0.0003080368,9.1552734e-05,1.5258789e-05,0.00039672852
0.010905198,-0.012321107,0.9938505,0.23976135,-0.21534729,9.801956,2.2964478,-15.943909,-37.1933,0.23903331,-0.21675073,9.80134,0.00045397878,0.0011864156,-0.0008392334,-9.1552734e-05,7.6293945e-05,0.00010681152
0.010915089,-0.012318131,0.9938479,0.23832703,-0.21798706,9.8033905,2.8747559,-15.385437,-38.24005,0.23922479,-0.21666583,9.801337,-0.00020937622,-8.970499e-05,0.0006303787,-9.1552734e-05,-4.5776367e-05,4.5776367e-05
0.010891659,-0.012338594,0.99385434,0.24095154,-0.21774292,9.799088,2.130127,-15.797424,-38.82141,0.23879921,-0.21712913,9.801337,-0.0007560551,-0.0005776584,0.000910759,0.00015258789,7.6293945e-05,0.00035095215
0.0109043345,-0.012330008,0.9938509,0.2349701,-0.2163086,9.801956,2.1102905,-16.159058,-39.271545,0.23903464,-0.21692708,9.801336,0.0009623617,-0.0003351122,-0.0025968552,0.00021362305,1.5258789e-05,0.00022888184
0.01085135,-0.012318865,0.99386454,0.23904419,-0.2163086,9.804596,2.380371,-15.635681,-38.345337,0.2379524,-0.21685198,9.801364,-0.0022580624,-0.00041045249,2.5749207e-05,-9.1552734e-05,1.5258789e-05,0.00035095215
0.010857198,-0.012299452,0.9938627,0.237854,-0.21966553,9.8029175,2.9464722,-15.59906,-38.13629,0.23802882,-0.21645668,9.801372,0.00051292777,0.0013650209,0.0017690659,-3.0517578e-05,7.6293945e-05,0.0004119873
0.010856263,-0.01236821,0.99386406,0.23976135,-0.21798706,9.804596,1.6433716,-15.979004,-38.15918,0.23815353,-0.21780357,9.801338,-0.00010731816,-0.0025455654,0.0005426407,-9.1552734e-05,-0.00021362305,0.00016784668
0.0108883465,-0.0123728085,0.9938558,0.23617554,-0.21751404,9.801483,3.2546997,-15.867615,-38.50403,0.23880441,-0.21780705,9.801322,0.00091153383,0.00033444166,0.0006933212,-9.1552734e-05,-0.00010681152,0.00022888184
0.010852821,-0.012356937,0.9938648,0.24024963,-0.21583557,9.8022,3.8467407,-14.866638,-40.515137,0.23806123,-0.21759243,9.801346,-0.0016723871,0.00059486926,-0.0011320114,0.0002746582,1.5258789e-05,0.00010681152
0.010901104,-0.012344268,0.99385196,0.2368927,-0.21702576,9.801727,2.1850586,-16.375732,-38.638306,0.23899984,-0.21721463,9.801331,0.0019408017,-0.00027564168,-0.00044727325,-9.1552734e-05,7.6293945e-05,-3.0517578e-05
0.010847666,-0.012318868,0.9938655,0.24072266,-0.21678162,9.801712,2.458191,-15.78064,-38.15155,0.23787883,-0.21686198,9.801367,-0.0019689351,0.0012901574,-0.0002965927,3.0517578e-05,7.6293945e-05,-1.5258789e-05
0.010888412,-0.012329168,0.99385506,0.23904419,-0.2172699,9.803635,2.2216797,-15.649414,-38.038635,0.23871465,-0.2169536,9.801344,0.0022130609,-0.00029464066,0.00012302399,-3.0517578e-05,7.6293945e-05,0.00010681152
0.0108987605,-0.012345795,0.9938526,0.23951721,-0.22038269,9.8033905,2.2872925,-15.858459,-38.764954,0.23895621,-0.21725081,9.8013315,0.00030902028,-0.0004711151,-7.8201294e-05,3.0517578e-05,-4.5776367e-05,0.00010681152
0.010897934,-0.012384035,0.99385345,0.23928833,-0.21583557,9.800522,3.1646729,-16.169739,-38.334656,0.23901948,-0.21800071,9.801312,0.00023038685,-0.00162974,0.0012178421,3.0517578e-05,7.6293945e-05,4.5776367e-05
0.010899714,-0.012361771,0.9938526,0.24072266,-0.2182312,9.805313,3.1692505,-16.020203,-38.531494,0.23900858,-0.21756059,9.801322,0.0002528876,0.000788182,-0.00094127655,-9.1552734e-05,-0.00010681152,0.00016784668
0.0109432675,-0.012376276,0.99384147,0.23783875,-0.21583557,9.802429,3.4179688,-15.859985,-38.208008,0.23990943,-0.2177267,9.801297,0.0012489706,1.7613173e-05,0.00081443787,-9.1552734e-05,7.6293945e-05,0.00010681152
0.0108998595,-0.012335723,0.99385214,0.23832703,-0.21463013,9.800049,1.6326904,-16.273499,-38.0661,0.23895714,-0.2170509,9.801335,-0.0013784468,0.0019607842,-0.00041294098,-0.00015258789,7.6293945e-05,4.5776367e-05
0.010891397,-0.012307552,0.9938539,0.23928833,-0.21749878,9.802444,3.427124,-15.716553,-38.02643,0.23872918,-0.2165229,9.8013525,-0.00042168796,0.0011933297,-0.00091552734,3.0517578e-05,1.5258789e-05,-9.1552734e-05
0.010886393,-0.01231252,0.9938553,0.23832703,-0.21559143,9.809143,2.6153564,-15.841675,-38.095093,0.23863955,-0.21663354,9.8013525,-0.00034220517,-0.00036527216,0.000834465,-3.0517578e-05,1.5258789e-05,0.00016784668
0.010889961,-0.012303625,0.9938542,0.2349701,-0.21798706,9.802444,2.1728516,-14.99939,-37.75482,0.23869228,-0.21644998,9.801354,0.00028063357,0.0006790459,0.0034265518,-3.0517578e-05,1.5258789e-05,0.0004119873
0.010827785,-0.012327691,0.99387085,0.23832703,-0.2182312,9.8033905,2.0446777,-16.02478,-38.259888,0.23749983,-0.21708794,9.80137,-0.0020952523,-0.0010941029,-0.0013895035,3.0517578e-05,-0.00010681152,0.00015258789
0.010830362,-0.012340454,0.9938704,0.23713684,-0.22013855,9.8033905,3.250122,-15.864563,-39.10675,0.23757794,-0.21733059,9.801363,-2.2411346e-05,-0.0006067604,3.0517578e-05,-3.0517578e-05,7.6293945e-05,-1.5258789e-05
0.010808648,-0.012382154,0.9938767,0.23808289,-0.21678162,9.802429,2.7038574,-15.768433,-37.55493,0.2372308,-0.21820432,9.801352,-0.00015462935,-0.0018784404,0.0004930496,3.0517578e-05,7.6293945e-05,0.00016784668
0.010826607,-0.012361132,0.9938717,0.23736572,-0.21655273,9.801712,2.7069092,-15.466309,-38.77716,0.23757128,-0.21746409,9.80136,-0.00021918118,3.772974e-05,-4.196167e-05,-3.0517578e-05,1.5258789e-05,0.00010681152
0.010855865,-0.012343147,0.99386376,0.23880005,-0.21606445,9.8022,2.4902344,-16.719055,-38.949585,0.23809329,-0.2173146,9.801351,0.0013927519,7.31647e-05,-0.00067710876,0.00033569336,-0.00010681152,0.00022888184
0.010869546,-0.012305189,0.9938596,0.23880005,-0.21511841,9.804352,2.8549194,-15.899658,-38.04016,0.23828755,-0.21653558,9.801363,2.3841858e-06,0.0007337034,0.00050258636,-3.0517578e-05,0.0001373291,0.00016784668
0.010870827,-0.0122829955,0.9938589,0.2368927,-0.21846008,9.804108,2.3910522,-15.5685425,-37.652588,0.23826686,-0.2160982,9.8013735,0.0004980564,0.0010116696,-0.00014591217,9.1552734e-05,7.6293945e-05,0.00016784668
0.010844739,-0.012328727,0.99386644,0.23904419,-0.2172699,9.8029175,3.1982422,-15.364075,-38.24768,0.23784085,-0.2170626,9.801362,-0.0005249232,-0.002069205,0.0011816025,-0.00015258789,1.5258789e-05,-9.1552734e-05
0.010867037,-0.01232845,0.9938606,0.24143982,-0.2182312,9.805313,3.0334473,-15.524292,-37.971497,0.23828593,-0.21699713,9.8013525,0.0009544194,0.00073222816,-0.00016498566,3.0517578e-05,1.5258789e-05,0.00022888184
0.010900422,-0.012371167,0.9938526,0.23832703,-0.21966553,9.803162,3.364563,-15.357971,-37.573242,0.23904237,-0.2177424,9.801318,0.0016150624,-0.0018637031,0.0013208389,-3.0517578e-05,0.0001373291,0.00016784668
0.010888595,-0.012387735,0.99385595,0.23736572,-0.21678162,9.802429,2.4719238,-15.412903,-38.302612,0.23884055,-0.21809824,9.801315,-9.700656e-05,-0.00031024218,-0.0007162094,-9.1552734e-05,-4.5776367e-05,0.000289917
0.010863812,-0.012372176,0.99386215,0.23808289,-0.21989441,9.802444,2.217102,-15.72113,-38.354492,0.23831268,-0.21786077,9.801332,-0.0012239367,0.0006348491,-0.0006380081,3.0517578e-05,-4.5776367e-05,0.000289917
0.010863383,-0.012396014,0.9938627,0.24023438,-0.21942139,9.802673,2.2155762,-15.872192,-37.480164,0.23835385,-0.21832804,9.801322,-7.779896e-05,-0.0010466576,0.00021648407,-9.1552734e-05,-4.5776367e-05,-1.5258789e-05
0.010873319,-0.012433769,0.99386066,0.23640442,-0.21917725,9.803879,2.7297974,-15.107727,-37.799072,0.23863119,-0.21903948,9.801299,0.0005982667,-0.0008148998,-0.0006456375,-3.0517578e-05,0.0001373291,0.00015258789
0.010861909,-0.012440426,0.99386376,0.24072266,-0.22013855,9.802444,2.7648926,-16.049194,-38.44452,0.23841698,-0.21920039,9.801301,-0.00037236512,-0.00018580258,-0.00043010712,-9.1552734e-05,-4.5776367e-05,3.0517578e-05
0.010885397,-0.012457453,0.9938579,0.23808289,-0.2163086,9.8022,2.1759033,-14.851379,-38.102722,0.23892204,-0.21947,9.801282,0.0012848079,-0.0003991127,-0.0009288788,-3.0517578e-05,-0.00015258789,0.00016784668
0.010892436,-0.012409972,0.9938553,0.24072266,-0.21870422,9.804108,2.836609,-16.186523,-38.92975,0.23896372,-0.21852268,9.801303,-0.00067925453,0.0022530258,0.0013027191,9.1552734e-05,-0.00010681152,0.00022888184
0.010909482,-0.012392781,0.9938506,0.23976135,-0.21607971,9.805313,2.6687622,-16.419983,-38.29193,0.23926859,-0.21814057,9.801304,0.00045120716,0.00043553114,-8.869171e-05,-3.0517578e-05,7.6293945e-05,0.00035095215
0.010915846,-0.012380092,0.9938487,0.237854,-0.21894836,9.803635,2.29187,-15.863037,-38.237,0.2393693,-0.21787533,9.801308,0.00033172965,0.00041618943,0.0015363693,-3.0517578e-05,-0.00010681152,0.00035095215
0.01090193,-0.012401993,0.9938527,0.23880005,-0.21942139,9.803162,2.697754,-15.991211,-36.920166,0.23913686,-0.21834108,9.801303,-0.00062279403,-0.00031101704,-0.00025177002,-3.0517578e-05,1.5258789e-05,0.000289917
0.0108933095,-0.012412957,0.9938551,0.23857117,-0.21942139,9.800995,2.9556274,-15.531921,-37.365723,0.2389874,-0.21857868,9.801301,-0.00046744943,-0.0007958561,-0.00048446655,3.0517578e-05,-0.00010681152,0.0004119873
0.010875961,-0.012419123,0.99385977,0.2368927,-0.21655273,9.802673,3.7368774,-15.908813,-38.53302,0.23865345,-0.21874599,9.801305,-0.0008367449,-0.00015293062,-0.001124382,-3.0517578e-05,1.5258789e-05,0.00035095215
0.010867522,-0.0123905605,0.9938615,0.2400055,-0.21846008,9.8022,3.0166626,-16.041565,-37.171936,0.23842521,-0.21821027,9.801323,-0.00060659647,0.001461044,-0.000104904175,-9.1552734e-05,7.6293945e-05,0.00016784668
0.010860734,-0.012387711,0.9938632,0.237854,-0.21607971,9.802673,3.6453247,-16.287231,-37.698364,0.23828356,-0.21817282,9.801327,0.00025485456,-0.00025726855,-0.00022983551,9.1552734e-05,1.5258789e-05,0.00010681152
0.010873976,-0.012367783,0.9938594,0.23904419,-0.2172699,9.8022,3.3432007,-15.643311,-38.763428,0.2385067,-0.21774752,9.8013315,3.5762787e-05,0.0012209862,-0.00030994415,-0.00021362305,-0.00021362305,0.0004119873
0.010889709,-0.012359688,0.9938552,0.24023438,-0.21702576,9.801956,2.6641846,-16.415405,-38.81836,0.23880428,-0.21754687,9.801329,0.00020992756,0.0007773191,0.00011444092,-3.0517578e-05,7.6293945e-05,-0.00015258789
0.010925461,-0.012349395,0.9938457,0.24023438,-0.21464539,9.803635,2.7252197,-15.255737,-37.678528,0.23954105,-0.21648291,9.801333,0.0014305562,0.0004889667,-0.0005559921,3.0517578e-05,-4.5776367e-05,0.00022888184
0.010931654,-0.012311061,0.99384344,0.23808289,-0.21655273,9.8033905,3.65448,-15.991211,-38.168335,0.23901273,-0.21622172,9.8013525,0.00018408895,0.001641348,0.0010643005,-3.0517578e-05,-4.5776367e-05,0.00010681152
0.010931213,-0.012321557,0.99384373,0.23713684,-0.21751404,9.804352,2.7832031,-15.682983,-38.220215,0.2395542,-0.21668933,9.801329,0.00089508295,-0.001027137,-0.0008134842,-3.0517578e-05,0.0001373291,0.00022888184
0.010886556,-0.012323258,0.9938554,0.23928833,-0.21534729,9.808182,3.3493042,-15.649414,-38.008118,0.23866521,-0.21684305,9.801347,-0.0013411194,-0.00038902462,0.0010509491,0.0001373291,4.5776367e-05,-6.1035156e-05
0.01088932,-0.012266627,0.99385375,0.24119568,-0.21751404,9.804825,2.5268555,-15.989685,-38.49945,0.23860224,-0.21572831,9.8013735,0.00012084842,0.0011677891,0.0029296875,0.0002593994,4.5776367e-05,6.1035156e-05
0.010931474,-0.012308561,0.99384344,0.23928833,-0.2182312,9.805069,2.4673462,-15.255737,-39.857483,0.23953226,-0.21643454,9.801335,0.0020518154,-0.001720205,0.00051498413,0.00019836426,-1.5258789e-05,0.00024414062
0.010928875,-0.012316294,0.9938443,0.23617554,-0.21798706,9.8022,3.1661987,-16.09497,-38.394165,0.23949648,-0.21659276,9.801333,-7.613003e-05,-0.0013067126,0.0009775162,0.0001373291,4.5776367e-05,4.5776367e-05
0.010861861,-0.012325949,0.9938619,0.23904419,-0.21942139,9.8029175,3.541565,-16.65039,-38.676453,0.23817727,-0.21696219,9.801356,-0.0027779937,-0.000971064,-0.003022194,-4.5776367e-05,4.5776367e-05,0.0
0.0108763855,-0.012368087,0.9938588,0.23904419,-0.21679688,9.8029175,3.6071777,-15.493774,-36.78131,0.23855548,-0.21774696,9.80133,0.0009109527,-0.0013839453,-0.0007429123,0.0001373291,-1.5258789e-05,-0.00024414062
0.010885823,-0.012358547,0.9938562,0.24095154,-0.21511841,9.803635,2.3376465,-15.06958,-36.791992,0.23872422,-0.21753502,9.801331,0.00026150048,-0.00015461445,0.000620842,-4.5776367e-05,4.5776367e-05,-0.00044250488
0.010911732,-0.012322849,0.99384886,0.23880005,-0.21966553,9.802444,3.0090332,-15.9591675,-38.43689,0.23916754,-0.21676715,9.801336,0.0015012324,0.001697585,-0.00038337708,7.6293945e-05,0.00016784668,-6.1035156e-05
0.010907747,-0.012345025,0.99385023,0.24095154,-0.21487427,9.804108,2.5299072,-15.995789,-37.820435,0.23913418,-0.2172115,9.801327,0.00033003092,-0.0012004524,-0.00010871887,-4.5776367e-05,-6.1035156e-05,-0.00012207031
0.01092857,-0.012309664,0.9938442,0.23928833,-0.21749878,9.803162,3.111267,-15.591431,-37.98828,0.23947653,-0.21646394,9.801336,0.00046539307,0.0016471297,0.0008869171,-4.5776367e-05,0.00010681152,-0.00012207031
0.010923653,-0.012337877,0.99384594,0.23928833,-0.21559143,9.804108,1.8356323,-15.388489,-37.51831,0.23943718,-0.21702884,9.801324,4.014373e-05,-0.00092206895,-0.001961708,-4.5776367e-05,4.5776367e-05,-0.00024414062
0.010927867,-0.012311466,0.99384445,0.237854,-0.21798706,9.803162,1.6525269,-15.835571,-37.9776,0.23946624,-0.21650107,9.801335,2.041459e-06,0.0011980236,0.0007696152,7.6293945e-05,-0.00012207031,-0.00012207031
0.010912246,-0.012315915,0.99384856,0.24119568,-0.21751404,9.801956,2.859497,-15.597534,-39.189148,0.23916335,-0.2166302,9.80134,-0.0008953959,-0.0010592192,0.0008354187,0.00019836426,-0.00012207031,6.1035156e-05
0.010945265,-0.012330639,0.9938402,0.237854,-0.21702576,9.803879,2.6885986,-15.829468,-38.926697,0.23985401,-0.21682896,9.801318,0.0010583103,-0.00087849796,-0.0016822815,-4.5776367e-05,0.00010681152,-0.00018310547
0.0108925775,-0.012337567,0.9938541,0.23928833,-0.21702576,9.803635,2.3910522,-15.419006,-38.15155,0.23881546,-0.21710661,9.801338,-0.0017055422,-0.00013881922,-0.00095939636,1.5258789e-05,-7.6293945e-05,6.1035156e-05
0.010909431,-0.012328298,0.9938495,0.23857117,-0.21487427,9.801483,3.1738281,-16.026306,-37.928772,0.23913294,-0.21687992,9.801335,0.00058971345,0.00036229193,0.000957489,1.5258789e-05,4.5776367e-05,-0.00032043457
0.010895209,-0.012302286,0.9938528,0.23808289,-0.21774292,9.803879,3.8238525,-15.837097,-37.84027,0.23879439,-0.21640965,9.801353,-0.0005094111,0.00085633993,0.00031089783,7.6293945e-05,0.00016784668,-0.0002593994
0.010878975,-0.012308086,0.99385715,0.23857117,-0.21487427,9.8029175,2.7191162,-15.325928,-38.07068,0.23848206,-0.21656685,9.801358,-0.00020936131,-0.00065369904,0.0010051727,-4.5776367e-05,0.00016784668,-0.00024414062
0.010869337,-0.012276185,0.9938592,0.23904419,-0.22013855,9.804108,2.0751953,-15.444946,-37.464905,0.23822287,-0.21596904,9.801377,0.00030755997,0.0011317283,-0.0010976791,0.0001373291,4.5776367e-05,-0.00050354004
0.0108828815,-0.012346927,0.9938568,0.23857117,-0.2182312,9.8029175,2.3468018,-14.620972,-38.13629,0.23864117,-0.21731573,9.801337,0.00035454333,-0.0032669455,0.0005502701,-4.5776367e-05,-1.5258789e-05,-0.00032043457
0.0108524095,-0.012367983,0.9938651,0.23713684,-0.2182312,9.799805,2.5650024,-16.477966,-41.166687,0.23807603,-0.21780951,9.80134,-0.00051498413,-0.00037704408,4.1007996e-05,-0.00010681152,4.5776367e-05,-0.00012207031
0.010845059,-0.012381191,0.9938672,0.2400055,-0.21679688,9.804352,3.364563,-15.129089,-38.81073,0.23795664,-0.21808757,9.801337,-0.00012664497,-0.00035052001,-0.0020475388,1.5258789e-05,4.5776367e-05,-0.00019836426
0.010883651,-0.012341959,0.9938565,0.23736572,-0.21606445,9.803162,1.4190674,-15.402222,-39.315796,0.23864618,-0.21721654,9.801339,0.0010825098,0.0014106929,0.00071048737,7.6293945e-05,-0.00012207031,-0.00018310547
0.010875316,-0.01232368,0.9938584,0.23736572,-0.21702576,9.8022,2.8793335,-15.313721,-38.224792,0.23844145,-0.21688159,9.801352,-0.00086960196,0.00036345422,0.00047588348,1.5258789e-05,-7.6293945e-05,-6.1035156e-05
0.010853175,-0.012334052,0.9938643,0.23641968,-0.21798706,9.801483,2.0523071,-15.727234,-38.87787,0.23802057,-0.21714401,9.801356,-0.00068308413,-0.00032898784,-0.0007915497,-0.00010681152,0.00010681152,-0.00019836426
0.010839968,-0.012332656,0.99386775,0.23951721,-0.21583557,9.802444,2.3666382,-15.852356,-38.842773,0.2377537,-0.21715228,9.801363,-0.0006364882,0.00014446676,-0.00068855286,1.5258789e-05,-1.5258789e-05,-0.00018310547
0.010863119,-0.012319249,0.9938615,0.23857117,-0.21534729,9.803635,3.125,-15.1474,-38.578796,0.23818842,-0.21682778,9.801358,0.00082422793,0.0007920414,0.0009775162,-4.5776367e-05,-1.5258789e-05,-0.00019836426
0.010869467,-0.012284667,0.99385923,0.23928833,-0.21751404,9.803635,2.2476196,-15.141296,-37.634277,0.23824316,-0.21613455,9.8013735,0.00051762164,0.0010517538,0.0006456375,0.00019836426,4.5776367e-05,-1.5258789e-05
0.010876336,-0.012311724,0.9938579,0.24072266,-0.2172699,9.8022,2.3223877,-15.206909,-38.104248,0.2384369,-0.21664506,9.801357,0.0005660653,-0.0015486926,0.00010967255,0.0001373291,0.00016784668,-0.00012207031
0.010911853,-0.012305384,0.9938485,0.24047852,-0.21463013,9.805786,2.0721436,-15.289307,-38.790894,0.23913349,-0.21642533,9.801345,0.0020273179,0.00039243698,-0.00057315826,-4.5776367e-05,4.5776367e-05,0.0
0.01092881,-0.012288035,0.9938438,0.237854,-0.2163086,9.801712,2.2369385,-15.206909,-38.705444,0.23891097,-0.21592255,9.801361,-0.0008716583,-0.00010250509,0.0009584427,7.6293945e-05,-0.00012207031,-0.00024414062
0.010894197,-0.012278054,0.9938527,0.23736572,-0.21583557,9.804596,3.1799316,-15.803528,-38.11035,0.23872356,-0.2159386,9.801366,-0.00068223476,-0.0003324151,-0.00015449524,7.6293945e-05,0.00010681152,6.1035156e-05
0.010849417,-0.012260008,0.99386406,0.237854,-0.21463013,9.8022,1.7990112,-14.445496,-37.24823,0.23779105,-0.21570641,9.801394,-0.0014245808,-8.0898404e-05,0.0010089874,1.5258789e-05,0.00010681152,-0.00024414062
0.010872915,-0.01224701,0.99385774,0.24023438,-0.21606445,9.8022,1.7791748,-14.656067,-38.49945,0.23823348,-0.21538897,9.80139,0.0010107309,0.001027599,-0.00076007843,-4.5776367e-05,-7.6293945e-05,-0.00024414062
0.010901194,-0.012269657,0.9938507,0.24191284,-0.21774292,9.801483,2.9022217,-14.953613,-37.397766,0.23884587,-0.21575555,9.801367,0.0013615638,-0.0010017157,-0.0014772415,-4.5776367e-05,-1.5258789e-05,0.0
0.010949048,-0.012308624,0.99383885,0.23857117,-0.21702576,9.801727,3.0899048,-16.1026,-37.789917,0.2398836,-0.2163883,9.801328,0.0017746687,-0.000858441,-0.00017642975,-4.5776367e-05,0.00010681152,0.0
0.010907338,-0.012316609,0.9938499,0.23568726,-0.21774292,9.8022,3.0288696,-15.52124,-38.34839,0.23906668,-0.216657,9.801341,-0.0010038316,-0.000121727586,-0.00043582916,-0.00016784668,0.00010681152,-0.00024414062
0.010843031,-0.012324593,0.9938668,0.23713684,-0.2163086,9.801956,2.8656006,-15.603638,-38.2843,0.2377981,-0.21698637,9.801365,-0.002134353,-0.00050620735,0.00033855438,1.5258789e-05,0.00010681152,-0.00012207031
0.010832556,-0.012331094,0.99386966,0.23880005,-0.21894836,9.8033905,2.8579712,-15.750122,-38.539124,0.23760226,-0.21714166,9.801366,-0.00024735928,-0.00011834502,-0.0010461807,1.5258789e-05,-1.5258789e-05,4.5776367e-05
0.010849176,-0.012361895,0.9938658,0.24023438,-0.21463013,9.803879,3.2028198,-15.292358,-38.23242,0.23799871,-0.2176992,9.801345,0.00076942146,-0.0012199581,0.0016927719,-4.5776367e-05,0.00010681152,-0.0002593994
0.010876687,-0.012311299,0.9938578,0.237854,-0.21655273,9.799332,3.199768,-15.365601,-38.172913,0.23844303,-0.21663582,9.801357,0.0015247613,0.002268821,0.00048351288,7.6293945e-05,0.00016784668,-0.0002593994
0.010853683,-0.012306267,0.99386376,0.23880005,-0.21894836,9.801956,2.1316528,-15.79895,-38.519287,0.23797277,-0.21659939,9.80137,-0.0008444935,-0.00066272914,-0.0023908615,7.6293945e-05,-1.5258789e-05,-0.00036621094
0.010873265,-0.012338758,0.9938592,0.23713684,-0.21559143,9.805313,1.81427,-15.673828,-38.48114,0.2384319,-0.21718192,9.801345,0.001072213,-0.0012662262,0.00031661987,7.6293945e-05,-7.6293945e-05,-6.1035156e-05
0.010847774,-0.012293168,0.9938651,0.23951721,-0.21607971,9.804825,3.050232,-15.158081,-37.74872,0.23782736,-0.21635918,9.801378,-0.0012206733,0.001523003,0.0024385452,7.6293945e-05,4.5776367e-05,-0.00018310547
0.010893044,-0.012283975,0.9938531,0.23641968,-0.21534729,9.804352,3.4942627,-14.407349,-36.78131,0.23871288,-0.21605746,9.801363,0.0017129928,-0.00020347536,0.00082683563,0.00032043457,0.00016784668,-0.00024414062
0.010838806,-0.012241765,0.99386656,0.23857117,-0.21391296,9.804108,1.6708374,-15.396118,-37.963867,0.23754093,-0.21537827,9.801408,-0.0016755462,0.00056385994,0.0011816025,-4.5776367e-05,0.00010681152,-0.00018310547
0.010841242,-0.012239263,0.9938659,0.23928833,-0.21846008,9.804581,2.583313,-14.674377,-38.53607,0.2375844,-0.2153228,9.801408,0.0011553317,-0.00021395087,-0.0005054474,0.0001373291,0.00036621094,-0.00044250488
0.010857983,-0.012263858,0.9938619,0.23928833,-0.2172699,9.803162,2.0065308,-15.003967,-38.50403,0.23797019,-0.21575858,9.801387,0.001245603,-0.0014455467,0.00093746185,7.6293945e-05,4.5776367e-05,0.0
0.0108676115,-0.012305396,0.99386007,0.23712158,-0.21846008,9.805313,3.6026,-15.339661,-37.882996,0.23824933,-0.21654484,9.801364,0.0012005717,-0.0013810396,-0.000497818,7.6293945e-05,4.5776367e-05,-0.00018310547
0.010833912,-0.012327248,0.99386925,0.2400055,-0.21559143,9.805069,2.4932861,-14.7491455,-39.22577,0.23762134,-0.21706282,9.801367,-0.0012799948,-0.0013396591,-0.000333786,-4.5776367e-05,0.00010681152,-0.00018310547
0.010873315,-0.012292665,0.9938584,0.23617554,-0.21559143,9.802673,2.1469116,-15.509033,-38.08441,0.23833676,-0.21628056,9.801368,0.0020694882,0.0017007589,0.00072956085,0.00019836426,0.00010681152,-0.00024414062
0.010824948,-0.012264513,0.99387056,0.23928833,-0.2182312,9.801956,2.8259277,-16.404724,-38.822937,0.23731142,-0.21586032,9.801402,-0.0019129217,-0.00016494095,-0.00095653534,1.5258789e-05,4.5776367e-05,-6.1035156e-05
0.010866106,-0.012309063,0.99386054,0.23928833,-0.21702576,9.804108,2.3788452,-15.788269,-37.771606,0.23822689,-0.21662061,9.801363,0.001963824,-0.0013267547,-0.0014314651,1.5258789e-05,0.00010681152,-0.00018310547
0.010864592,-0.012305401,0.99386084,0.237854,-0.2141571,9.801712,2.8640747,-15.756226,-37.78534,0.23818898,-0.21655308,9.801365,0.00080370903,-0.00019697845,0.0006227493,0.0001373291,0.00010681152,-0.00018310547
0.010834501,-0.012251669,0.9938679,0.23760986,-0.2172699,9.8022,1.8966675,-15.744019,-38.1958,0.23747554,-0.21558347,9.801404,-0.0001399666,-0.00046889484,-0.0006914139,0.0002593994,-1.5258789e-05,-0.00032043457
0.010857371,-0.01225754,0.993862,0.23880005,-0.21678162,9.805313,3.6026,-15.338135,-38.18512,0.23794481,-0.21563672,9.801392,0.0008340776,-0.00065271556,-0.0007791519,1.5258789e-05,-1.5258789e-05,-0.00012207031
0.010864963,-0.012279644,0.99386036,0.23928833,-0.2163086,9.804596,2.4917603,-15.203857,-37.052917,0.23814265,-0.21604845,9.801377,0.00038041174,-0.0011778176,0.0021848679,1.5258789e-05,4.5776367e-05,-0.00024414062
0.010894627,-0.012277276,0.99385256,0.237854,-0.21702576,9.8033905,2.9174805,-14.360046,-38.711548,0.23873053,-0.21592222,9.801366,0.00072036684,-9.75281e-05,0.0014686584,0.0001373291,-0.00030517578,0.0
0.010866161,-0.0122868065,0.9938602,0.23928833,-0.21870422,9.8033905,3.1585693,-14.570618,-37.63275,0.23818156,-0.21618527,9.8013735,-0.0015854537,-0.00054872036,-0.0011034012,-4.5776367e-05,0.00016784668,0.0
0.010881499,-0.012321834,0.9938567,0.23760986,-0.21559143,9.80101,1.512146,-15.484619,-37.22229,0.23856118,-0.21682882,9.80135,0.001151979,-0.001114443,-0.0004119873,7.6293945e-05,-0.00018310547,0.0
0.010863289,-0.012305684,0.9938612,0.23880005,-0.2172699,9.804108,2.381897,-15.562439,-38.557434,0.23816355,-0.21656212,9.801366,-0.001299724,0.0002797991,-0.0015439987,0.0001373291,4.5776367e-05,0.0
0.010893572,-0.0123273935,0.9938537,0.23760986,-0.22206116,9.804352,3.1936646,-15.588379,-37.763977,0.23881409,-0.21690498,9.801342,0.0011316985,-0.0015008599,0.0024662018,7.6293945e-05,0.00012207031,-0.00012207031
0.010847531,-0.012395356,0.9938668,0.23712158,-0.21798706,9.802444,2.7267456,-14.950562,-39.20288,0.23803557,-0.21835785,9.801329,-0.0009572655,-0.0029464513,-0.0013828278,1.5258789e-05,-7.6293945e-05,6.1035156e-05
0.010834165,-0.012381308,0.99387,0.23760986,-0.21583557,9.803879,3.0319214,-15.597534,-37.760925,0.2377391,-0.21811913,9.801341,-0.00089147687,0.0006464571,0.00019073486,0.0001373291,-1.5258789e-05,-0.00019836426
0.010844948,-0.012333372,0.99386644,0.23857117,-0.21678162,9.805542,2.7618408,-16.273499,-37.509155,0.23785472,-0.21715286,9.80136,0.00017212331,0.0011243224,0.00092601776,-4.5776367e-05,-0.00012207031,-0.00024414062
0.010871544,-0.0123321945,0.99385947,0.23832703,-0.21487427,9.806259,3.4240723,-15.864563,-37.452698,0.23838383,-0.21705824,9.80135,0.00035244226,0.00033470988,0.0006246567,-0.00010681152,4.5776367e-05,0.0
0.010865584,-0.012295602,0.9938604,0.2368927,-0.2182312,9.8029175,2.2399902,-15.286255,-37.815857,0.23818837,-0.21635881,9.80137,0.00028951466,0.0015553981,0.001206398,0.0001373291,0.00016784668,-0.00024414062
0.0108278245,-0.012303751,0.99387044,0.23928833,-0.21559143,9.801239,2.798462,-15.393066,-37.78534,0.23745072,-0.21661979,9.801382,-0.0011010617,-0.001059249,-0.00063705444,0.0001373291,4.5776367e-05,0.0
0.010849129,-0.0122837005,0.99386454,0.23808289,-0.21440125,9.806503,3.2531738,-15.867615,-38.578796,0.23783468,-0.2161704,9.801382,0.0009098649,0.00015641749,-0.0012254715,0.00019836426,4.5776367e-05,-0.00018310547
0.010864113,-0.012252745,0.9938601,0.23808289,-0.21559143,9.807465,2.6245117,-15.698242,-37.98828,0.23806955,-0.21552481,9.801391,0.00043092668,0.000958696,0.0012559891,7.6293945e-05,-7.6293945e-05,-0.00024414062
0.010860481,-0.012241478,0.9938609,0.23951721,-0.21798706,9.8033905,2.418518,-14.836121,-37.95929,0.23797347,-0.2153143,9.801398,-0.00045971572,5.3957105e-05,0.002108574,-4.5776367e-05,-0.00018310547,0.0
0.010913015,-0.012284333,0.99384785,0.23976135,-0.21487427,9.804596,1.4266968,-15.409851,-38.18512,0.23911275,-0.2160106,9.801354,0.0015284419,-0.0011857003,-0.0013036728,0.0001373291,-1.5258789e-05,-0.00018310547
0.010913789,-0.012267033,0.99384737,0.23808289,-0.21679688,9.800522,2.8625488,-15.602112,-38.661194,0.23909208,-0.21567027,9.801363,0.00011764467,0.00014975667,-0.00023365021,1.5258789e-05,4.5776367e-05,0.0
0.0108881965,-0.012285643,0.9938544,0.24047852,-0.21751404,9.804825,0.76904297,-15.670776,-38.43689,0.2386195,-0.21610317,9.801365,-0.0013031214,-0.0008779019,-0.0023813248,1.5258789e-05,-1.5258789e-05,-0.00032043457
0.010920102,-0.012311081,0.9938465,0.23664856,-0.2172699,9.80722,3.1799316,-15.803528,-38.108826,0.23931022,-0.21651448,9.801338,0.0018157661,-0.0009365082,0.0015926361,-4.5776367e-05,-1.5258789e-05,0.00012207031
0.010864812,-0.012297536,0.99386066,0.24143982,-0.21511841,9.801956,3.9169312,-15.614319,-37.495422,0.23817694,-0.21639867,9.801368,-0.0020791888,-8.3372e-05,0.0007429123,7.6293945e-05,0.00016784668,-7.6293945e-05
0.010915642,-0.012297346,0.99384737,0.2359314,-0.21702576,9.804825,2.7008057,-15.611267,-38.80768,0.23919243,-0.21625797,9.801348,0.0021822006,0.0004813373,-0.0011014938,-0.00010681152,-1.5258789e-05,-0.00032043457
0.010849246,-0.012298099,0.9938648,0.23640442,-0.21463013,9.804108,2.4856567,-15.196228,-37.88147,0.23786703,-0.2164516,9.801374,-0.002483189,0.00021085143,0.0008659363,7.6293945e-05,0.00010681152,-0.00032043457
0.010834826,-0.012277141,0.9938682,0.23881531,-0.21846008,9.8022,2.4719238,-15.412903,-38.302612,0.23753516,-0.21608065,9.801392,2.3007393e-05,-0.0008980781,-0.0013246536,-0.00016784668,-0.00012207031,-0.00024414062
0.010838865,-0.012332018,0.993868,0.23880005,-0.2163086,9.801483,2.56958,-16.864014,-38.29956,0.23773034,-0.21714278,9.801364,0.0005414337,-0.0017551333,0.0002374649,-4.5776367e-05,0.00016784668,-0.00024414062
0.010856529,-0.012306769,0.993863,0.23712158,-0.21583557,9.8022,3.237915,-16.233826,-38.578796,0.23803069,-0.21660154,9.801368,0.0007315576,0.0010444969,-0.0014410019,0.0001373291,-1.5258789e-05,-0.00044250488
0.0108449925,-0.012286174,0.99386567,0.23712158,-0.21679688,9.805069,1.8798828,-16.186523,-37.52899,0.23775718,-0.21622992,9.801383,4.9814582e-05,0.00019434094,-0.0004911423,0.0001373291,0.00010681152,-0.00012207031
0.01082102,-0.012302531,0.9938722,0.23736572,-0.21559143,9.8022,2.0019531,-15.153503,-38.156128,0.23731217,-0.21661422,9.801385,-0.00046260655,-0.00086042285,0.0009403229,-4.5776367e-05,0.00022888184,-0.00019836426
0.01081661,-0.012286609,0.99387306,0.23880005,-0.21870422,9.804825,2.6351929,-15.403748,-38.00659,0.23719084,-0.21631476,9.801394,0.00037802756,0.0007607192,-0.0001707077,7.6293945e-05,0.00016784668,-0.00012207031
0.010825693,-0.01230127,0.993871,0.237854,-0.21679688,9.802673,2.230835,-15.504456,-37.783813,0.23740295,-0.21657701,9.801384,0.0011050105,-0.0006352216,0.0017929077,0.0001373291,0.00022888184,-0.00012207031
0.010831166,-0.0122923,0.99386936,0.23857117,-0.21655273,9.804108,1.4755249,-16.059875,-38.545227,0.23749362,-0.2163869,9.801386,0.0007864237,-0.0003671795,-0.0013685226,-0.00010681152,-0.00012207031,0.0
0.010838184,-0.012310047,0.9938678,0.23641968,-0.21894836,9.802444,2.2644043,-14.624023,-38.36212,0.23767085,-0.216715,9.8013735,-0.000116467476,-0.0005043149,0.00068950653,1.5258789e-05,-1.5258789e-05,-0.00024414062
0.010815267,-0.012343831,0.9938744,0.2368927,-0.21487427,9.802673,0.9567261,-15.226746,-37.825012,0.23728327,-0.21743722,9.801368,-0.0006649196,-0.0012393296,-0.0020933151,7.6293945e-05,0.00010681152,0.0
0.01081095,-0.012285694,0.99387455,0.23832703,-0.21846008,9.802673,2.684021,-16.053772,-38.368225,0.2370758,-0.21631208,9.801397,2.117455e-05,0.0014741719,0.00083351135,0.0002593994,0.00010681152,0.0
0.010816665,-0.012321882,0.99387366,0.23736572,-0.21749878,9.805786,2.357483,-16.22467,-38.085938,0.23726548,-0.2170043,9.801378,0.00055105984,-0.0019098073,-0.0002527237,1.5258789e-05,4.5776367e-05,0.00018310547
0.0108303325,-0.012309864,0.9938699,0.23951721,-0.21679688,9.805786,1.864624,-16.400146,-38.328552,0.23751357,-0.21673255,9.801377,0.00050863624,0.00023518503,0.0019044876,0.0001373291,-7.6293945e-05,0.00024414062
0.010859817,-0.0123289395,0.9938625,0.23640442,-0.21846008,9.8029175,1.9317627,-14.936829,-38.259888,0.23814267,-0.21702617,9.801356,0.0008266717,-0.0013657063,0.0011053085,7.6293945e-05,-7.6293945e-05,-6.1035156e-05
0.010818797,-0.012337892,0.99387336,0.23832703,-0.2163086,9.800293,2.4719238,-15.489197,-37.864685,0.23734143,-0.21731159,9.801369,-0.0012258887,9.663403e-05,-0.0011739731,-0.00016784668,-1.5258789e-05,0.00022888184
0.0108561525,-0.012333516,0.9938635,0.23880005,-0.2182312,9.805069,2.3986816,-15.274048,-37.971497,0.23807897,-0.21712552,9.801355,0.0011680722,0.00061045587,-0.001572609,-4.5776367e-05,4.5776367e-05,0.0
0.010849469,-0.012361715,0.9938657,0.23832703,-0.21678162,9.800995,2.786255,-15.383911,-39.216614,0.23800418,-0.21769485,9.801344,0.00027655065,-0.00096702576,0.00038433075,7.6293945e-05,0.00010681152,6.1035156e-05
0.010846234,-0.012336457,0.99386615,0.23808289,-0.21559143,9.8022,3.4301758,-15.7196045,-37.498474,0.23788685,-0.21720973,9.801358,-7.0378184e-05,0.00046238303,-0.0007047653,0.0001373291,-7.6293945e-05,0.00012207031
0.010852618,-0.012316879,0.9938642,0.23760986,-0.21870422,9.803162,3.8619995,-15.036011,-37.452698,0.23797362,-0.21680973,9.801365,0.00032554567,0.0002823919,-0.00080013275,-4.5776367e-05,0.00016784668,-0.00012207031
0.0108466,-0.012317888,0.9938658,0.23617554,-0.21606445,9.804352,2.3849487,-15.562439,-38.557434,0.23785545,-0.21684568,9.801367,-0.0002824068,8.237362e-05,0.0007505417,7.6293945e-05,-0.00018310547,0.00018310547
0.010820602,-0.012319631,0.9938726,0.2400055,-0.21798706,9.805313,2.6275635,-15.701294,-37.460327,0.23733947,-0.2169497,9.801377,-0.001458332,-0.00027427077,0.0011444092,-4.5776367e-05,-1.5258789e-05,-0.00012207031
0.010874704,-0.012338272,0.99385875,0.23857117,-0.21534729,9.800995,2.6733398,-16.271973,-38.563538,0.2384597,-0.21716857,9.801346,0.0022006184,-0.00028871,0.0009174347,1.5258789e-05,0.0,6.1035156e-05
0.010866108,-0.012297319,0.99386036,0.2368927,-0.21392822,9.800278,2.9556274,-15.457153,-37.727356,0.23820244,-0.21639097,9.801369,-0.00038474798,0.0015496612,-0.0020961761,-0.00010681152,-1.5258789e-05,6.1035156e-05
0.010857021,-0.012265591,0.9938622,0.24095154,-0.21798706,9.801483,3.4469604,-15.126038,-38.58795,0.2379546,-0.21579506,9.801387,-0.0008325726,0.0014072359,-0.0017194748,0.00019836426,-1.5258789e-05,6.1035156e-05
0.010900191,-0.012299496,0.9938515,0.2359314,-0.21607971,9.8033905,3.2852173,-15.289307,-37.93335,0.23888811,-0.21634167,9.8013525,0.0015750229,-0.0013873279,-2.7656555e-05,-4.5776367e-05,-7.6293945e-05,-0.00012207031
0.010855246,-0.012303191,0.9938633,0.23976135,-0.21846008,9.805542,3.2592773,-15.873718,-37.825012,0.23799758,-0.21653502,9.80137,-0.0016003996,-0.00047026575,0.000620842,1.5258789e-05,4.5776367e-05,-0.00012207031
0.0108853,-0.012325009,0.9938558,0.23928833,-0.21679688,9.802429,1.6601562,-15.614319,-38.008118,0.23864378,-0.21688066,9.801347,0.001533255,-0.001054272,0.0028009415,1.5258789e-05,-1.5258789e-05,-6.1035156e-05
0.0108777145,-0.012316994,0.9938576,0.23736572,-0.2172699,9.8033905,3.1265259,-15.150452,-38.201904,0.23847543,-0.2167444,9.801353,-0.00043348968,0.00047302246,-0.0013246536,1.5258789e-05,4.5776367e-05,0.0
0.010862892,-0.012326273,0.9938617,0.23808289,-0.2172699,9.805542,2.7053833,-15.617371,-38.130188,0.23819853,-0.21696573,9.801355,-0.00038450956,-0.0007407814,-8.2969666e-05,0.00019836426,-1.5258789e-05,-0.00012207031
0.010869661,-0.012313435,0.99385965,0.23808289,-0.2172699,9.804825,2.2094727,-15.866089,-38.38501,0.23830706,-0.2166965,9.801359,-4.2542815e-05,-4.3526292e-05,0.0018558502,-4.5776367e-05,-1.5258789e-05,0.0
0.010866778,-0.01234105,0.9938609,0.23928833,-0.21917725,9.802673,2.3651123,-15.927124,-38.554382,0.23830704,-0.21724421,9.801347,-4.6223402e-05,-0.0011555105,0.00028133392,1.5258789e-05,4.5776367e-05,6.1035156e-05
0.010882961,-0.012337967,0.9938566,0.23880005,-0.21606445,9.804123,3.6849976,-15.335083,-37.95929,0.23881415,-0.21699479,9.801341,-7.7188015e-05,2.6375055e-05,-0.00029563904,7.6293945e-05,-0.00024414062,0.00035095215
0.010893102,-0.012331921,0.99385387,0.23951721,-0.21534729,9.804108,2.8747559,-15.309143,-38.978577,0.23904784,-0.21729203,9.801329,0.00041034818,-0.00039723516,-0.00035762787,7.6293945e-05,-7.6293945e-05,6.1035156e-05
0.010929192,-0.012312786,0.9938441,0.23904419,-0.21559143,9.803162,2.7572632,-16.192627,-38.700867,0.23949547,-0.21652327,9.801333,-4.2036176e-05,0.0012336373,0.0004081726,-4.5776367e-05,-0.00018310547,0.00012207031
0.0109292865,-0.012307755,0.993844,0.23880005,-0.21917725,9.805069,2.5772095,-14.820862,-38.490295,0.23948684,-0.21642466,9.801336,-0.00049585104,0.00063715875,-0.0008401871,-4.5776367e-05,4.5776367e-05,-6.1035156e-05
0.01090037,-0.012320204,0.9938518,0.23951721,-0.21607971,9.801727,2.394104,-15.419006,-38.15155,0.23893495,-0.21674609,9.801343,-0.0006697327,-0.0007118881,0.00071811676,-0.00010681152,4.5776367e-05,0.0
0.010912295,-0.01234542,0.99384904,0.23760986,-0.21798706,9.8022,3.2531738,-16.020203,-37.85553,0.23922594,-0.21720697,9.801326,0.0007177144,-0.00049363077,-0.0012788773,-4.5776367e-05,-7.6293945e-05,0.00024414062
0.010894319,-0.012339202,0.9938536,0.24095154,-0.21774292,9.802444,3.5430908,-14.907837,-37.86621,0.23885363,-0.21713383,9.801335,-0.0010354221,0.0003695041,-0.00084877014,0.00019836426,-1.5258789e-05,0.0
0.010913373,-0.012347229,0.9938488,0.23545837,-0.2172699,9.802673,2.3635864,-16.152954,-37.542725,0.23925127,-0.21723944,9.801325,0.0009535998,-0.0014379919,-0.00057697296,0.0002593994,0.00016784668,0.0
0.01084524,-0.012324868,0.99386626,0.2400055,-0.21751404,9.803635,2.2506714,-15.066528,-37.695312,0.23784281,-0.2169858,9.801364,-0.0024122596,-1.45584345e-05,-6.580353e-05,1.5258789e-05,4.5776367e-05,-0.00012207031
0.010877665,-0.012323868,0.99385774,0.23976135,-0.21774292,9.8029175,2.7297974,-15.182495,-37.512207,0.2384888,-0.21687894,9.801351,0.0014792532,-0.00011278689,0.0007457733,0.0001373291,4.5776367e-05,0.0
0.010885241,-0.0123422565,0.9938561,0.23832703,-0.21798706,9.803146,3.4423828,-15.274048,-38.54065,0.23867859,-0.21721804,9.801338,0.0010407567,-0.0009749234,0.0003271103,-4.5776367e-05,4.5776367e-05,6.1035156e-05
0.010876772,-0.012363846,0.99385864,0.23736572,-0.21751404,9.8029175,3.2226562,-14.778137,-38.658142,0.23855436,-0.217663,9.8013315,-0.000283733,-0.0007456094,0.0011758804,-4.5776367e-05,0.00022888184,-0.00024414062
0.010844581,-0.012338523,0.9938666,0.23713684,-0.21463013,9.804108,2.6916504,-15.83252,-38.549805,0.2378581,-0.21725455,9.801357,-0.0010151714,0.00074727833,-0.0004911423,0.0001373291,-0.00012207031,-7.6293945e-05
0.010853144,-0.012297718,0.99386376,0.23783875,-0.21655273,9.804596,3.3447266,-15.797424,-37.51068,0.23794417,-0.21643367,9.8013735,-0.00013363361,0.0011259168,-0.0004911423,7.6293945e-05,4.5776367e-05,6.1035156e-05
0.010839766,-0.012291605,0.9938671,0.23832703,-0.21678162,9.805069,3.4576416,-14.906311,-38.5437,0.23766404,-0.21635015,9.801382,-0.0001129359,-0.00014910102,0.0012636185,0.0001373291,-1.5258789e-05,0.0
0.010858563,-0.012287179,0.99386215,0.24047852,-0.21751404,9.803635,3.2058716,-15.371704,-37.268066,0.23803046,-0.21621302,9.801376,0.0007003099,-3.2633543e-05,0.0008401871,1.5258789e-05,4.5776367e-05,-6.1035156e-05
0.010895428,-0.012328659,0.9938532,0.2368927,-0.21894836,9.804825,1.9699097,-15.885925,-38.002014,0.23885381,-0.21692473,9.80134,0.0015629828,-0.0014792979,-0.00071144104,1.5258789e-05,-7.6293945e-05,0.00012207031
0.010855782,-0.012351396,0.99386394,0.2400055,-0.21774292,9.805069,2.4902344,-15.19928,-37.278748,0.23810884,-0.21747611,9.801347,-0.0015294254,-0.0014090985,0.0006322861,1.5258789e-05,0.00010681152,0.00012207031
0.010866309,-0.012355216,0.99386126,0.23760986,-0.21751404,9.8033905,1.3534546,-15.345764,-37.716675,0.23832723,-0.21752247,9.801341,0.00088460743,9.350479e-05,0.000582695,-0.00016784668,-7.6293945e-05,4.5776367e-05
0.010883923,-0.012367749,0.99385685,0.24119568,-0.21487427,9.800995,2.6474,-15.034485,-38.61084,0.23870541,-0.21772003,9.801326,-0.00020200014,0.00026778877,-0.00071811676,7.6293945e-05,-0.00018310547,-6.1035156e-05
0.01092522,-0.012303124,0.993845,0.23832703,-0.2172699,9.804108,1.9699097,-15.655518,-39.390564,0.23939592,-0.21634509,9.80134,0.0012765825,0.0024774522,-0.0014371872,-4.5776367e-05,0.00016784668,-0.0002593994
0.010900268,-0.012337638,0.9938521,0.23880005,-0.21678162,9.8033905,1.9683838,-15.808105,-38.66577,0.23896931,-0.21708724,9.801334,-0.0004503429,-0.0013254434,0.00015926361,-4.5776367e-05,-0.00012207031,0.0
0.010914601,-0.012328564,0.9938482,0.23857117,-0.21583557,9.803635,2.0004272,-15.380859,-37.145996,0.23923683,-0.21687117,9.801332,0.00023072958,0.00060757995,-0.00020503998,7.6293945e-05,0.00010681152,-6.1035156e-05
0.010878296,-0.012303856,0.99385726,0.23880005,-0.21846008,9.803635,3.5491943,-16.584778,-37.756348,0.23845963,-0.21648595,9.80136,-0.0011450499,0.00046791136,0.00017261505,-4.5776367e-05,0.00016784668,-6.1035156e-05
0.010873864,-0.012330766,0.9938589,0.23713684,-0.2172699,9.8029175,3.2608032,-15.722656,-38.549805,0.23842722,-0.21702403,9.801349,0.0005660504,-0.00091670454,-5.1498413e-05,7.6293945e-05,0.00010681152,-0.00012207031
0.010852777,-0.012330827,0.99386436,0.23904419,-0.21774292,9.804596,2.206421,-16.015625,-38.03711,0.2380059,-0.21708204,9.801358,-0.0006827563,-0.0008662045,-0.00068187714,0.0002593994,-7.6293945e-05,0.00012207031
0.010877482,-0.012318849,0.99385774,0.2368927,-0.21702576,9.8029175,2.9541016,-15.455627,-37.878418,0.23847465,-0.21678127,9.8013525,0.00050884485,-0.00018931925,0.0014657974,1.5258789e-05,-0.00018310547,-6.1035156e-05
0.01085474,-0.012322193,0.9938637,0.23857117,-0.21679688,9.8029175,2.6062012,-16.13617,-37.776184,0.23802711,-0.21690792,9.801361,-0.0011930168,-0.00030855834,-0.00014019012,1.5258789e-05,4.5776367e-05,-6.1035156e-05
0.0108611565,-0.01231544,0.9938619,0.23713684,-0.21798706,9.804352,2.4536133,-15.92865,-37.652588,0.23814125,-0.2167586,9.801361,0.00038203597,0.00049357116,-0.0008869171,1.5258789e-05,-1.5258789e-05,0.00012207031
0.010825338,-0.012341636,0.9938717,0.23760986,-0.21679688,9.804596,2.1362305,-15.803528,-37.991333,0.23748,-0.21736722,9.801365,-0.0013603717,-0.0012858212,0.0006799698,7.6293945e-05,-0.00012207031,0.0
0.010851834,-0.012321343,0.9938645,0.23857117,-0.21870422,9.802673,2.0629883,-15.583801,-38.397217,0.23796727,-0.21689913,9.801363,5.4121017e-05,0.00040245056,0.00045681,7.6293945e-05,-7.6293945e-05,6.1035156e-05
0.010866565,-0.012356872,0.9938612,0.23857117,-0.21702576,9.804825,3.1158447,-15.44342,-38.11035,0.2383358,-0.21755415,9.80134,0.00090025365,-0.0013464838,-0.0008163452,0.00019836426,0.00010681152,0.00012207031
0.010860338,-0.012308666,0.99386203,0.23736572,-0.21678162,9.801956,3.3218384,-16.308594,-37.612915,0.23811077,-0.21662834,9.801365,0.000592947,0.00040741265,0.002606392,1.5258789e-05,-7.6293945e-05,-0.00024414062
0.01086204,-0.012297686,0.99386144,0.2400055,-0.21655273,9.80603,2.2781372,-16.15448,-38.36975,0.23812188,-0.21640909,9.80137,-0.0003387481,0.00040902197,-0.0020856857,-4.5776367e-05,0.00010681152,-0.00024414062
0.010883363,-0.012312128,0.9938561,0.23951721,-0.21655273,9.805542,2.9708862,-16.76178,-38.824463,0.23857817,-0.21663402,9.801353,0.0010975897,-0.0005581528,0.0011606216,0.00019836426,4.5776367e-05,-6.1035156e-05
0.010887772,-0.012300408,0.99385476,0.23880005,-0.21749878,9.804596,1.876831,-14.512634,-37.113953,0.23864181,-0.216393,9.801357,0.0007802397,-7.3462725e-05,0.0007648468,1.5258789e-05,0.00010681152,-0.00018310547
0.010886314,-0.012300589,0.9938551,0.23832703,-0.2172699,9.803879,3.5888672,-15.705872,-38.031006,0.23861308,-0.21640046,9.801358,9.915233e-05,-0.0003015101,-0.0006132126,7.6293945e-05,-1.5258789e-05,6.1035156e-05
0.010882658,-0.012329222,0.99385655,0.24263,-0.21966553,9.804108,1.8295288,-15.460205,-37.608337,0.23859976,-0.21697015,9.801346,-0.00010788441,-0.0011889637,-0.0007238388,7.6293945e-05,-1.5258789e-05,-0.00012207031
0.010945966,-0.012369453,0.99384063,0.24143982,-0.21894836,9.806274,2.6062012,-16.062927,-38.21411,0.2399491,-0.217586,9.801299,0.002851963,-0.0015249699,-0.0006494522,1.5258789e-05,0.00010681152,-0.00018310547
0.010956176,-0.012386972,0.99383825,0.23664856,-0.21559143,9.803879,2.746582,-16.487122,-38.23242,0.24018979,-0.21790096,9.801287,0.000916034,-0.00096587837,0.0013208389,0.0001373291,0.00016784668,-0.00024414062
0.010900795,-0.012321845,0.99385166,0.23951721,-0.2172699,9.80603,2.0202637,-16.534424,-38.513184,0.23894686,-0.216777,9.801341,-0.0021278113,0.0017254204,-0.0012016296,1.5258789e-05,0.00010681152,-0.00012207031
0.010884045,-0.01233641,0.9938563,0.23713684,-0.21702576,9.803146,2.2857666,-16.085815,-37.828064,0.23864248,-0.21710697,9.801342,6.067753e-05,-0.000791952,0.0018987656,-4.5776367e-05,0.00010681152,-0.00050354004
0.010858985,-0.012336774,0.99386287,0.24143982,-0.21966553,9.806274,2.5360107,-15.77301,-38.30414,0.23814237,-0.2171816,9.8013525,-0.00062491,0.00024010241,-0.000330925,0.0001373291,0.00010681152,-0.00018310547
0.010906064,-0.012370773,0.9938511,0.23880005,-0.21751404,9.802673,2.2888184,-15.707397,-39.639282,0.2391543,-0.21771947,9.801315,0.002190277,-0.0023323745,9.441376e-05,0.0002593994,-1.5258789e-05,-6.1035156e-05
0.01090238,-0.01236188,0.9938519,0.23976135,-0.2182312,9.802673,3.1936646,-15.512085,-38.050842,0.23906209,-0.21755554,9.801321,-0.0003209561,9.511411e-05,-0.0029706955,1.5258789e-05,0.00010681152,-0.00018310547
0.010891865,-0.012353567,0.9938545,0.23976135,-0.21702576,9.805557,2.8656006,-15.602112,-38.435364,0.23883459,-0.21742135,9.80133,0.00015746057,0.0001989156,-0.00055217743,1.5258789e-05,4.5776367e-05,-0.00024414062
0.0109165525,-0.01233517,0.9938478,0.24095154,-0.21559143,9.8029175,2.331543,-14.985657,-38.134766,0.2392896,-0.21699505,9.801328,0.0008735806,0.000506863,0.0015420914,1.5258789e-05,4.5776367e-05,-0.00018310547
0.010928064,-0.012338936,0.9938448,0.23736572,-0.21846008,9.801483,3.1692505,-16.020203,-38.531494,0.23952754,-0.21703763,9.801321,0.00087863207,7.7441335e-05,6.9618225e-05,-4.5776367e-05,0.00010681152,-6.1035156e-05
0.010895816,-0.012353578,0.9938535,0.23880005,-0.21870422,9.805069,2.1469116,-15.660095,-37.35962,0.23891358,-0.2174109,9.801329,-0.0008780956,-0.0010060519,-0.0020341873,0.0001373291,4.5776367e-05,-6.1035156e-05
0.0108817965,-0.012359425,0.99385726,0.23712158,-0.21870422,9.803162,3.9291382,-15.473938,-36.78894,0.23864557,-0.21756303,9.8013315,-0.00036881864,-0.0006223172,0.0002374649,1.5258789e-05,0.00010681152,-0.00018310547
0.01084701,-0.012376228,0.9938666,0.23857117,-0.22085571,9.802444,2.1835327,-15.238953,-35.08606,0.23798528,-0.21798526,9.801338,-0.0009136945,-0.00067317486,-6.67572e-06,-4.5776367e-05,0.00010681152,-0.00024414062
0.010852611,-0.012423441,0.9938659,0.23641968,-0.21678162,9.803162,3.0197144,-15.740967,-38.31787,0.23819569,-0.21889332,9.801313,0.00032679737,-0.0016735047,-0.00015544891,-0.00010681152,-1.5258789e-05,-0.00018310547
0.010814054,-0.012391883,0.99387544,0.23736572,-0.21749878,9.804352,1.9393921,-16.616821,-37.92267,0.2373591,-0.21837999,9.801344,-0.0012455136,0.0011671036,0.0011663437,0.0002593994,4.5776367e-05,0.0
0.01081377,-0.012363186,0.9938751,0.23617554,-0.221344,9.80603,2.128601,-15.948486,-38.020325,0.23729365,-0.21781966,9.801358,2.0235777e-05,0.00036849082,-0.00082683563,-4.5776367e-05,4.5776367e-05,0.0
0.010799684,-0.012422524,0.99387974,0.23760986,-0.21917725,9.805313,2.4536133,-15.852356,-38.090515,0.23713568,-0.21901774,9.801336,-8.882582e-05,-0.002257228,0.0018491745,7.6293945e-05,-7.6293945e-05,-0.00012207031
0.010804133,-0.0124035,0.99387825,0.24047852,-0.21749878,9.8033905,2.3605347,-16.151428,-37.99591,0.23718499,-0.21863382,9.801343,-0.0003682226,0.00047262013,0.00011539459,1.5258789e-05,-1.5258789e-05,-0.00019836426
0.010886202,-0.012384166,0.9938565,0.23904419,-0.21774292,9.80603,2.4719238,-15.414429,-38.00049,0.23878525,-0.21803491,9.801318,0.00042001903,0.0010849983,-0.00084877014,0.0001373291,4.5776367e-05,-0.0001373291
0.010903823,-0.012371062,0.9938517,0.23736572,-0.2163086,9.804352,2.697754,-15.760803,-38.459778,0.23911014,-0.2177312,9.801317,0.0010439008,6.142259e-05,-0.00025844574,0.00019836426,0.00010681152,0.00012207031
0.010856546,-0.01231409,0.9938631,0.2368927,-0.2172699,9.803635,2.3040771,-15.644836,-37.890625,0.23804632,-0.21674463,9.801365,-0.0017055869,0.0009809583,-2.002716e-05,0.00019836426,4.5776367e-05,0.0
0.010837057,-0.012318766,0.9938683,0.24023438,-0.21678162,9.803879,2.2201538,-15.800476,-37.5412,0.23766653,-0.21688852,9.801371,-0.00059862435,-0.000791505,-0.00082206726,7.6293945e-05,0.0,0.00024414062
0.010893908,-0.012318461,0.99385345,0.24119568,-0.2172699,9.803635,3.2714844,-15.579224,-37.91809,0.23880213,-0.21672942,9.801346,0.0018399209,2.0951033e-05,0.0008878708,-4.5776367e-05,4.5776367e-05,0.00012207031
0.010924028,-0.012342922,0.99384594,0.24023438,-0.2182312,9.804108,1.9882202,-15.52124,-37.852478,0.23945522,-0.21712647,9.801322,0.0016828179,-0.00056418777,-0.001953125,0.0001373291,-0.00018310547,0.00012207031
0.010927441,-0.012339536,0.993845,0.23760986,-0.21487427,9.8029175,3.1646729,-14.424133,-37.52594,0.23951633,-0.21705104,9.801321,-0.00030089915,-0.0001527965,0.001253128,7.6293945e-05,0.00016784668,-6.1035156e-05
0.010897397,-0.012297368,0.99385214,0.23760986,-0.21774292,9.801239,2.7038574,-15.612793,-38.430786,0.23882785,-0.2163076,9.801355,-0.0007921457,0.0010030419,-0.0020523071,0.00019836426,0.00016784668,-6.1035156e-05
0.010884649,-0.012310186,0.9938557,0.24023438,-0.2163086,9.805786,3.453064,-15.132141,-37.834167,0.23859984,-0.2165926,9.801354,-6.912649e-05,-0.0011135936,-0.0005722046,7.6293945e-05,-7.6293945e-05,-7.6293945e-05
0.010907554,-0.012310133,0.9938497,0.23951721,-0.21749878,9.803635,3.2943726,-15.06958,-37.81433,0.23905748,-0.2165298,9.801344,0.0008904934,-0.00019973516,0.0013666153,1.5258789e-05,4.5776367e-05,0.00024414062
0.010901608,-0.01232044,0.9938514,0.23976135,-0.21894836,9.805786,2.947998,-15.525818,-38.345337,0.23896016,-0.21674737,9.801342,2.3081899e-05,-0.00069612265,0.00026607513,0.00019836426,4.5776367e-05,0.00024414062
0.01090847,-0.012332164,0.9938499,0.24240112,-0.21487427,9.8029175,3.2318115,-16.229248,-39.33258,0.23912178,-0.21695809,9.801333,0.00031633675,-0.0012013465,0.0014543533,0.0001373291,-7.6293945e-05,0.0
0.010973544,-0.012316374,0.9938326,0.24238586,-0.21798706,9.804825,1.9897461,-15.522766,-37.701416,0.24038936,-0.21647365,9.801313,0.002424106,0.0006927103,-0.0015859604,0.0001373291,0.00016784668,0.0
0.01098164,-0.012320153,0.9938305,0.23951721,-0.21846008,9.805069,1.5762329,-15.843201,-37.371826,0.24055906,-0.21652566,9.801308,0.001028344,-0.0006710589,0.0016393661,-4.5776367e-05,4.5776367e-05,0.0
0.010960948,-0.012347943,0.9938364,0.2368927,-0.21846008,9.80603,1.9424438,-16.467285,-38.42163,0.24020362,-0.21712497,9.801304,-0.0005272031,-0.0010294467,0.00029945374,7.6293945e-05,4.5776367e-05,0.0
0.010899276,-0.012363957,0.9938528,0.23857117,-0.21749878,9.805313,2.886963,-15.319824,-37.319946,0.2390044,-0.21760453,9.801322,-0.0024443269,-0.0010191202,0.00036239624,-0.00022888184,-7.6293945e-05,0.0
0.010895954,-0.012383501,0.9938539,0.23857117,-0.21774292,9.8033905,3.2150269,-15.150452,-37.373352,0.23897879,-0.2179956,9.801313,-0.00050489604,-0.00037573278,0.0007266998,1.5258789e-05,-0.00012207031,-6.1035156e-05
0.010895826,-0.012361138,0.9938536,0.24215698,-0.22013855,9.805542,1.9683838,-16.033936,-37.65564,0.23892957,-0.21755871,9.801325,-0.00020715594,0.00060366094,-0.0015926361,7.6293945e-05,0.00010681152,0.00018310547
0.010946528,-0.012417853,0.9938413,0.23976135,-0.21702576,9.806992,2.1392822,-15.80658,-37.539673,0.24006146,-0.21853082,9.801275,0.0024809241,-0.00152798,0.00068950653,-0.00016784668,-7.6293945e-05,0.00012207031
0.010935799,-0.012383604,0.99384356,0.24095154,-0.21606445,9.80603,1.4953613,-15.545654,-38.893127,0.23977545,-0.21789013,9.801296,-0.0003607124,0.0012016296,0.0012617111,0.00019836426,0.00016784668,-6.1035156e-05
0.010954602,-0.012344006,0.99383795,0.23976135,-0.21749878,9.805542,2.8656006,-15.452576,-39.15863,0.24006857,-0.21706514,9.801309,0.0007722229,0.0011008382,0.00067329407,1.5258789e-05,-1.5258789e-05,-1.5258789e-05
0.010939434,-0.012359359,0.9938422,0.23880005,-0.21870422,9.806747,1.9546509,-14.427185,-38.157654,0.23979749,-0.21740629,9.801308,-0.0006136149,-0.0007302314,-0.00050735474,7.6293945e-05,4.5776367e-05,6.1035156e-05
0.010931463,-0.012381932,0.9938446,0.24095154,-0.21870422,9.802444,2.720642,-15.25116,-38.206482,0.23968528,-0.21786913,9.801299,-0.00027434528,-0.0009826124,0.00014019012,7.6293945e-05,-1.5258789e-05,-6.1035156e-05
0.010939263,-0.012358479,0.99384224,0.23928833,-0.21606445,9.803162,1.3244629,-15.92865,-37.908936,0.23979221,-0.21738954,9.801308,0.00035235286,0.0006893724,-0.0013446808,1.5258789e-05,-1.5258789e-05,6.1035156e-05
0.010938995,-0.012359315,0.9938423,0.24047852,-0.21942139,9.803864,3.1799316,-15.803528,-38.261414,0.2397886,-0.21740659,9.801308,0.00014580786,-4.300475e-05,-0.0015392303,7.6293945e-05,0.00010681152,0.00012207031
0.0109445825,-0.012376212,0.9938411,0.24238586,-0.21798706,9.806503,3.3432007,-15.795898,-37.738037,0.23993559,-0.2177219,9.801297,0.00023019314,-0.0009201169,-0.00023460388,-4.5776367e-05,-1.5258789e-05,0.00018310547
0.010977951,-0.012394678,0.9938327,0.2368927,-0.21917725,9.805542,2.06604,-15.435791,-38.67035,0.24064115,-0.21799278,9.801273,0.0016517788,-0.0006272495,0.0019168854,1.5258789e-05,4.5776367e-05,-6.1035156e-05
0.010906114,-0.012406436,0.99385166,0.23832703,-0.221344,9.804108,1.8722534,-16.255188,-38.146973,0.23922975,-0.21841665,9.801298,-0.0024269968,-0.0006784797,-0.00015830994,7.6293945e-05,-0.00012207031,-6.1035156e-05
0.010889837,-0.01244426,0.99385655,0.23951721,-0.21655273,9.802444,2.758789,-14.524841,-37.530518,0.23898327,-0.21920009,9.801287,-0.0009795576,-0.0020712763,-0.0008993149,-4.5776367e-05,0.00010681152,0.00018310547
0.010907913,-0.012395625,0.993851,0.23832703,-0.21678162,9.804352,2.885437,-15.16571,-38.27057,0.23924315,-0.21820042,9.801303,0.00069077313,0.0022012442,-0.00059986115,0.00019836426,-7.6293945e-05,6.1035156e-05
0.010902655,-0.01236091,0.99385184,0.23904419,-0.21798706,9.803162,2.1362305,-15.95459,-37.04071,0.2390656,-0.21753584,9.801322,-0.00081051886,0.0010485798,8.010864e-05,-0.00010681152,-6.1035156e-05,6.1035156e-05
0.010893738,-0.012397041,0.99385476,0.23928833,-0.21798706,9.804108,1.9882202,-15.52124,-37.927246,0.23896274,-0.21826631,9.801308,0.0012150258,-0.0003862083,-0.00023937225,-4.5776367e-05,0.00010681152,6.1035156e-05
0.010892161,-0.012382237,0.99385494,0.2400055,-0.21870422,9.803879,2.7999878,-15.319824,-38.146973,0.23890035,-0.21798113,9.801316,-0.00016058981,0.0005221069,0.00031852722,7.6293945e-05,0.00016784668,4.5776367e-05
0.010875803,-0.0123701915,0.993859,0.23880005,-0.2172699,9.804352,2.2888184,-15.859985,-38.61389,0.23854825,-0.2177897,9.80133,0.00018705428,-0.0003823787,0.00036239624,0.00019836426,0.00016784668,0.00012207031
0.010878011,-0.012355646,0.99385816,0.23760986,-0.21894836,9.804108,1.8447876,-16.8396,-38.26599,0.23856202,-0.21749935,9.801335,0.0006643832,0.00028590858,-0.00024414062,0.00019836426,4.5776367e-05,-6.1035156e-05
0.010852091,-0.012374858,0.99386525,0.24072266,-0.21702576,9.8029175,2.4871826,-15.197754,-37.65564,0.238084,-0.2179448,9.801337,-0.0007800311,-0.0014200658,-1.5258789e-05,1.5258789e-05,-7.6293945e-05,-6.1035156e-05
0.01090673,-0.012340648,0.9938504,0.23808289,-0.2141571,9.805313,2.4368286,-16.445923,-37.07733,0.23910472,-0.21712866,9.80133,0.0020345896,0.0015884191,-0.0004787445,-0.00010681152,0.0,0.00012207031
0.010906242,-0.012315593,0.9938502,0.23857117,-0.21749878,9.804108,2.381897,-15.789795,-37.394714,0.23904268,-0.2166401,9.801343,-0.001033023,0.0013591796,0.0014410019,1.5258789e-05,-0.00012207031,6.1035156e-05
0.01089677,-0.012331588,0.9938529,0.23881531,-0.21894836,9.804352,2.128601,-15.8706665,-38.459778,0.23888677,-0.2169784,9.801339,-0.00037926435,-0.00070670247,-0.00078868866,1.5258789e-05,-1.5258789e-05,0.0
0.010884348,-0.012356777,0.99385655,0.24023438,-0.21894836,9.806503,2.8060913,-15.249634,-37.605286,0.23869106,-0.21750438,9.801332,-0.00043688715,-0.0011334568,0.0007457733,-4.5776367e-05,-0.00018310547,0.00012207031
0.010908839,-0.012386312,0.99385065,0.23712158,-0.2172699,9.801483,2.6641846,-14.746094,-38.17444,0.23924223,-0.21801582,9.801307,0.00043174624,-0.0010970384,0.0011434555,1.5258789e-05,4.5776367e-05,0.0
0.010895947,-0.012370778,0.99385375,0.24095154,-0.21894836,9.805786,2.9785156,-14.865112,-38.591003,0.23895213,-0.21774688,9.801321,-0.0006862432,0.0005326867,-0.0021162033,7.6293945e-05,-0.00012207031,0.00012207031
0.010915824,-0.012375444,0.9938486,0.23928833,-0.21870422,9.80603,2.128601,-15.948486,-38.020325,0.23935916,-0.21778451,9.80131,0.0007997006,-0.00037798285,0.0011405945,7.6293945e-05,0.00010681152,0.00012207031
0.010922549,-0.01240138,0.9938473,0.23904419,-0.2182312,9.803635,2.8396606,-16.189575,-38.401794,0.23954773,-0.21827345,9.801293,0.00059351325,-0.0010630786,0.0013990402,-4.5776367e-05,-1.5258789e-05,6.1035156e-05
0.010906807,-0.0123919975,0.99385124,0.24023438,-0.21798706,9.806503,2.6931763,-15.910339,-38.035583,0.23921347,-0.21813247,9.801305,-0.0007327497,0.00022788346,-0.00018596649,1.5258789e-05,-7.6293945e-05,0.0
0.010930425,-0.0123858135,0.993845,0.23760986,-0.2163086,9.80603,2.116394,-16.090393,-38.806152,0.23967268,-0.21794787,9.801299,0.00046269596,0.0002949834,0.0006828308,7.6293945e-05,-1.5258789e-05,0.0
0.010888783,-0.01234214,0.9938552,0.23904419,-0.21655273,9.801956,2.9251099,-16.035461,-38.827515,0.23874915,-0.21720624,9.801337,-0.0016981214,0.0014487356,-0.0009813309,-4.5776367e-05,-1.5258789e-05,0.00024414062
0.010909274,-0.012344831,0.9938498,0.23783875,-0.21774292,9.805313,2.482605,-15.194702,-37.956238,0.23916432,-0.21720359,9.801327,0.00077080727,0.00024174154,-0.0012931824,-4.5776367e-05,-0.00018310547,0.000289917
0.010876319,-0.012350963,0.9938586,0.24023438,-0.21606445,9.8029175,2.1850586,-14.782715,-37.257385,0.23851845,-0.21741234,9.801338,-0.0019563735,-0.00025175512,0.0013828278,1.5258789e-05,0.00010681152,6.1035156e-05
0.010902839,-0.012338454,0.9938514,0.23928833,-0.21749878,9.805069,2.394104,-15.420532,-37.77466,0.23902239,-0.21709627,9.801333,0.0016294122,0.0006079078,-0.0013217926,0.00019836426,4.5776367e-05,0.00012207031
0.0109052695,-0.01231571,0.9938504,0.24023438,-0.2172699,9.804596,2.6474,-15.261841,-37.524414,0.23902346,-0.21664499,9.801342,-4.7057867e-05,0.0003978312,-0.00024318695,0.0001373291,-1.5258789e-05,6.1035156e-05
0.010930709,-0.012335602,0.9938441,0.23857117,-0.21942139,9.804596,1.5090942,-15.405273,-38.261414,0.23957345,-0.2169653,9.801322,0.00082685053,-0.0014239103,0.000790596,-0.00010681152,-7.6293945e-05,-0.00012207031
0.010917691,-0.012368887,0.993848,0.2400055,-0.2172699,9.8029175,1.8707275,-16.253662,-38.449097,0.23938276,-0.21765123,9.8013115,-0.0006675124,-0.0014488995,0.00052928925,0.00019836426,-7.6293945e-05,-0.00012207031
0.010933027,-0.012371431,0.9938441,0.23951721,-0.2182312,9.80484,3.0075073,-16.033936,-38.150024,0.23969463,-0.21765961,9.801304,0.0007276088,-0.00027634203,-0.0023670197,-0.00010681152,0.00010681152,-0.00012207031
0.010906695,-0.01236664,0.9938509,0.23736572,-0.21702576,9.805069,3.1204224,-15.371704,-37.94403,0.2391583,-0.21763697,9.801317,-0.0006530136,0.00042702258,0.00082302094,-0.00010681152,0.0,0.0
0.010888171,-0.012387223,0.9938561,0.23904419,-0.21559143,9.80603,2.9388428,-15.744019,-38.46588,0.23883101,-0.21808937,9.801316,-9.611249e-05,-0.0015166551,-0.0010719299,1.5258789e-05,0.00010681152,-0.00012207031
0.0108800735,-0.012336459,0.9938573,0.23976135,-0.21798706,9.804352,2.3880005,-15.492249,-38.165283,0.2385632,-0.21711862,9.801343,-0.00032304227,0.0016062558,0.0018348694,7.6293945e-05,-0.00012207031,0.0
0.010911968,-0.012361357,0.9938494,0.24119568,-0.21655273,9.803879,2.206421,-15.937805,-38.475037,0.23925267,-0.21751946,9.801318,0.00089661777,-0.00086325407,-0.000207901,1.5258789e-05,-1.5258789e-05,-6.1035156e-05
0.010948287,-0.012323552,0.99383926,0.23928833,-0.21559143,9.804108,2.2720337,-16.148376,-39.19983,0.2398996,-0.21668224,9.801321,0.0014623851,0.0011610985,-0.00062179565,0.0001373291,0.00016784668,0.00012207031
0.010911507,-0.012310252,0.9938487,0.23832703,-0.2172699,9.805313,3.138733,-14.932251,-38.008118,0.23913673,-0.21652147,9.801343,-0.00088365376,0.00050871074,-0.00026607513,-0.00010681152,0.00016784668,0.00012207031
0.010892457,-0.012318619,0.9938538,0.23904419,-0.21798706,9.8033905,2.7069092,-15.7699585,-37.254333,0.23877348,-0.21673642,9.801347,-0.0005220622,-0.00046484172,0.00014591217,1.5258789e-05,-7.6293945e-05,4.5776367e-05
0.010900821,-0.012322727,0.99385166,0.23904419,-0.21607971,9.8029175,2.62146,-15.847778,-37.34131,0.23894922,-0.21679421,9.801342,0.0005007535,-0.00017054379,-0.00070858,1.5258789e-05,0.00010681152,-6.1035156e-05
0.010895912,-0.012311825,0.9938528,0.23904419,-0.21798706,9.805542,2.3513794,-14.5477295,-38.121033,0.23882833,-0.21659426,9.801349,-8.957088e-05,0.0003412515,-0.00047397614,7.6293945e-05,4.5776367e-05,-0.00038146973
0.010886907,-0.012355617,0.99385583,0.23808289,-0.21917725,9.804108,2.6428223,-15.333557,-37.765503,0.23873977,-0.2174748,9.8013315,0.00023086369,-0.0018795878,0.0009622574,-4.5776367e-05,-7.6293945e-05,-0.00012207031
0.010874634,-0.012364212,0.99385923,0.24095154,-0.21846008,9.806274,1.9042969,-15.446472,-38.66577,0.2385124,-0.21767592,9.801332,-0.00073958933,-0.0004811734,0.00064373016,1.5258789e-05,-1.5258789e-05,-6.1035156e-05
0.010924586,-0.012385465,0.9938465,0.23832703,-0.21511841,9.806747,2.4642944,-15.559387,-38.331604,0.2395552,-0.21795677,9.8013,0.0022681952,0.0002952218,0.0005970001,-0.00022888184,0.00016784668,-0.00012207031
0.010907899,-0.01234461,0.9938502,0.24119568,-0.21774292,9.807465,2.6992798,-15.763855,-38.08136,0.23913637,-0.21720298,9.801328,-0.001140967,0.001446858,-8.869171e-05,-4.5776367e-05,-0.00012207031,0.0
0.010920055,-0.01235198,0.99384713,0.24119568,-0.21894836,9.805069,2.6428223,-15.258789,-38.128662,0.23939474,-0.2173143,9.801319,0.00074242055,-0.00032651424,0.0020141602,0.0001373291,0.00016784668,0.0
0.010956881,-0.012389778,0.99383813,0.2400055,-0.21917725,9.805786,2.4536133,-15.852356,-38.241577,0.24020974,-0.21795392,9.801285,0.0022977144,-0.0013562739,0.00070667267,0.0001373291,0.00010681152,6.1035156e-05
0.010920389,-0.012391331,0.99384767,0.23736572,-0.2172699,9.803162,3.2684326,-15.577698,-38.294983,0.23948358,-0.2180828,9.8013,-0.0010417849,-0.0009905249,-0.0006570816,0.00019836426,-1.5258789e-05,0.000289917
0.010917486,-0.012351741,0.9938478,0.24072266,-0.21751404,9.806747,2.2109985,-15.943909,-37.79602,0.23934287,-0.21731655,9.80132,-0.00038163364,0.0010832846,-0.0025167465,1.5258789e-05,0.00010681152,6.1035156e-05
0.010905896,-0.012362086,0.993851,0.23880005,-0.21774292,9.802673,1.8692017,-16.401672,-37.95166,0.23913284,-0.21755008,9.80132,4.6253204e-05,-0.00081063807,0.0021409988,0.0001373291,0.00010681152,-6.1035156e-05
0.010898535,-0.012351102,0.99385273,0.23857117,-0.21870422,9.803635,3.0136108,-15.811157,-38.55896,0.23896275,-0.21735515,9.801328,3.5464764e-06,-8.803606e-05,-0.0025672913,1.5258789e-05,4.5776367e-05,-0.00018310547
0.010878044,-0.012368937,0.9938584,0.23713684,-0.21846008,9.805069,2.8686523,-15.759277,-37.25891,0.23859042,-0.21775912,9.801329,-0.00058193505,-0.00063304603,-0.00027751923,1.5258789e-05,0.00010681152,0.00018310547
0.010869438,-0.012369819,0.99386066,0.24047852,-0.21678162,9.803879,1.9561768,-16.099548,-38.72528,0.23842023,-0.21779956,9.801332,-0.00040756166,-0.00036750734,-0.00033950806,7.6293945e-05,-0.00030517578,0.00012207031
0.010930386,-0.01236352,0.9938446,0.2368927,-0.21751404,9.804352,1.9210815,-15.159607,-38.227844,0.23962529,-0.21751203,9.801308,0.001258105,0.0005481243,-0.00021743774,-4.5776367e-05,-7.6293945e-05,0.00024414062
0.010864421,-0.012355917,0.99386173,0.24023438,-0.21942139,9.80603,3.3340454,-15.939331,-38.294983,0.23829095,-0.21754125,9.801341,-0.0024440736,0.00010436773,0.0014419556,1.5258789e-05,-1.5258789e-05,0.00018310547
0.010897198,-0.012386574,0.9938537,0.23951721,-0.21846008,9.805069,3.2684326,-15.576172,-38.294983,0.23901008,-0.21805236,9.801312,0.0011446029,-0.0012963116,-0.00047302246,1.5258789e-05,0.00010681152,0.0
0.010895942,-0.01239875,0.9938542,0.23904419,-0.2172699,9.806259,3.1143188,-15.591431,-37.612915,0.2390104,-0.2182938,9.801307,0.0006632656,-8.6173415e-05,0.0006389618,-0.00016784668,0.00010681152,0.00018310547
0.010899877,-0.012395412,0.99385315,0.24119568,-0.21798706,9.802673,2.1118164,-16.160583,-38.96942,0.23908207,-0.21821791,9.801306,0.00035353005,0.000563398,0.0007534027,1.5258789e-05,0.00010681152,0.0
0.010922395,-0.012368639,0.9938468,0.23736572,-0.2182312,9.806259,3.1173706,-15.597534,-36.9339,0.23947628,-0.2176337,9.80131,0.0011684746,0.000678733,-0.0015802383,0.00019836426,-1.5258789e-05,-0.00012207031
0.010889396,-0.0123747075,0.99385554,0.24023438,-0.21678162,9.805542,2.2277832,-15.579224,-37.799072,0.23882936,-0.21784136,9.801321,-0.0013210475,-0.000770241,0.0019760132,0.00019836426,-0.00012207031,0.0
0.010911474,-0.012337429,0.99384916,0.24143982,-0.2182312,9.804825,2.5619507,-15.263367,-38.05237,0.23919283,-0.21705295,9.80133,0.0007163882,0.0005875826,-0.00045013428,1.5258789e-05,0.0,0.00012207031
0.010960623,-0.012362314,0.9938367,0.23976135,-0.21917725,9.806976,2.0584106,-15.885925,-37.174988,0.24022715,-0.21740681,9.801296,0.0015957952,-0.0007430315,-0.0006122589,0.0002593994,4.5776367e-05,6.1035156e-05
0.010939223,-0.012362495,0.9938423,0.23951721,-0.21798706,9.806503,1.58844,-15.473938,-37.75177,0.2397998,-0.21746816,9.801306,-0.0011058152,-0.0011398941,0.0013360977,0.00019836426,-0.00012207031,0.00016784668
0.010928312,-0.012370921,0.9938453,0.2400055,-0.21679688,9.804596,1.8325806,-15.386963,-37.81891,0.23959932,-0.21766233,9.801306,-0.0004298836,-0.0009338558,0.0010499954,0.0001373291,0.00010681152,-0.00019836426
0.010908927,-0.012355947,0.9938501,0.23951721,-0.2172699,9.8022,2.06604,-15.588379,-37.94403,0.2391806,-0.21742187,9.801322,-0.0019022226,-0.0014470816,-0.0015106201,7.6293945e-05,-1.5258789e-05,-1.5258789e-05
0.010898558,-0.012366652,0.993853,0.23928833,-0.21966553,9.806259,2.9571533,-15.3793335,-38.316345,0.23899569,-0.21765915,9.801321,-0.0004898757,-0.00051252544,-0.0018005371,7.6293945e-05,-7.6293945e-05,-0.00012207031
0.010916079,-0.012388428,0.9938488,0.24095154,-0.21894836,9.802673,3.2531738,-15.867615,-38.578796,0.23939136,-0.21803766,9.801303,0.0005316287,-0.001552701,0.0013494492,0.0001373291,-7.6293945e-05,0.0
0.010948972,-0.012402978,0.9938404,0.24024963,-0.21966553,9.80603,1.6540527,-15.684509,-38.47809,0.24007922,-0.21823335,9.801281,0.0010516196,-0.0004119426,-0.001499176,1.5258789e-05,-0.00018310547,6.1035156e-05
0.010963676,-0.01241791,0.9938368,0.24072266,-0.21966553,9.806259,3.90625,-15.603638,-39.079285,0.24040437,-0.21848562,9.801269,-1.4021993e-05,-0.00061149895,0.0018844604,7.6293945e-05,4.5776367e-05,0.0
0.0109664835,-0.0124360705,0.9938364,0.24119568,-0.21774292,9.803162,3.9718628,-15.965271,-38.931274,0.24049842,-0.21883312,9.801258,0.00036485493,-0.0012251288,-3.0517578e-05,7.6293945e-05,-1.5258789e-05,6.1035156e-05
0.010978065,-0.0123930285,0.99383265,0.23951721,-0.22013855,9.808182,2.2094727,-15.942383,-38.02185,0.24063998,-0.21796022,9.801274,0.00047180057,0.0014834702,-0.00033950806,1.5258789e-05,4.5776367e-05,0.0
0.010948771,-0.012447064,0.9938412,0.23928833,-0.21870422,9.805557,3.277588,-15.434265,-37.887573,0.24016732,-0.21909593,9.801261,-0.0009818375,-0.0023831278,0.0015335083,0.00019836426,4.5776367e-05,0.00012207031
0.010940851,-0.012412623,0.9938427,0.24047852,-0.21511841,9.8022,3.074646,-16.470337,-37.63733,0.23993707,-0.21844389,9.801281,-3.6731362e-05,0.00055257976,0.00020980835,0.0001373291,4.5776367e-05,6.1035156e-05
0.010939833,-0.012353987,0.993842,0.24023438,-0.21798706,9.805069,3.2531738,-15.791321,-39.093018,0.23979422,-0.21730016,9.80131,-0.0005964488,0.0020349175,-0.0011320114,-4.5776367e-05,-1.5258789e-05,0.00012207031
0.010945645,-0.012364696,0.99384063,0.23904419,-0.21751404,9.805313,1.7074585,-16.412354,-37.947083,0.23993278,-0.21749385,9.801302,0.0002181977,-0.00041760504,-0.0006017685,-4.5776367e-05,-0.00018310547,0.00018310547
0.0109415185,-0.012370253,0.9938418,0.23712158,-0.21798706,9.80603,2.9418945,-15.6692505,-38.450623,0.23986189,-0.21761365,9.801301,-0.00042887032,0.00017601252,8.2969666e-05,1.5258789e-05,4.5776367e-05,-6.1035156e-05
0.010887496,-0.012366306,0.9938559,0.23808289,-0.21917725,9.80603,3.1555176,-16.46576,-37.638855,0.23877387,-0.21768223,9.801327,-0.0019768775,-0.00021757185,0.0010194778,0.00019836426,-7.6293945e-05,-0.00019836426
0.010877532,-0.012383237,0.99385875,0.23832703,-0.21894836,9.8029175,2.7786255,-15.679932,-38.74817,0.23861004,-0.21804012,9.801323,-0.0006291717,-0.001043886,0.0005168915,-0.00010681152,0.00010681152,0.00024414062
0.010863684,-0.0123957675,0.99386257,0.23880005,-0.21917725,9.803879,3.0471802,-15.156555,-38.12561,0.23835935,-0.21832241,9.801322,-0.00035355985,-0.0005553216,-0.0020475388,-4.5776367e-05,0.0,0.00018310547
0.010876603,-0.012406181,0.99385935,0.23904419,-0.21894836,9.8029175,1.84021,-15.0894165,-38.36212,0.23863931,-0.21849121,9.8013115,0.00057274103,-0.00014317036,-9.250641e-05,1.5258789e-05,-7.6293945e-05,-6.1035156e-05
0.010881541,-0.01242976,0.99385846,0.23880005,-0.22013855,9.805313,2.7038574,-15.615845,-38.279724,0.23878722,-0.21893895,9.801298,-4.3660402e-05,-0.0013919473,-0.001660347,7.6293945e-05,-1.5258789e-05,-7.6293945e-05
0.010869555,-0.012425242,0.99386156,0.23880005,-0.21966553,9.806976,2.8762817,-15.310669,-38.752747,0.23853816,-0.21888289,9.801305,-0.00028699636,0.00024826825,0.0016088486,-0.00010681152,0.00010681152,-0.00032043457
0.010879867,-0.012440638,0.9938591,0.237854,-0.21870422,9.804108,2.041626,-16.021729,-38.560486,0.23877643,-0.21915615,9.801293,0.0004207492,-0.00089873374,0.0012235641,0.00019836426,-1.5258789e-05,6.1035156e-05
0.010861608,-0.012419564,0.9938635,0.24072266,-0.2172699,9.806503,4.2251587,-15.881348,-37.942505,0.23836747,-0.21879329,9.8013115,-0.00085631013,0.00042380393,0.0006608963,1.5258789e-05,-7.6293945e-05,-6.1035156e-05
0.0109060155,-0.012401201,0.9938516,0.2400055,-0.21942139,9.80603,2.2262573,-15.501404,-38.235474,0.2392169,-0.21831459,9.801302,0.0016492754,0.0011365414,0.00011730194,-0.00016784668,-0.00018310547,0.00012207031
0.010914243,-0.012430884,0.99384993,0.24095154,-0.21894836,9.803635,3.199768,-15.365601,-38.172913,0.23944327,-0.21887274,9.801283,-0.0002529472,-0.00045907497,-0.00022602081,7.6293945e-05,-7.6293945e-05,0.00016784668
0.010965038,-0.01243327,0.9938367,0.23832703,-0.22062683,9.804123,2.015686,-14.707947,-38.972473,0.24046367,-0.21878226,9.80126,0.0013541132,-7.9616904e-05,-0.00030994415,7.6293945e-05,-0.00024414062,0.00018310547
0.010935508,-0.012450803,0.9938447,0.23953247,-0.21702576,9.806274,2.8900146,-15.019226,-38.391113,0.23990999,-0.21920484,9.801265,-0.0014213324,-0.0013465881,-0.001001358,7.6293945e-05,0.00010681152,0.00012207031
0.010931876,-0.012414536,0.99384505,0.23904419,-0.2163086,9.806747,2.8625488,-15.7547,-38.01117,0.23976162,-0.21850552,9.801283,-0.0003245473,0.0013225526,0.0010919571,1.5258789e-05,-7.6293945e-05,0.0
0.010911998,-0.012358699,0.99384934,0.237854,-0.21678162,9.806503,3.2531738,-16.171265,-37.130737,0.23924772,-0.2174674,9.801319,-0.00079736114,0.0015127808,0.0021572113,1.5258789e-05,0.00016784668,0.00012207031
0.010876308,-0.012360309,0.9938587,0.23760986,-0.21870422,9.802673,2.7633667,-16.12091,-38.157654,0.23853771,-0.2175951,9.801333,-0.0007902831,0.00019353628,-0.0011167526,-4.5776367e-05,-7.6293945e-05,6.1035156e-05
0.010879061,-0.012365573,0.9938581,0.24023438,-0.21870422,9.805786,2.6367188,-15.405273,-37.930298,0.23860371,-0.2176906,9.80133,-0.00036640465,2.9534101e-05,-0.0013799667,1.5258789e-05,-0.00018310547,6.1035156e-05
0.01089459,-0.012386748,0.99385434,0.23713684,-0.21917725,9.804352,2.7313232,-15.109253,-37.64801,0.23895833,-0.21806279,9.801313,0.0002413392,-0.0010335594,-0.00012493134,1.5258789e-05,4.5776367e-05,-0.00032043457
0.010863065,-0.012394485,0.99386275,0.23664856,-0.21774292,9.806503,2.7252197,-15.254211,-37.677002,0.23834428,-0.21829902,9.801323,-0.0013004392,-0.00056417286,0.00039482117,7.6293945e-05,0.00010681152,0.0
0.010824013,-0.012377154,0.99387264,0.23570251,-0.21583557,9.803162,3.0395508,-15.5303955,-36.991882,0.23752752,-0.21806523,9.801348,-0.0014472753,0.00040982664,0.00026130676,1.5258789e-05,4.5776367e-05,0.00030517578
0.010801284,-0.012338483,0.99387795,0.24143982,-0.2172699,9.8022,1.9836426,-15.6692505,-37.582397,0.23699263,-0.21737024,9.801376,-0.00065615773,0.0013820976,-0.0009384155,-4.5776367e-05,-1.5258789e-05,6.1035156e-05
0.010862963,-0.012386004,0.9938626,0.23857117,-0.21583557,9.8033905,3.503418,-15.937805,-37.017822,0.23832457,-0.21813345,9.801327,-0.0012563765,-0.001225099,0.00091934204,0.0001373291,-7.6293945e-05,6.1035156e-05
0.010876661,-0.012334531,0.9938582,0.24072266,-0.21990967,9.80603,2.6733398,-14.678955,-37.330627,0.23849098,-0.21709013,9.801346,0.00049103796,0.0017994195,-0.00051021576,1.5258789e-05,0.00010681152,0.00010681152
0.01089474,-0.012386404,0.99385434,0.23713684,-0.21917725,9.807465,2.3712158,-16.004944,-37.89215,0.23896058,-0.21805564,9.801312,0.0014276952,-0.0024888217,0.0022058487,7.6293945e-05,-7.6293945e-05,0.00012207031
0.010861851,-0.012390344,0.993863,0.23951721,-0.2163086,9.801239,2.0126343,-15.164185,-36.723328,0.23831138,-0.2182213,9.801325,-0.0012724996,-0.00039322674,0.0006761551,7.6293945e-05,0.00022888184,-0.00012207031
0.010899978,-0.012346022,0.9938523,0.24287415,-0.21870422,9.800995,2.017212,-16.531372,-38.8916,0.238981,-0.21725196,9.801331,0.0014346689,0.0012293905,-0.002913475,0.0001373291,-7.6293945e-05,-6.1035156e-05
0.010937226,-0.012391102,0.9938433,0.23713684,-0.22062683,9.8029175,2.166748,-15.148926,-37.63275,0.23981963,-0.21803287,9.801292,0.0015759766,-0.0015924573,-0.001616478,1.5258789e-05,-1.5258789e-05,-0.0001373291
0.010899229,-0.012407601,0.9938535,0.23808289,-0.21606445,9.805069,2.4383545,-16.218567,-38.163757,0.23909457,-0.218458,9.801301,-0.0012850165,-0.0009227842,3.9100647e-05,0.0001373291,-1.5258789e-05,4.5776367e-05
0.010878963,-0.012357978,0.993858,0.23617554,-0.21798706,9.803879,2.4658203,-15.635681,-37.895203,0.23858592,-0.21754237,9.801333,-0.0010355711,0.0008150041,0.0012903214,0.0001373291,0.00010681152,-0.00012207031
0.010860213,-0.012344347,0.9938626,0.24047852,-0.21583557,9.802444,2.5054932,-14.758301,-37.643433,0.23818271,-0.21732636,9.801348,-0.00063462555,0.00035697222,0.00021743774,-0.00010681152,-1.5258789e-05,0.00012207031
0.010880239,-0.012332532,0.9938572,0.237854,-0.21870422,9.804825,2.5650024,-15.1901245,-38.03711,0.23855832,-0.21704137,9.801345,0.0006798357,0.00077843666,-0.0009622574,0.0001373291,-1.5258789e-05,0.0
0.010896712,-0.012364625,0.99385345,0.24095154,-0.21655273,9.803162,3.2196045,-14.8498535,-38.597107,0.23895453,-0.21762449,9.801322,0.00050218403,-0.001497671,0.00079250336,-4.5776367e-05,-7.6293945e-05,-0.00019836426
0.01090534,-0.0123376455,0.99385077,0.23976135,-0.2182312,9.807709,2.6245117,-15.545654,-38.7146,0.23907068,-0.2170737,9.8013315,0.00016261637,0.0012880862,-0.00042629242,7.6293945e-05,-1.5258789e-05,-0.00012207031
0.010916851,-0.012363456,0.99384815,0.23857117,-0.21751404,9.805069,3.3081055,-14.624023,-38.479614,0.23935466,-0.21754731,9.801314,0.000561744,-0.0013200641,0.0027456284,-4.5776367e-05,-0.00012207031,6.1035156e-05
0.010910729,-0.012357553,0.9938497,0.23976135,-0.21751404,9.805313,2.0217896,-14.71405,-38.067627,0.23921996,-0.21744841,9.80132,-0.0009786934,0.0005006045,-0.0002374649,-7.6293945e-05,-7.6293945e-05,-9.1552734e-05
0.010929015,-0.012376275,0.9938452,0.24095154,-0.21917725,9.804596,2.7404785,-14.962769,-37.469482,0.23962454,-0.21776514,9.801303,0.00075791776,-0.00060765445,0.0007982254,0.00010681152,4.5776367e-05,-9.1552734e-05
0.010911883,-0.012369209,0.9938496,0.23713684,-0.21846008,9.8033905,1.5960693,-15.254211,-38.009644,0.23926733,-0.2176732,9.801313,-7.355213e-05,-0.00022785366,-0.00011730194,-1.5258789e-05,0.00010681152,-9.1552734e-05
0.010900707,-0.012401436,0.99385303,0.23976135,-0.21917725,9.800278,2.8045654,-15.170288,-38.34381,0.23911123,-0.21833347,9.801303,-0.00039319694,-0.000768885,-0.0010299683,-7.6293945e-05,4.5776367e-05,0.00032043457
0.010887592,-0.012416083,0.99385667,0.23857117,-0.21846008,9.802673,3.390503,-14.546204,-38.8443,0.23887964,-0.21865523,9.801302,-0.00011828542,-0.00048659742,-0.0035581589,-0.0001373291,-1.5258789e-05,-0.00015258789
0.010899023,-0.01241478,0.9938537,0.23928833,-0.21751404,9.805313,2.2003174,-15.933228,-39.152527,0.23910539,-0.2185989,9.801296,0.00014594197,0.0004015267,-0.00014019012,-1.5258789e-05,0.00010681152,-0.00010681152
0.010907524,-0.012405329,0.9938513,0.23904419,-0.2172699,9.8022,2.4475098,-16.000366,-38.043213,0.23925564,-0.21839121,9.801298,0.000708133,0.0006863624,0.00038337708,4.5776367e-05,-0.00012207031,-3.0517578e-05
0.010898177,-0.012372377,0.9938532,0.24191284,-0.2172699,9.80603,2.607727,-16.062927,-37.98828,0.23900001,-0.21777213,9.801318,-0.0012000352,0.0007956177,0.0010614395,4.5776367e-05,4.5776367e-05,0.00019836426
0.010934114,-0.012372886,0.9938438,0.23904419,-0.21678162,9.802444,2.508545,-14.686584,-37.70294,0.23971938,-0.2176851,9.801302,0.0018859655,-2.8312206e-07,0.000702858,-1.5258789e-05,-7.6293945e-05,-3.0517578e-05
0.010952802,-0.012356401,0.99383867,0.24215698,-0.21942139,9.804825,2.4841309,-15.272522,-37.519836,0.24005848,-0.21731234,9.801303,0.00036671758,0.0012961477,-0.0008068085,-1.5258789e-05,-7.6293945e-05,0.0002593994
0.010966289,-0.012394164,0.99383575,0.23880005,-0.21989441,9.805313,2.3773193,-15.859985,-37.712097,0.24040698,-0.21801427,9.801279,0.000713855,-0.0015833676,0.0016994476,0.00010681152,-1.5258789e-05,0.0002593994
0.010904781,-0.0124321645,0.99385244,0.24095154,-0.2163086,9.80484,2.3086548,-15.574646,-37.649536,0.2392568,-0.21892332,9.801287,-6.4879656e-05,-0.0011409819,-0.0002593994,0.00022888184,-1.5258789e-05,-3.0517578e-05
0.010923575,-0.012365686,0.9938464,0.23736572,-0.21966553,9.8022,2.1270752,-15.94696,-38.095093,0.2394937,-0.21757278,9.801311,0.00018498302,0.0015834123,0.00014686584,0.00022888184,-0.00024414062,9.1552734e-05
0.010905706,-0.012379272,0.99385136,0.23904419,-0.21774292,9.8022,2.1240234,-16.020203,-38.18817,0.2391649,-0.21788661,9.8013115,-0.0011481196,-0.0012304187,-0.0013475418,-1.5258789e-05,4.5776367e-05,9.1552734e-05
0.010906496,-0.012393506,0.99385136,0.23928833,-0.21942139,9.806992,1.8859863,-16.038513,-37.727356,0.2392104,-0.21816279,9.801304,-0.00022344291,-0.0002451092,-0.0007314682,-7.6293945e-05,-1.5258789e-05,-3.0517578e-05
0.010892633,-0.012416204,0.99385536,0.23808289,-0.21559143,9.803635,3.163147,-16.3208,-37.4588,0.23898068,-0.21864401,9.8013,0.00045977533,-0.0007071346,0.0015821457,-1.5258789e-05,0.00022888184,-9.1552734e-05
0.010886646,-0.012362774,0.9938561,0.23928833,-0.21966553,9.806976,2.6016235,-16.209412,-38.09204,0.23874947,-0.21761544,9.801328,-0.00050739944,0.0016284287,0.0007266998,4.5776367e-05,-0.00030517578,9.1552734e-05
0.01089542,-0.0123816505,0.99385405,0.23928833,-0.21368408,9.803635,1.7105103,-16.264343,-38.44452,0.23896426,-0.21796088,9.801315,-0.00048807263,-0.00041256845,0.00081920624,-1.5258789e-05,4.5776367e-05,0.00015258789
0.010913897,-0.0123283435,0.9938484,0.23832703,-0.21702576,9.802673,2.0355225,-16.091919,-38.952637,0.2392223,-0.21686876,9.801333,0.00021514297,0.0022956878,-0.0012111664,-1.5258789e-05,-0.00018310547,9.1552734e-05
0.010891099,-0.012328287,0.99385434,0.23880005,-0.2172699,9.8033905,2.59552,-16.35437,-37.971497,0.23876654,-0.21692912,9.801343,-0.0012262017,-0.00027760863,-0.0008058548,0.00010681152,-1.5258789e-05,9.1552734e-05
0.010904949,-0.012320115,0.9938506,0.24023438,-0.21870422,9.803635,4.017639,-15.248108,-37.049866,0.23902626,-0.216732,9.80134,0.0004336387,2.3543835e-06,-0.0010175705,-1.5258789e-05,-1.5258789e-05,3.0517578e-05
0.0109211765,-0.012360843,0.993847,0.23760986,-0.21751404,9.803162,2.0019531,-15.383911,-36.76758,0.23943563,-0.21748455,9.801313,0.0009930581,-0.0014185607,-0.0006799698,-1.5258789e-05,0.00010681152,1.5258789e-05
0.010895918,-0.012353913,0.9938535,0.24215698,-0.21749878,9.805313,2.1453857,-15.505981,-38.38501,0.23891634,-0.2174172,9.801329,-0.001108095,0.00043305755,-0.00028800964,4.5776367e-05,0.0,9.1552734e-05
0.010929005,-0.012355593,0.99384487,0.23880005,-0.21751404,9.8029175,2.445984,-15.99884,-38.27057,0.23958115,-0.21736078,9.801313,0.0017931759,0.00015029311,0.0015649796,4.5776367e-05,4.5776367e-05,0.00021362305
0.010934485,-0.012359602,0.9938435,0.23904419,-0.21798706,9.801956,2.4505615,-15.927124,-38.027954,0.23969905,-0.21742438,9.801309,-0.00024057925,-0.0007535368,-0.0005645752,-7.6293945e-05,-1.5258789e-05,9.1552734e-05
0.010897232,-0.012352702,0.9938531,0.2368927,-0.21343994,9.804352,2.331543,-15.138245,-37.25891,0.23894008,-0.21738999,9.801329,-0.0008971989,0.00064477324,-0.0014867783,-1.5258789e-05,-7.6293945e-05,0.00015258789
0.010898467,-0.012297551,0.9938519,0.23951721,-0.21798706,9.80603,3.088379,-16.026306,-38.378906,0.23884964,-0.21630833,9.801355,-0.0010556728,0.0022055954,0.0017232895,4.5776367e-05,-1.5258789e-05,3.0517578e-05
0.010882336,-0.012323413,0.99385655,0.23713684,-0.21966553,9.803635,3.3477783,-15.4953,-38.883972,0.2385812,-0.21685745,9.801349,0.00014458597,-0.0013062358,0.0011425018,4.5776367e-05,0.00016784668,-9.1552734e-05
0.010851198,-0.012354549,0.9938652,0.23951721,-0.2182312,9.804596,2.0401,-16.020203,-38.78784,0.23802379,-0.2175501,9.801347,-0.0004838556,-0.0015632361,-0.0003633499,-1.5258789e-05,4.5776367e-05,0.00021362305
0.0108602615,-0.012388214,0.99386334,0.23760986,-0.2172699,9.806259,2.5482178,-15.629578,-37.747192,0.23827519,-0.21818395,9.801328,0.00070130825,-0.0011754483,-0.00023365021,-7.6293945e-05,4.5776367e-05,0.00021362305
0.010858476,-0.012359198,0.99386334,0.2400055,-0.21655273,9.803635,1.9851685,-15.667725,-37.582397,0.23817895,-0.2176214,9.801341,-0.0001885891,0.0011532009,0.0020723343,4.5776367e-05,4.5776367e-05,-9.1552734e-05
0.010878566,-0.012347782,0.9938579,0.24072266,-0.2191925,9.800293,2.3986816,-15.426636,-37.01935,0.2385567,-0.21734408,9.801338,0.0011260808,0.00038990378,-0.0011758804,4.5776367e-05,0.00010681152,9.1552734e-05
0.010911986,-0.012380794,0.9938497,0.2400055,-0.2172699,9.806503,1.8615723,-16.548157,-37.982178,0.23929362,-0.21789946,9.801309,0.0013746023,-0.0009993464,-0.0020551682,-1.5258789e-05,-1.5258789e-05,9.1552734e-05
0.010910011,-0.012353151,0.9938498,0.23760986,-0.21583557,9.804825,2.4902344,-15.203857,-37.052917,0.23919642,-0.2173643,9.801323,2.335012e-05,0.0011180043,0.0011816025,-7.6293945e-05,-0.00012207031,0.00015258789
0.01090641,-0.012351007,0.9938507,0.24119568,-0.21894836,9.802444,2.645874,-15.185547,-38.113403,0.23911996,-0.21733207,9.801325,-0.0006169379,0.0003682226,-1.04904175e-05,-7.6293945e-05,0.00016784668,3.0517578e-05
0.010918714,-0.012376529,0.9938479,0.24072266,-0.21821594,9.804825,3.300476,-14.92157,-38.012695,0.23941916,-0.21779789,9.801307,0.0014733523,-0.0006084889,-0.0008058548,-1.5258789e-05,0.00010681152,-0.00016784668
0.010939791,-0.0123777045,0.9938424,0.24095154,-0.21774292,9.8033905,2.697754,-15.762329,-38.308716,0.23984294,-0.217764,9.801298,0.0010362417,8.678436e-05,0.0010585785,-1.5258789e-05,-7.6293945e-05,0.0002593994
0.010953949,-0.012380195,0.9938387,0.23736572,-0.21583557,9.802673,2.6016235,-14.389038,-37.64801,0.24013111,-0.21777445,9.8012905,0.0007587075,8.749962e-05,-0.00089263916,0.00010681152,0.00010681152,0.0001373291
0.01090541,-0.012332854,0.99385065,0.23857117,-0.21607971,9.80603,3.3935547,-16.369629,-38.461304,0.23906209,-0.21697983,9.801334,-0.002462849,0.0009601563,-0.0009126663,-7.6293945e-05,-0.00012207031,-9.1552734e-05
0.010918238,-0.012338764,0.99384737,0.24047852,-0.21917725,9.803162,2.0828247,-16.819763,-39.027405,0.2393308,-0.21706079,9.801326,0.00011526048,0.0003284365,0.0017900467,-7.6293945e-05,-0.00012207031,3.0517578e-05
0.010930876,-0.012369312,0.99384457,0.23880005,-0.21774292,9.801956,3.338623,-15.789795,-38.49182,0.23964721,-0.21762398,9.801306,0.00030522048,-0.0010320544,-0.0015201569,4.5776367e-05,-1.5258789e-05,9.1552734e-05
0.010909847,-0.012360995,0.99384993,0.23832703,-0.21870422,9.806259,2.4261475,-16.360474,-38.64441,0.23923863,-0.2182291,9.801302,-0.00093248487,4.9501657e-05,-0.00022029877,-7.6293945e-05,4.5776367e-05,-3.0517578e-05
0.010903896,-0.012424074,0.99385256,0.23951721,-0.21702576,9.805786,3.3462524,-15.646362,-38.38501,0.23922221,-0.2187675,9.8012905,-0.00025813282,-0.00058063865,0.0024194717,4.5776367e-05,-1.5258789e-05,0.00021362305
0.010912554,-0.012415363,0.9938501,0.24072266,-0.21966553,9.80603,1.6555786,-15.533447,-39.12506,0.23937714,-0.21857384,9.801291,0.00076314807,0.00019967556,0.0011301041,4.5776367e-05,4.5776367e-05,9.1552734e-05
0.010929625,-0.012416237,0.9938457,0.23976135,-0.21774292,9.805557,2.0599365,-15.734863,-37.973022,0.2397202,-0.21854487,9.801284,0.00067414343,-0.00032675266,-0.0008468628,0.00010681152,-1.5258789e-05,3.0517578e-05
0.010936568,-0.012386802,0.9938434,0.24238586,-0.21846008,9.802429,2.243042,-15.136719,-38.237,0.23979753,-0.21795061,9.801296,0.00011534989,0.0007649064,0.0007047653,-1.5258789e-05,4.5776367e-05,-3.0517578e-05
0.010965157,-0.012411888,0.99383634,0.24023438,-0.21607971,9.805313,3.1600952,-16.165161,-38.86261,0.24042138,-0.21836387,9.8012705,0.0014097691,-0.000739187,-0.0009660721,-1.5258789e-05,0.00010681152,-3.0517578e-05
0.010955806,-0.012358535,0.9938379,0.23904419,-0.21942139,9.804596,3.1082153,-15.437317,-39.015198,0.24012296,-0.21734594,9.8013,2.862513e-05,0.002302453,0.00014591217,-7.6293945e-05,4.5776367e-05,-0.00021362305
0.010939514,-0.0124158915,0.9938431,0.23951721,-0.21966553,9.806992,1.8051147,-15.969849,-37.9364,0.23991716,-0.2185114,9.801279,-0.00023832917,-0.002040267,-5.4359436e-05,0.00010681152,0.00010681152,0.00015258789
0.010925273,-0.012400216,0.9938466,0.23951721,-0.21894836,9.803879,2.6184082,-15.843201,-37.869263,0.23959978,-0.21824338,9.801294,-0.00018186867,0.0001026392,0.0013914108,4.5776367e-05,0.00010681152,-3.0517578e-05
0.01090253,-0.012413486,0.99385273,0.23880005,-0.21942139,9.805313,2.6687622,-16.419983,-38.21411,0.23917282,-0.21856415,9.801296,-0.00045996904,-0.0010216981,-0.0009908676,4.5776367e-05,0.00010681152,0.00015258789
0.010896036,-0.012410566,0.9938544,0.2368927,-0.2163086,9.807938,2.6641846,-14.593506,-38.89923,0.23903693,-0.21852459,9.801301,-0.00032553077,-9.858608e-05,0.00013256073,0.00016784668,-7.6293945e-05,3.0517578e-05
0.010871365,-0.012364022,0.99386007,0.24072266,-0.21702576,9.806503,2.4658203,-15.483093,-38.76953,0.23844664,-0.217681,9.801333,-0.0009508282,0.0012324154,0.0021591187,-7.6293945e-05,0.00010681152,-9.1552734e-05
0.010894503,-0.012383626,0.99385434,0.24095154,-0.22062683,9.804825,2.5634766,-15.341187,-37.461853,0.23895009,-0.21800199,9.801315,0.001411587,-0.00036674738,0.000166893,-1.5258789e-05,-7.6293945e-05,9.1552734e-05
0.010916027,-0.012406854,0.9938491,0.2400055,-0.21751404,9.80603,3.187561,-15.657043,-38.230896,0.23942877,-0.21839808,9.801293,0.0004734844,-0.0009291321,-0.001168251,0.00010681152,-7.6293945e-05,0.00021362305
0.010943723,-0.012407154,0.9938418,0.23880005,-0.21917725,9.802444,2.4215698,-14.762878,-37.867737,0.23998304,-0.21832919,9.801282,0.0008546859,-0.00027148426,0.0008172989,0.00010681152,-1.5258789e-05,0.00021362305
0.0109143,-0.012389851,0.9938493,0.23808289,-0.21751404,9.804825,2.1743774,-14.924622,-37.8891,0.23935875,-0.21807028,9.801303,-0.0015912503,0.00016203523,-0.0021715164,4.5776367e-05,-1.5258789e-05,-0.0002746582
0.010905272,-0.012386798,0.9938516,0.24072266,-0.22061157,9.806747,3.4973145,-15.930176,-37.92267,0.23917195,-0.21803495,9.801309,-0.0004541725,0.00012287498,-0.00032806396,4.5776367e-05,-7.6293945e-05,0.00021362305
0.010921131,-0.0124326935,0.9938482,0.24023438,-0.2182312,9.804108,2.6519775,-15.0390625,-37.931824,0.23958476,-0.21888955,9.801279,0.00057277083,-0.0018820167,0.0007390976,-7.6293945e-05,-7.6293945e-05,0.00021362305
0.010940628,-0.012415517,0.9938428,0.23976135,-0.21798706,9.804825,2.7908325,-15.386963,-38.690186,0.23993863,-0.21850108,9.801279,0.00044177473,0.001320526,0.00049877167,-1.5258789e-05,-0.00012207031,9.1552734e-05
0.010937834,-0.01241059,0.99384344,0.23904419,-0.21966553,9.803879,2.2369385,-15.205383,-38.630676,0.2398725,-0.2184123,9.801283,-0.00044175982,3.094971e-05,-0.00093746185,-1.5258789e-05,0.00010681152,-3.0517578e-05
0.010944742,-0.012441155,0.9938421,0.24143982,-0.2182312,9.804108,2.2521973,-15.06958,-37.316895,0.24007441,-0.21899125,9.801265,0.0005688369,-0.0013190061,-0.0006275177,-7.6293945e-05,0.00010681152,0.00015258789
0.010914316,-0.0124115795,0.99384964,0.23928833,-0.21870422,9.804108,3.1707764,-15.94696,-38.667297,0.23940445,-0.2184951,9.801292,-0.00043959916,0.0015417486,5.6266785e-05,-7.6293945e-05,-1.5258789e-05,3.0517578e-05
0.010937009,-0.012434411,0.99384403,0.23904419,-0.21774292,9.802444,1.3244629,-15.92865,-37.908936,0.23990574,-0.21888027,9.801271,0.0005002469,-0.00071911514,-0.00059890747,4.5776367e-05,-0.00012207031,-0.00015258789
0.010917764,-0.012400929,0.99384856,0.23928833,-0.21678162,9.802673,3.0532837,-15.162659,-37.44812,0.23945113,-0.21827753,9.801295,-0.00093719363,0.0010598004,-0.0011940002,-1.5258789e-05,0.00010681152,0.00021362305
0.010920492,-0.012384508,0.99384755,0.23976135,-0.21751404,9.80603,3.2104492,-15.223694,-37.690735,0.23947139,-0.2179491,9.801303,-0.00023800135,0.00097334385,-0.00016117096,-0.0001373291,-0.00012207031,3.0517578e-05
0.010933274,-0.012389159,0.9938443,0.24024963,-0.21774292,9.804596,3.0929565,-16.03241,-37.54883,0.2397366,-0.21800555,9.801295,0.00018595159,9.392202e-05,0.000626564,-1.5258789e-05,-0.00012207031,0.0002593994
0.01095103,-0.012371322,0.9938394,0.23904419,-0.2182312,9.80101,3.5095215,-15.788269,-37.365723,0.24005423,-0.21760885,9.801296,0.0003478676,0.00065235794,-0.00053691864,4.5776367e-05,4.5776367e-05,0.00015258789
0.010936195,-0.012397668,0.9938437,0.23880005,-0.21917725,9.804352,3.100586,-15.734863,-38.319397,0.23981275,-0.21816406,9.80129,-0.0005750507,-0.0014554262,-0.002120018,0.00010681152,-1.5258789e-05,9.1552734e-05
0.010899805,-0.012389268,0.99385303,0.23832703,-0.2163086,9.805557,2.659607,-14.892578,-38.053894,0.23906781,-0.21809797,9.801309,-0.0010489076,0.00016926229,0.0011367798,4.5776367e-05,0.00016784668,-9.1552734e-05
0.010892495,-0.012373643,0.9938547,0.23951721,-0.21917725,9.80603,2.4520874,-15.927124,-37.953186,0.23888907,-0.2178122,9.80132,7.812679e-05,0.0003683567,0.0010786057,-7.6293945e-05,-1.5258789e-05,0.00044250488
0.010900183,-0.012389843,0.993853,0.2400055,-0.21583557,9.8029175,2.7694702,-16.052246,-37.91809,0.23907657,-0.21810824,9.80131,0.00012777746,-0.00027523935,0.0005607605,-1.5258789e-05,-7.6293945e-05,3.0517578e-05
0.010915993,-0.012349092,0.99384815,0.24095154,-0.21751404,9.805786,2.3513794,-16.369629,-37.965393,0.23930751,-0.2172688,9.801322,0.00061942637,0.0015045702,-0.00043201447,0.00010681152,4.5776367e-05,0.0001373291
0.010938035,-0.01235216,0.9938424,0.23857117,-0.21870422,9.805069,2.3773193,-15.858459,-37.86316,0.23975448,-0.21726929,9.8013115,0.000878945,-0.00063692033,0.00082683563,4.5776367e-05,-1.5258789e-05,3.0517578e-05
0.0109434,-0.012364576,0.99384123,0.24143982,-0.21487427,9.807938,3.5812378,-15.927124,-37.547302,0.23988764,-0.21749756,9.801303,-0.00021657348,-0.00040765107,7.724762e-05,4.5776367e-05,-0.0004272461,0.0001373291
0.010977137,-0.012332048,0.9938319,0.2400055,-0.22013855,9.803635,3.2821655,-15.284729,-38.386536,0.24049392,-0.2167704,9.801304,-0.00012587011,0.0012785345,0.0016584396,-1.5258789e-05,-7.6293945e-05,0.0001373291
0.010954075,-0.012398832,0.993839,0.23928833,-0.21966553,9.8029175,1.5411377,-16.496277,-38.03253,0.24017256,-0.2181385,9.801281,-0.00050234795,-0.002405569,-0.0016098022,4.5776367e-05,-0.00012207031,0.0002593994
0.010946026,-0.012399995,0.9938411,0.23951721,-0.21559143,9.805069,1.5853882,-15.548706,-37.68921,0.24001414,-0.21818301,9.801285,-0.0007997304,-0.00020988286,-0.0013856888,-0.0001373291,0.00010681152,9.1552734e-05
0.01093652,-0.012370552,0.99384314,0.23928833,-0.21989441,9.802673,2.2262573,-15.577698,-37.94861,0.23976259,-0.21763296,9.801302,-0.0005518049,0.0016236454,0.00035190582,-7.6293945e-05,-0.00024414062,3.0517578e-05
0.010938326,-0.012418327,0.99384344,0.23808289,-0.21774292,9.806274,1.1947632,-15.130615,-38.571167,0.2398985,-0.21856223,9.801279,-0.00044462085,-0.001518637,-0.0011920929,-0.00019836426,-1.5258789e-05,0.0001373291
0.010915199,-0.012411918,0.9938494,0.2400055,-0.21966553,9.80722,1.5716553,-15.686035,-38.775635,0.23942283,-0.21849933,9.801292,-0.0007148534,0.0008404255,0.002404213,4.5776367e-05,-7.6293945e-05,3.0517578e-05
0.010913383,-0.012422158,0.99385005,0.23857117,-0.21942139,9.803635,2.897644,-14.949036,-38.002014,0.23940785,-0.21870443,9.801287,-0.00047148764,-0.0006184429,0.0012903214,-7.6293945e-05,4.5776367e-05,-9.1552734e-05
0.010906382,-0.0124336,0.993852,0.23928833,-0.21774292,9.804108,2.6397705,-15.255737,-38.50403,0.2392918,-0.21894705,9.801285,-0.00033664703,-0.00063699484,-0.0015411377,0.00016784668,4.5776367e-05,-3.0517578e-05
0.010905724,-0.012401143,0.99385166,0.24023438,-0.21749878,9.804825,2.922058,-16.033936,-38.902283,0.23921092,-0.21831422,9.801301,0.00047017634,0.00087341666,-0.00071048737,0.00016784668,-1.5258789e-05,-3.0517578e-05
0.010920874,-0.012381074,0.9938474,0.23880005,-0.21655273,9.802444,2.3147583,-15.428162,-37.620544,0.23947185,-0.21788096,9.801305,0.00021110475,0.00020936131,-0.00016117096,-7.6293945e-05,-1.5258789e-05,1.5258789e-05
0.010920023,-0.012358522,0.99384725,0.23928833,-0.21942139,9.80603,3.050232,-15.081787,-38.33618,0.23940775,-0.2174423,9.801316,-0.00019028783,0.0011980832,-0.000582695,4.5776367e-05,4.5776367e-05,-9.1552734e-05
0.010894634,-0.012388059,0.99385434,0.23904419,-0.21966553,9.804352,2.017212,-15.016174,-36.92169,0.23896194,-0.2180883,9.801312,-0.00047245622,-0.001502648,0.00087833405,-1.5258789e-05,0.00010681152,-9.1552734e-05
0.010886228,-0.01240527,0.99385685,0.23951721,-0.21655273,9.804108,3.036499,-15.452576,-37.730408,0.2388298,-0.21844746,9.801308,0.00013512373,-0.00042840838,-0.00020885468,-7.6293945e-05,0.00016784668,9.1552734e-05
0.010887677,-0.012377434,0.993856,0.2400055,-0.21966553,9.806259,4.0023804,-15.385437,-38.134766,0.23880067,-0.2178993,9.80132,0.00041230023,0.0011711866,-0.00030517578,4.5776367e-05,-1.5258789e-05,9.1552734e-05
0.010910414,-0.01241801,0.99385077,0.23928833,-0.21846008,9.80603,2.1392822,-15.653992,-38.264465,0.23933986,-0.21863136,9.8012905,0.0010513216,-0.0011832565,0.00091838837,-0.0001373291,-1.5258789e-05,-3.0517578e-05
0.010908522,-0.012413814,0.9938512,0.23928833,-0.22061157,9.805557,2.2201538,-15.800476,-37.464905,0.2392933,-0.21855442,9.801294,-0.00010950863,0.00018979609,0.0014162064,-1.5258789e-05,-7.6293945e-05,-3.0517578e-05
0.010904646,-0.012447737,0.99385273,0.23832703,-0.21846008,9.805069,2.243042,-15.138245,-38.237,0.2392866,-0.21922816,9.801279,-9.703636e-05,-0.001292944,-0.00049972534,4.5776367e-05,-7.6293945e-05,9.1552734e-05
0.01089842,-0.012413054,0.9938538,0.2400055,-0.21751404,9.802444,2.7908325,-15.692139,-37.164307,0.23908977,-0.21856682,9.801299,-0.0006185174,0.0013882667,0.00014781952,-1.5258789e-05,0.0,9.1552734e-05
0.0109125115,-0.012430523,0.9938504,0.237854,-0.21966553,9.806992,1.3580322,-15.272522,-37.47406,0.23940791,-0.21887036,9.801284,0.00052703917,-0.0004865378,-0.0024442673,-0.0001373291,0.00010681152,-3.0517578e-05