rotationVector_x,rotationVector_y,rotationVector_z,accelerometer_x,accelerometer_y,accelerometer_z,magneticField_x,magneticField_y,magneticField_z,gravity_x,gravity_y,gravity_z,linearAcceleration_x,linearAcceleration_y,linearAcceleration_z,gyroscope_x,gyroscope_y,gyroscope_z
0.010728146,-0.012178102,0.991755,0.2368927,-0.21296692,9.791428,3.0685425,-16.464233,-38.542175,0.23904166,-0.21013625,9.801484,0.001353696,-0.0015521199,-0.00078582764,4.5776367e-05,3.0517578e-05,-3.0517578e-05
0.011031247,-0.012541438,0.9916805,0.18664551,-0.17468262,9.765106,3.7368774,-15.910339,-38.456726,0.2459548,-0.21631746,9.801178,0.013479039,-0.011554107,0.008104324,-0.00032043457,0.0002746582,0.0007019043
0.01020444,-0.011869355,0.99189,0.3254242,-0.25125122,9.836899,4.5562744,-15.487671,-38.858032,0.22788267,-0.20566493,9.801845,-0.03517571,0.021587,-0.021090508,0.00016784668,-0.0005187988,-0.0010681152
0.011111507,-0.012323976,0.99165356,0.1268158,-0.1531372,9.714859,3.729248,-16.053772,-38.713074,0.24701954,-0.21183175,9.8012495,0.0358676,-0.0127007365,0.019939423,-0.00019836426,0.00045776367,0.000579834
0.010210151,-0.012063215,0.9918928,0.34217834,-0.23928833,9.879959,3.3569336,-15.122986,-39.942932,0.22846429,-0.20943101,9.801752,-0.034103632,0.0055077076,-0.01799488,0.00016784668,-0.00064086914,-9.1552734e-05
0.0110419495,-0.012107053,0.9916677,0.15074158,-0.22732544,9.755539,3.591919,-15.481567,-38.51471,0.24510619,-0.20780832,9.801384,0.028925419,0.0016960651,0.01881504,4.5776367e-05,0.0005187988,-0.00015258789
0.010343695,-0.012103218,0.99185765,0.30389404,-0.1651001,9.860825,4.071045,-15.670776,-38.420105,0.23121619,-0.20981748,9.801678,-0.023749605,-0.0036297888,-0.014927864,0.00016784668,-0.0008087158,3.0517578e-05
0.010964344,-0.01205429,0.9916877,0.18424988,-0.2536316,9.774673,3.6392212,-16.12854,-39.479065,0.24343482,-0.20701222,9.801442,0.020359948,0.0049340874,0.011299133,-1.5258789e-05,0.0008239746,-0.0001373291
0.010449232,-0.012072204,0.9918284,0.27278137,-0.17468262,9.829712,4.2175293,-15.722656,-39.72168,0.23323941,-0.20889984,9.80165,-0.016476408,-0.00283131,-0.007815361,-1.5258789e-05,-0.00076293945,-9.1552734e-05
0.010877882,-0.012179766,0.9917142,0.20100403,-0.21296692,9.789032,3.5629272,-16.061401,-39.31122,0.24202254,-0.20972048,9.801419,0.013416141,-0.0021850318,0.0061426163,-7.6293945e-05,0.0007019043,0.00021362305
0.010676326,-0.012179873,0.99176913,0.2536316,-0.17706299,9.820145,4.40979,-15.133667,-39.00757,0.23801567,-0.2103255,9.801504,0.004543081,-0.004256934,0.0018358231,-1.5258789e-05,0.0008239746,0.0002746582
0.010644529,-0.012064375,0.99177516,0.21057129,-0.24406433,9.786652,3.6437988,-16.056824,-39.312744,0.23710279,-0.20816647,9.801573,0.0006571263,0.0043629706,0.00072574615,4.5776367e-05,-0.0007019043,-0.0001373291
0.010592897,-0.012077683,0.9917895,0.27278137,-0.19142151,9.827316,3.5079956,-15.635681,-38.08899,0.23610877,-0.20857996,9.801588,-0.003817916,-0.0009816736,-0.0019044876,0.00010681152,0.0007019043,-7.6293945e-05
0.010646834,-0.012122943,0.9917759,0.18424988,-0.21296692,9.777069,4.4265747,-14.84375,-38.41858,0.23729098,-0.20930251,9.801544,0.00381352,-0.0011883527,0.0028715134,-7.6293945e-05,-0.00064086914,9.1552734e-05
0.010689469,-0.012341631,0.9917692,0.17228699,-0.112457275,9.8033905,2.1499634,-15.663147,-36.982727,0.23867016,-0.21344288,9.801422,-0.000119417906,-0.008600026,-0.006041527,-1.5258789e-05,0.00047302246,-3.0517578e-05
0.010596375,-0.011933009,0.9917853,0.23449707,-0.24406433,9.810577,4.2297363,-14.065552,-37.27112,0.23582639,-0.20574641,9.801654,-0.00331828,0.015830427,0.0055303574,-1.5258789e-05,-0.0009460449,-9.1552734e-05
0.010598236,-0.012293722,0.9917929,0.23210144,-0.117248535,9.846466,2.7038574,-15.614319,-38.430786,0.23673938,-0.21277988,9.801483,-0.0015972257,-0.013992503,-0.0010766983,-0.0001373291,0.00077819824,0.0002746582
0.010685998,-0.011986551,0.9917621,0.22732544,-0.3134613,9.789032,3.312683,-16.299438,-38.89618,0.23773779,-0.20652413,9.801593,0.00480558,0.0130263865,0.0013389587,-1.5258789e-05,-0.0008239746,-0.0002746582
0.010567522,-0.012137573,0.99179775,0.2679901,-0.1268158,9.824936,4.7958374,-15.545654,-38.8031,0.2357497,-0.20982419,9.801571,-0.006552264,-0.0069259703,-0.0041971207,-1.5258789e-05,0.00064086914,0.00022888184
0.010752088,-0.012143519,0.9917477,0.17706299,-0.23210144,9.772293,4.2144775,-16.253662,-37.1109,0.23943351,-0.20938987,9.801492,0.009564593,0.00058592856,0.0051698685,0.00016784668,-0.0005187988,-9.1552734e-05
0.0104875695,-0.01202393,0.9918169,0.3062744,-0.22253418,9.84407,3.9627075,-16.337585,-37.94861,0.23388454,-0.20784412,9.801658,-0.012087554,0.0037603825,-0.006278038,-0.0001373291,0.0005340576,4.5776367e-05
0.010734732,-0.012231568,0.9917544,0.1603241,-0.16989136,9.777069,3.1707764,-16.023254,-38.305664,0.23930268,-0.21115991,9.8014555,0.011355415,-0.006490469,0.0065050125,-0.0001373291,-0.00039672852,9.1552734e-05
0.010458839,-0.012092638,0.99182624,0.31825256,-0.24645996,9.832108,4.156494,-15.518188,-38.319397,0.23347996,-0.20927013,9.801638,-0.012400314,0.0042253733,-0.0065107346,-7.6293945e-05,0.0002746582,-7.6293945e-05
0.010769916,-0.012127469,0.99174243,0.16749573,-0.19142151,9.767502,3.2196045,-15.080261,-37.208557,0.23974882,-0.20902334,9.801491,0.012848228,-0.0005094856,0.005224228,0.00010681152,-0.00033569336,-3.0517578e-05
0.010557356,-0.012156845,0.9918009,0.29910278,-0.21774292,9.84407,3.8986206,-15.82489,-38.59558,0.23559433,-0.21023047,9.801565,-0.008307636,-0.002227217,-0.005133629,4.5776367e-05,0.000289917,0.00021362305
0.010813104,-0.012130082,0.99173075,0.18185425,-0.22970581,9.772293,3.201294,-15.367126,-37.945557,0.2406137,-0.20894507,9.801471,0.009346113,0.002766654,0.004887581,4.5776367e-05,-0.00021362305,-3.0517578e-05
0.010524961,-0.012164689,0.9918099,0.2871399,-0.19142151,9.827316,3.3187866,-14.559937,-37.561035,0.23496924,-0.21047983,9.801575,-0.01103726,-0.00340043,-0.0037660599,4.5776367e-05,-9.1552734e-05,9.1552734e-05
0.010774555,-0.012117111,0.99174094,0.1986084,-0.22253418,9.78186,3.038025,-15.299988,-38.606262,0.2398158,-0.20880733,9.801494,0.009432107,0.003097549,0.0033903122,4.5776367e-05,9.1552734e-05,-3.0517578e-05
0.010588755,-0.012108101,0.9917913,0.28234863,-0.20100403,9.829712,3.8787842,-16.262817,-38.760376,0.23610026,-0.20918585,9.801575,-0.006655082,-0.00015185773,-0.0038061142,-0.00019836426,-9.1552734e-05,-7.6293945e-05
0.010793659,-0.0121034505,0.99173546,0.19142151,-0.21296692,9.779465,2.5390625,-15.623474,-38.65204,0.24016228,-0.20848358,9.801492,0.007175699,0.0008532405,0.004008293,0.00012207031,0.00021362305,7.6293945e-05
0.010560605,-0.012099462,0.99179876,0.27278137,-0.20817566,9.810577,3.4713745,-14.387512,-39.645386,0.23551968,-0.20910105,9.801592,-0.008486778,-0.0014272779,-0.0025959015,0.00012207031,-0.0002746582,-0.00016784668
0.010744834,-0.012097518,0.99174863,0.20100403,-0.20817566,9.777069,3.666687,-15.849304,-37.4588,0.23917729,-0.20851383,9.801515,0.0065007955,0.0013558865,0.0011463165,-6.1035156e-05,0.0002746582,-0.00016784668
0.010562423,-0.012092671,0.9917981,0.26560974,-0.20578003,9.829712,3.8589478,-15.107727,-37.54425,0.2355393,-0.2089631,9.801593,-0.006087616,-0.0010975152,-0.003083229,6.1035156e-05,-9.1552734e-05,-0.00033569336
0.010724465,-0.012089421,0.991754,0.21534729,-0.21774292,9.791428,3.9169312,-15.463257,-38.371277,0.2387527,-0.2084167,9.801528,0.00621064,0.0017297715,0.0029058456,-6.1035156e-05,0.00022888184,-0.00010681152
0.010610893,-0.012080494,0.9917847,0.25602722,-0.20817566,9.812973,3.2150269,-14.997864,-38.323975,0.23647335,-0.20858125,9.801579,-0.0036963075,-0.00027491152,-0.0015897751,-6.1035156e-05,-0.00015258789,7.6293945e-05
0.010727331,-0.012117421,0.9917538,0.22492981,-0.22013855,9.7986145,2.6031494,-16.209412,-37.942505,0.23887779,-0.20895453,9.801513,0.0034365505,-0.0008236766,0.003581047,-6.1035156e-05,0.00010681152,0.0001373291
0.010631691,-0.012150796,0.9917806,0.2536316,-0.20578003,9.805786,3.0197144,-15.817261,-37.730408,0.23705758,-0.20989117,9.8015375,-0.002863273,-0.0013453811,-0.002234459,-0.00012207031,-0.00033569336,1.5258789e-05
0.01071509,-0.012160463,0.99175817,0.22970581,-0.20817566,9.786652,4.1503906,-15.666199,-38.34839,0.23873918,-0.20983106,9.801498,0.0026104301,0.0003003627,0.002506256,0.0,0.00033569336,7.6293945e-05
0.010616977,-0.012124435,0.99178404,0.2416687,-0.21534729,9.812973,3.038025,-15.452576,-37.730408,0.23670103,-0.2094206,9.801557,-0.0032369345,0.0015525073,-0.0013628006,-0.00018310547,-0.0002593994,1.5258789e-05
0.010665757,-0.012136853,0.99177104,0.23210144,-0.20100403,9.808182,4.0786743,-15.452576,-38.22632,0.23688076,-0.20953214,9.801549,0.0012549013,0.00070254505,0.001332283,-0.00018310547,0.00035095215,-0.00016784668
0.010625167,-0.012131402,0.99178195,0.2368927,-0.20817566,9.7986145,3.6636353,-15.6188965,-39.14795,0.23671617,-0.20937946,9.801557,-0.0010225475,0.00070406497,-0.0011873245,-0.00012207031,0.00016784668,1.5258789e-05
0.010617978,-0.01212248,0.9917837,0.23449707,-0.20817566,9.810577,2.885437,-15.318298,-37.547302,0.23581561,-0.20959297,9.801575,-0.0006740689,-0.0006695688,-0.0,6.1035156e-05,-1.5258789e-05,-4.5776367e-05
0.0106228115,-0.012088606,0.9917816,0.25125122,-0.21057129,9.805786,4.3411255,-15.074158,-37.93335,0.23672998,-0.20870405,9.801571,0.0015279204,0.0015506446,-0.00032520294,0.00012207031,0.00016784668,1.5258789e-05
0.010683512,-0.012103606,0.99176544,0.22970581,-0.21296692,9.805786,3.65448,-16.064453,-37.956238,0.23797312,-0.20881578,9.801538,0.0029162616,0.00023502111,0.0005865097,-6.1035156e-05,-1.5258789e-05,1.5258789e-05
0.010620794,-0.012134112,0.9917832,0.25125122,-0.20100403,9.8033905,3.1906128,-17.330933,-38.497925,0.23680043,-0.20959806,9.80155,-0.002394408,-0.0016098171,0.0011854172,-6.1035156e-05,9.1552734e-05,-0.00015258789
0.01065842,-0.012097668,0.9917721,0.23928833,-0.21057129,9.793823,1.8569946,-16.392517,-39.2334,0.23745987,-0.20877476,9.801552,0.0014891922,0.001155749,0.0003080368,6.1035156e-05,-7.6293945e-05,-0.00010681152
0.010644957,-0.012104413,0.99177593,0.2536316,-0.21296692,9.805786,3.6209106,-14.898682,-38.171387,0.23720862,-0.2089465,9.801554,-0.00064973533,-0.0003556013,-0.0004348755,0.0,4.5776367e-05,-0.00022888184
0.01066783,-0.01210118,0.9917697,0.23210144,-0.21057129,9.800995,5.024719,-15.899658,-38.357544,0.23765546,-0.20881523,9.801546,0.0010521412,-0.00024050474,0.00018310547,0.00018310547,4.5776367e-05,-0.00033569336
0.010642359,-0.012106153,0.9917767,0.24645996,-0.22732544,9.82254,3.2485962,-15.939331,-38.745117,0.23716122,-0.20898822,9.801555,-0.0013059229,-0.00031057,-0.0013093948,-6.1035156e-05,-1.5258789e-05,1.5258789e-05
0.0106442375,-0.012156628,0.9917773,0.22732544,-0.20578003,9.793823,3.8406372,-15.396118,-38.130188,0.23732121,-0.2099676,9.80153,0.00045113266,-0.0014927387,0.00041103363,0.0,-3.0517578e-05,1.5258789e-05
0.010618221,-0.012139043,0.991784,0.24885559,-0.20578003,9.805786,3.4332275,-15.41748,-38.645935,0.23676123,-0.20970194,9.801548,-0.0018097907,0.001556322,-0.003865242,-0.00024414062,-3.0517578e-05,-4.5776367e-05
0.010628742,-0.012113448,0.9917806,0.22970581,-0.21057129,9.791428,3.5598755,-16.13617,-39.175415,0.23690824,-0.20917115,9.801557,0.00018565357,0.001506418,0.00077438354,-0.00024414062,-0.00015258789,-0.00010681152
0.010602439,-0.012140303,0.9917883,0.24645996,-0.21057129,9.812973,3.829956,-15.690613,-38.03711,0.23645054,-0.20977354,9.801555,-0.0010373443,-0.0005135238,0.00020694733,-6.1035156e-05,-3.0517578e-05,-4.5776367e-05
0.01065925,-0.012090904,0.99177176,0.23449707,-0.21057129,9.7986145,4.3273926,-15.516663,-37.191772,0.23745993,-0.20864028,9.801555,0.0019773394,0.0022133142,0.0028543472,-6.1035156e-05,-3.0517578e-05,1.5258789e-05
0.01065892,-0.012058753,0.9917711,0.23449707,-0.20578003,9.800995,3.413391,-16.082764,-37.571716,0.2373752,-0.20801386,9.80157,-0.0005289763,0.0013132542,-0.0027227402,-6.1035156e-05,-3.0517578e-05,-4.5776367e-05
0.010666871,-0.01208519,0.99176955,0.2416687,-0.20817566,9.7986145,3.2791138,-15.435791,-37.73651,0.23759753,-0.20850605,9.801554,0.0001873076,-0.00079908967,0.0018510818,6.1035156e-05,-7.6293945e-05,-0.00010681152
0.01065247,-0.012052838,0.9917727,0.2416687,-0.2033844,9.808182,3.9978027,-15.380859,-38.661194,0.23723261,-0.20791768,9.801576,-0.00087697804,0.0009902269,-0.0016355515,0.0,-7.6293945e-05,0.0001373291
0.0106912535,-0.012077931,0.99176276,0.23210144,-0.21057129,9.805786,3.4423828,-15.426636,-37.51526,0.23806456,-0.20829165,9.801547,0.0013911724,-0.00030325353,0.0009908676,-0.00012207031,-7.6293945e-05,7.6293945e-05
0.010622277,-0.012092229,0.99178183,0.24406433,-0.1986084,9.808182,3.463745,-14.761353,-38.51471,0.23672816,-0.20877635,9.80157,-0.001832515,-0.00076797605,0.0011339188,-0.00012207031,0.00015258789,-0.00016784668
0.010634323,-0.012053424,0.9917777,0.22253418,-0.20100403,9.805786,3.211975,-14.996338,-38.6261,0.2368733,-0.20798318,9.801582,0.00065118074,0.0013168305,0.00091457367,6.1035156e-05,0.00015258789,-4.5776367e-05
0.010625442,-0.012058231,0.9917802,0.24406433,-0.21774292,9.805786,2.7374268,-15.115356,-36.743164,0.23670845,-0.20810346,9.801584,-0.0006197989,-0.00071296096,0.00013065338,0.00012207031,-1.5258789e-05,-0.00016784668
0.010679468,-0.012103908,0.9917666,0.23210144,-0.21057129,9.796219,3.3432007,-15.641785,-38.763428,0.23789346,-0.20883374,9.80154,0.0022592247,-0.0016658455,-0.0005540848,0.00012207031,-7.6293945e-05,0.00019836426
0.010643324,-0.012139767,0.9917772,0.2416687,-0.21774292,9.815353,3.9749146,-15.968323,-38.40332,0.23726207,-0.20964128,9.8015375,-0.0013998747,-0.0011130124,-0.0010061264,0.0,-7.6293945e-05,0.0001373291
0.010699772,-0.012179018,0.9917627,0.23210144,-0.20817566,9.810577,3.2943726,-14.915466,-38.916016,0.23847975,-0.21023884,9.801495,0.0012058765,-0.00073872507,0.00046157837,-0.00024414062,-0.0001373291,-4.5776367e-05
0.010670016,-0.012151214,0.9917702,0.2416687,-0.20578003,9.808182,3.755188,-15.621948,-37.87079,0.23782057,-0.20978509,9.801521,-0.0009931475,-1.1444092e-05,-0.0008211136,0.00018310547,-7.6293945e-05,1.5258789e-05
0.010665823,-0.012093578,0.99177,0.23928833,-0.20817566,9.8033905,2.7694702,-15.975952,-38.279724,0.23801586,-0.20864655,9.801541,-0.00054490566,0.0024655312,0.00041103363,6.1035156e-05,3.0517578e-05,7.6293945e-05
0.010676853,-0.012121146,0.99176764,0.2368927,-0.20578003,9.793823,3.0334473,-15.37323,-38.545227,0.23788339,-0.20917791,9.801533,-0.0003554523,-0.00013116002,0.00087833405,-0.00018310547,9.1552734e-05,-4.5776367e-05
0.010670304,-0.012090854,0.9917688,0.2416687,-0.20100403,9.808182,3.4362793,-15.419006,-38.420105,0.23767954,-0.20860635,9.80155,-0.0003617704,0.0014340729,-0.0027608871,-0.00018310547,-7.6293945e-05,7.6293945e-05
0.010688644,-0.012064677,0.9917632,0.23449707,-0.21057129,9.793823,2.8778076,-15.312195,-38.52539,0.23798043,-0.20804077,9.801554,0.00051516294,0.0013521761,0.0010309219,-6.1035156e-05,3.0517578e-05,7.6293945e-05
0.010644854,-0.012093366,0.99177575,0.2416687,-0.20817566,9.800995,3.8375854,-16.755676,-41.35132,0.23717974,-0.20873125,9.801559,-0.0017587543,-0.0013341159,-0.001865387,0.00012207031,-7.6293945e-05,7.6293945e-05
0.010653368,-0.01208868,0.9917733,0.22970581,-0.20578003,9.800995,3.6590576,-15.843201,-38.363647,0.23733759,-0.20861441,9.801558,0.0004708618,0.0004787594,0.00066947937,-6.1035156e-05,9.1552734e-05,0.00019836426
0.010631258,-0.012080389,0.99177915,0.24406433,-0.20817566,9.810577,4.295349,-15.791321,-39.663696,0.23687792,-0.20851855,9.801572,-0.00052429736,0.00015689433,0.0017251968,0.0,3.0517578e-05,0.0001373291
0.0106667215,-0.012092162,0.99176973,0.22732544,-0.21534729,9.805786,4.626465,-15.623474,-39.567566,0.23761152,-0.20864254,9.801551,0.00091198087,-0.00020840764,-0.0015611649,0.0,-0.0001373291,1.5258789e-05
0.010615121,-0.01206811,0.99178326,0.2416687,-0.21296692,9.800995,3.4179688,-17.378235,-40.026855,0.2365273,-0.208327,9.801584,-0.0020663738,0.00018319488,-0.00088214874,0.0,-3.0517578e-05,7.6293945e-05
0.01063515,-0.012031439,0.99177694,0.23928833,-0.2033844,9.805786,3.088379,-15.873718,-39.253235,0.2368363,-0.20755172,9.801593,0.0012099147,0.001315549,3.6239624e-05,6.1035156e-05,0.00021362305,1.5258789e-05
0.01062614,-0.01208833,0.9917807,0.2368927,-0.20578003,9.8033905,3.8909912,-15.9713745,-38.853455,0.23679549,-0.20868875,9.80157,0.00029224157,-0.0015951246,0.000992775,6.1035156e-05,0.00015258789,-4.5776367e-05
0.010612565,-0.012051858,0.99178356,0.24406433,-0.20817566,9.800995,3.3309937,-15.936279,-38.671875,0.236437,-0.20801745,9.801592,-8.353591e-05,0.0010902286,0.0014486313,-0.00018310547,3.0517578e-05,1.5258789e-05
0.01068476,-0.012061578,0.9917641,0.23449707,-0.21057129,9.805786,4.1000366,-16.760254,-38.56964,0.2378957,-0.20799191,9.801558,0.0027674288,0.0005721301,-0.0018987656,-6.1035156e-05,-3.0517578e-05,0.0002746582
0.010652508,-0.012067112,0.99177307,0.23928833,-0.2033844,9.808182,4.298401,-16.023254,-38.049316,0.23726805,-0.20819609,9.801568,-0.0011383593,0.00028952956,0.00017261505,-6.1035156e-05,9.1552734e-05,1.5258789e-05
0.010649247,-0.012081788,0.99177426,0.23928833,-0.20578003,9.808182,3.8085938,-16.127014,-38.201904,0.2372389,-0.2084922,9.801562,-0.00015518069,-0.0005980581,0.0005941391,-0.00012207031,-3.0517578e-05,7.6293945e-05
0.010652659,-0.012112923,0.991774,0.2368927,-0.21774292,9.796219,2.9510498,-15.603638,-37.532043,0.23738241,-0.2090896,9.801546,0.0011282265,-0.0014283508,0.0005502701,6.1035156e-05,9.1552734e-05,-4.5776367e-05
0.010653845,-0.012117564,0.99177384,0.23210144,-0.2033844,9.810577,3.6834717,-15.486145,-37.31079,0.23741728,-0.20917664,9.801544,0.00062163174,-0.0008676201,-0.0014028549,0.00018310547,0.00021362305,0.0001373291
0.010643507,-0.012102265,0.9917763,0.23928833,-0.21296692,9.808182,2.5039673,-16.427612,-38.737488,0.23717459,-0.20890892,9.801556,-0.00010471046,0.00053466856,0.00065898895,0.0,9.1552734e-05,-0.00010681152
0.010668398,-0.012132653,0.9917702,0.23449707,-0.2033844,9.810577,3.2485962,-15.863037,-39.257812,0.23774327,-0.2094277,9.801531,0.0012432039,-0.0006044805,0.0004415512,-0.00018310547,0.00015258789,-4.5776367e-05
0.010640247,-0.012084923,0.99177676,0.23449707,-0.21296692,9.8033905,2.8335571,-16.33606,-38.356018,0.23706762,-0.20858021,9.801565,-0.001210168,0.0011867732,0.001408577,0.00012207031,-3.0517578e-05,-0.000289917
0.010631934,-0.012071162,0.99177873,0.2416687,-0.21296692,9.808182,3.779602,-15.037537,-37.902832,0.23686893,-0.20833649,9.801576,0.00041736662,-1.3455749e-05,0.00045108795,0.00018310547,0.00015258789,1.5258789e-05
0.01064625,-0.012032848,0.99177396,0.2416687,-0.20578003,9.793823,3.8146973,-15.827942,-38.970947,0.23706035,-0.20754611,9.801587,0.0007184595,0.0013436228,-0.00034427643,6.1035156e-05,9.1552734e-05,-0.0002746582
0.010669219,-0.012029348,0.99176764,0.23928833,-0.21057129,9.789032,3.4667969,-16.589355,-37.904358,0.23750842,-0.20740934,9.801579,0.0017030686,-0.00045508146,7.43866e-05,0.00012207031,0.00021362305,-0.00016784668
0.0106828725,-0.01208164,0.99176514,0.2416687,-0.2033844,9.8033905,3.0944824,-15.803528,-38.78784,0.23790698,-0.20838904,9.801549,0.000849545,-0.0018999875,-0.002820015,0.00012207031,0.00015258789,1.5258789e-05
0.010687575,-0.012049295,0.9917631,0.23449707,-0.2033844,9.796219,3.7246704,-16.127014,-38.879395,0.23792177,-0.20774382,9.801562,0.00012101233,0.00032033026,-0.0002965927,0.0,3.0517578e-05,-4.5776367e-05
0.010650489,-0.012021217,0.99177253,0.2368927,-0.21534729,9.800995,3.9154053,-15.611267,-37.87384,0.23711632,-0.2073065,9.801591,-0.0007529557,0.0010874122,0.0013942719,0.0,0.00021362305,1.5258789e-05
0.010639317,-0.012052974,0.99177635,0.2368927,-0.2033844,9.808182,3.6956787,-14.886475,-39.30359,0.23697151,-0.20795955,9.801581,0.00032255054,-0.0013433993,0.0012407303,-6.1035156e-05,9.1552734e-05,7.6293945e-05
0.010630175,-0.012054248,0.99177885,0.2368927,-0.20817566,9.812973,3.6437988,-16.210938,-38.28888,0.23679286,-0.20801164,9.801584,-0.00022009015,-9.743869e-05,0.00034809113,-6.1035156e-05,0.00015258789,-0.00016784668
0.010622096,-0.012046828,0.9917809,0.2368927,-0.20578003,9.800995,4.3273926,-15.289307,-38.354492,0.23661423,-0.2078909,9.80159,-0.00026145577,1.8164515e-05,-0.0007266998,0.00012207031,3.0517578e-05,0.00019836426
0.010650946,-0.012043378,0.99177295,0.23449707,-0.2033844,9.796219,4.23584,-15.586853,-38.108826,0.23717932,-0.20773764,9.801581,0.0008401722,9.050965e-05,-0.00032138824,0.0,-3.0517578e-05,1.5258789e-05
0.010615607,-0.012016794,0.99178195,0.23928833,-0.21057129,9.805786,2.9769897,-16.534424,-39.61029,0.23641227,-0.20732416,9.801608,-0.0007637292,0.0018069595,-0.0019741058,-0.00012207031,3.0517578e-05,-4.5776367e-05
0.010610603,-0.012061948,0.99178433,0.23928833,-0.21057129,9.812973,4.400635,-15.504456,-38.023376,0.23642251,-0.20822018,9.801588,0.0008870214,-0.0015844554,0.0013952255,0.0,0.00015258789,7.6293945e-05
0.010634235,-0.01210484,0.99177885,0.2368927,-0.2033844,9.8033905,2.87323,-15.611267,-37.379456,0.2369965,-0.20898679,9.801558,0.001273796,-0.0012903064,-2.5749207e-05,-0.00018310547,0.00021362305,1.5258789e-05
0.010663235,-0.012090071,0.9917707,0.23210144,-0.21296692,9.7986145,2.9022217,-16.622925,-38.417053,0.23753712,-0.20861216,9.801554,0.0012024939,0.0016797632,0.0003042221,-0.00018310547,-3.0517578e-05,0.0001373291
0.010654332,-0.012099065,0.9917733,0.23928833,-0.2033844,9.808182,3.4988403,-15.933228,-37.54425,0.23738201,-0.2088142,9.801553,-0.0010481924,-0.000476107,0.0021219254,-0.00012207031,-7.6293945e-05,-0.00033569336
0.010648675,-0.01209475,0.99177474,0.23928833,-0.20817566,9.8033905,2.5100708,-16.43219,-38.059998,0.23725908,-0.20874687,9.801558,0.00028447807,-8.760393e-05,-0.0016231537,6.1035156e-05,-3.0517578e-05,-0.00022888184
0.0106376875,-0.012073604,0.99177724,0.23210144,-0.20578003,9.8033905,4.2175293,-15.722656,-39.570618,0.23698924,-0.20836698,9.801572,-0.00041671097,0.00025816262,0.00082588196,0.00012207031,9.1552734e-05,-0.00022888184
0.01064973,-0.012103937,0.9917746,0.2368927,-0.21057129,9.8033905,3.6193848,-14.89563,-38.69934,0.23730238,-0.208923,9.801553,0.001196906,-0.0015850067,-0.00041389465,0.00012207031,0.00015258789,-0.00010681152
0.010682961,-0.012127553,0.99176615,0.23210144,-0.2033844,9.8033905,2.9800415,-16.540527,-38.9328,0.23802039,-0.20928474,9.801527,0.00093896687,-0.0007389486,0.0010099411,6.1035156e-05,-0.0001373291,7.6293945e-05
0.01063653,-0.012091886,0.99177796,0.2368927,-0.20817566,9.810577,4.296875,-15.945435,-38.638306,0.23701066,-0.20872717,9.801563,-0.0018861741,0.0013477057,0.00051116943,6.1035156e-05,3.0517578e-05,1.5258789e-05
0.010649297,-0.012070389,0.991774,0.23928833,-0.2033844,9.796219,2.9281616,-16.18805,-37.724304,0.2372122,-0.20826963,9.801568,0.0007728338,0.000897035,0.00066280365,-0.00012207031,9.1552734e-05,7.6293945e-05
0.010647524,-0.012042839,0.99177384,0.23449707,-0.21057129,9.793823,3.4835815,-16.29486,-37.99591,0.23710999,-0.2077373,9.801582,0.00015868247,0.0006079674,-5.2452087e-05,0.00018310547,9.1552734e-05,-4.5776367e-05
0.010659305,-0.012072503,0.99177134,0.22970581,-0.20578003,9.808182,2.87323,-15.383911,-38.542175,0.23741628,-0.20828104,9.801563,0.0006117523,-0.0017538518,-0.0035505295,6.1035156e-05,9.1552734e-05,-0.00016784668
0.010650688,-0.012076309,0.9917738,0.24645996,-0.21534729,9.808182,3.5171509,-15.264893,-39.071655,0.23725422,-0.20838098,9.801564,-0.00042435527,-0.00021253526,0.000664711,6.1035156e-05,-0.0001373291,-0.00010681152
0.010679853,-0.012119936,0.9917668,0.23928833,-0.20578003,9.7986145,2.848816,-16.122437,-37.63275,0.2379401,-0.20914538,9.801533,0.001742363,-0.00086827576,0.0012483597,-6.1035156e-05,3.0517578e-05,-0.00010681152
0.010702677,-0.012085985,0.99175984,0.2416687,-0.1986084,9.800995,3.2058716,-15.142822,-38.656616,0.23831123,-0.20841472,9.801538,0.00042316318,0.001486659,-0.001077652,-6.1035156e-05,-1.5258789e-05,-4.5776367e-05
0.010714252,-0.012103352,0.9917571,0.24406433,-0.21534729,9.8033905,2.82135,-14.730835,-38.557434,0.23858355,-0.20871904,9.801525,0.0006456226,-0.00036615133,-0.00056552887,-6.1035156e-05,9.1552734e-05,-4.5776367e-05
0.010693409,-0.012129895,0.99176335,0.2368927,-0.21057129,9.810577,3.0838013,-16.021729,-39.13269,0.2382338,-0.20929927,9.801522,-0.0014168471,-0.0007172078,0.0013923645,-0.00012207031,-7.6293945e-05,0.0001373291
0.010675523,-0.012163494,0.99176896,0.22970581,-0.21057129,9.805786,3.0273438,-15.519714,-38.49945,0.2379599,-0.21000826,9.801513,-0.0006734133,-0.0009661168,0.00029182434,-0.00018310547,-3.0517578e-05,-0.00016784668
0.010676922,-0.012102405,0.9917672,0.2368927,-0.2033844,9.810577,2.9327393,-15.968323,-37.756348,0.23783919,-0.208812,9.801541,-0.0007811636,0.002383992,3.6239624e-05,-6.1035156e-05,-0.0001373291,-0.00010681152
0.010652168,-0.012099604,0.9917739,0.23449707,-0.20817566,9.796219,3.062439,-16.612244,-38.27057,0.2373403,-0.20883119,9.801554,-0.00049342215,0.00093999505,-0.0026798248,-0.00012207031,-3.0517578e-05,-0.00021362305
0.010667102,-0.012048568,0.99176866,0.23928833,-0.20817566,9.7986145,3.5110474,-15.637207,-37.86316,0.23751308,-0.20779072,9.801572,0.00050745904,0.0020652562,0.0013971329,-6.1035156e-05,9.1552734e-05,7.6293945e-05
0.010676094,-0.012063301,0.9917666,0.22732544,-0.20578003,9.805786,3.8970947,-15.74707,-39.186096,0.23772766,-0.20805141,9.801561,0.00029286742,-0.0005427152,-2.3841858e-05,6.1035156e-05,-3.0517578e-05,-0.00022888184
0.01063794,-0.012069494,0.99177706,0.23928833,-0.2033844,9.808182,4.312134,-15.653992,-38.50403,0.23698425,-0.208286,9.801573,-0.00160487,-0.0005374104,0.0014190674,-0.00012207031,3.0517578e-05,-0.000289917
0.010646088,-0.0120307645,0.99177396,0.2416687,-0.21057129,9.791428,3.567505,-16.064453,-38.708496,0.23705208,-0.20750594,9.801588,0.00072337687,0.0022676736,-1.04904175e-05,-6.1035156e-05,9.1552734e-05,-0.00016784668
0.01061506,-0.012044522,0.9917827,0.23928833,-0.20100403,9.805786,3.4439087,-15.275574,-38.24005,0.23646876,-0.20786686,9.801595,-0.00060786307,-1.7940998e-05,-0.0006380081,-0.00018310547,9.1552734e-05,7.6293945e-05
0.010630021,-0.012043728,0.9917786,0.2368927,-0.20578003,9.808182,2.9663086,-15.010071,-38.8443,0.23676422,-0.2078068,9.801589,-0.00020216405,-0.00053708255,0.0011043549,-6.1035156e-05,-7.6293945e-05,7.6293945e-05
0.010633985,-0.012061715,0.99177796,0.23928833,-0.20817566,9.8033905,2.8015137,-15.397644,-37.257385,0.23688672,-0.20814599,9.8015785,0.00062932074,-0.0009085387,0.00056934357,6.1035156e-05,9.1552734e-05,7.6293945e-05
0.010614862,-0.012038412,0.99178267,0.2416687,-0.1986084,9.793823,3.3966064,-16.37268,-38.15918,0.23644999,-0.20774822,9.801598,-0.0003414601,0.0013099015,-0.002175331,-6.1035156e-05,0.00021362305,7.6293945e-05
0.010597101,-0.01199327,0.9917864,0.2416687,-0.21057129,9.805786,2.0568848,-15.731812,-38.349915,0.23598728,-0.20692022,9.801626,0.0001257658,0.0011949688,-0.00034332275,0.0,0.00021362305,7.6293945e-05
0.010620582,-0.012021009,0.9917807,0.2416687,-0.20578003,9.7986145,3.1265259,-15.072632,-38.941956,0.23652141,-0.2073916,9.801604,0.0014913827,-0.0011956096,0.0005598068,0.00012207031,0.00016784668,-0.00010681152
0.010641843,-0.012012715,0.99177474,0.2368927,-0.20817566,9.8033905,3.0685425,-14.796448,-37.599182,0.23692383,-0.20716639,9.801599,0.0008763969,0.00022792816,-0.0013790131,6.1035156e-05,0.00015258789,-0.00016784668
0.010690141,-0.012016369,0.9917617,0.2416687,-0.2033844,9.8033905,3.1829834,-15.9591675,-37.008667,0.23789266,-0.20709364,9.801577,0.0020598024,0.00015431643,-0.00012683868,0.0,-0.0001373291,7.6293945e-05
0.010658093,-0.012049413,0.99177116,0.23928833,-0.21774292,9.8033905,3.6010742,-15.412903,-37.89673,0.23733604,-0.20783408,9.801575,-0.00097605586,-0.0012506247,0.0005569458,-6.1035156e-05,3.0517578e-05,1.5258789e-05
0.0106528215,-0.012073999,0.9917731,0.23928833,-0.20817566,9.800995,3.565979,-16.142273,-38.27057,0.23729105,-0.20832959,9.801566,0.00050236285,-0.0012272,3.9100647e-05,6.1035156e-05,0.00015258789,7.6293945e-05
0.010678743,-0.012102486,0.9917667,0.23928833,-0.20817566,9.810577,4.0802,-15.45105,-38.375854,0.23787557,-0.20880814,9.80154,0.00086295605,-0.00050368905,3.1471252e-05,-6.1035156e-05,-7.6293945e-05,-0.00010681152
0.010667361,-0.012100434,0.9917698,0.2368927,-0.20817566,9.7986145,2.3208618,-15.356445,-37.530518,0.23764436,-0.20880207,9.801547,0.00013434887,-0.00026872754,0.0011339188,0.0,0.00015258789,1.5258789e-05
0.010633885,-0.012083149,0.9917785,0.24885559,-0.21057129,9.7986145,3.138733,-15.007019,-37.719727,0.23693685,-0.20856456,9.801569,-0.0005951524,0.0009305626,0.0002746582,-0.00024414062,3.0517578e-05,-0.00045776367
0.010658749,-0.012119767,0.99177253,0.24406433,-0.20578003,9.8033905,2.9556274,-15.304565,-38.679504,0.23752011,-0.209205,9.80154,0.000987485,-0.00082202256,-0.0012464523,6.1035156e-05,-3.0517578e-05,-0.00016784668
0.010699487,-0.0121308835,0.99176174,0.23210144,-0.20817566,9.808182,3.3187866,-16.305542,-38.14087,0.23835704,-0.2093004,9.801518,0.0015690029,-0.00023980439,0.001244545,0.00012207031,3.0517578e-05,-0.00016784668
0.0107015185,-0.0121191265,0.9917609,0.23928833,-0.21296692,9.800995,3.6254883,-16.343689,-39.900208,0.23836884,-0.20906493,9.801524,0.0001243949,-0.0002478212,-0.00013256073,6.1035156e-05,3.0517578e-05,-0.00016784668
0.010693221,-0.012149421,0.99176383,0.23449707,-0.21057129,9.8033905,3.4240723,-15.940857,-37.091064,0.23827752,-0.20968083,9.801512,0.00019726157,-0.0008056462,0.001499176,0.0,0.00015258789,-0.00022888184
0.010660421,-0.012109562,0.9917719,0.22732544,-0.21296692,9.800995,2.972412,-14.9383545,-38.606262,0.23752856,-0.20900089,9.801545,-0.00096063316,0.00089615583,-0.0012369156,0.0,9.1552734e-05,-0.000289917
0.010596152,-0.012100661,0.99178916,0.24406433,-0.21296692,9.8033905,3.8146973,-15.371704,-41.522217,0.2362293,-0.20901869,9.801577,-0.0022785664,0.00019073486,-0.00051021576,-0.00012207031,-3.0517578e-05,1.5258789e-05
0.010629469,-0.012085979,0.99177974,0.22970581,-0.19621277,9.7986145,3.6941528,-14.962769,-38.789368,0.23685592,-0.20863295,9.801569,0.0011497587,0.0012424439,0.00030517578,-0.00012207031,3.0517578e-05,-0.00016784668
0.010666753,-0.012025033,0.99176824,0.22970581,-0.20578003,9.8033905,2.772522,-15.673828,-39.653015,0.2374489,-0.20733249,9.801582,0.0010447502,0.0028103292,4.2915344e-05,-0.00012207031,-7.6293945e-05,-0.00039672852
0.010671406,-0.012050065,0.9917675,0.2368927,-0.21057129,9.800995,4.220581,-15.725708,-39.193726,0.23760225,-0.20780708,9.801568,0.000156492,-5.4463744e-05,0.00019931793,-0.00018310547,9.1552734e-05,-0.00016784668
0.010682435,-0.012069186,0.99176496,0.2368927,-0.21057129,9.812973,3.2424927,-16.085815,-38.92517,0.23786798,-0.20814732,9.801555,0.0006289035,-0.00068050623,-0.0005083084,6.1035156e-05,9.1552734e-05,-0.00010681152
0.010662902,-0.0120785255,0.9917705,0.23449707,-0.20578003,9.820145,3.5766602,-15.69519,-39.463806,0.23750244,-0.20838785,9.801559,-0.00019137561,-0.0004570037,-0.0016145706,0.0,0.00015258789,-0.000289917
0.010645993,-0.01205065,0.99177444,0.23210144,-0.19621277,9.7986145,3.2714844,-15.428162,-38.79242,0.23709853,-0.20789428,9.8015785,-0.0002565682,0.0011974424,-0.0002861023,0.0,0.00021362305,-0.00033569336
0.010673896,-0.01203363,0.99176645,0.23928833,-0.21774292,9.8033905,4.2099,-16.323853,-37.428284,0.23761177,-0.20747893,9.801575,0.0016027242,0.0003157258,0.0006046295,6.1035156e-05,9.1552734e-05,-0.00022888184
0.0106300125,-0.012041625,0.9917786,0.2368927,-0.2033844,9.810577,3.5049438,-15.634155,-38.615417,0.23675893,-0.20776576,9.801589,-0.0013615936,-0.00082936883,0.00023555756,0.0,-3.0517578e-05,-0.00033569336
0.010667681,-0.012024128,0.99176794,0.2368927,-0.21296692,9.808182,3.4210205,-15.710449,-38.856506,0.23746514,-0.20731208,9.801583,0.0012717247,0.0013430715,0.00016117096,0.00018310547,3.0517578e-05,-0.00022888184
0.010696552,-0.012013246,0.99175984,0.24406433,-0.20578003,9.812973,3.6026,-15.338135,-38.18512,0.23801246,-0.20701355,9.801575,0.001433894,-0.00038333237,0.0005760193,0.0,0.00015258789,-0.00022888184
0.010681471,-0.012025757,0.99176425,0.23210144,-0.21296692,9.805786,3.3584595,-15.202332,-39.20288,0.2377432,-0.20730272,9.801577,4.3079257e-05,-0.00034086406,-0.0002603531,6.1035156e-05,0.00021362305,-0.00010681152
0.010672579,-0.012017171,0.99176645,0.23210144,-0.21774292,9.808182,3.6514282,-16.062927,-38.182068,0.23754556,-0.2071617,9.801584,0.00022351742,-0.00022274256,0.0014152527,-0.00018310547,3.0517578e-05,-0.00010681152
0.010680846,-0.012090537,0.99176586,0.2368927,-0.20817566,9.8033905,3.5461426,-16.654968,-38.07373,0.23788832,-0.20856869,9.801545,0.00081437826,-0.0021461248,0.0009469986,6.1035156e-05,9.1552734e-05,-0.00016784668
0.010654476,-0.012082484,0.9917729,0.23449707,-0.2033844,9.800995,3.4179688,-15.859985,-38.130188,0.23734455,-0.20849021,9.80156,-0.0005390495,-8.188188e-05,-0.0008096695,-6.1035156e-05,0.00015258789,-0.00022888184
0.010642021,-0.012093232,0.9917765,0.2416687,-0.20817566,9.808182,3.1692505,-16.098022,-38.017273,0.23712309,-0.20873708,9.80156,-0.00057038665,-7.137656e-05,0.0007362366,-0.00012207031,-0.0002593994,-0.000289917
0.010688032,-0.012100447,0.9917641,0.23210144,-0.20817566,9.800995,3.3157349,-14.328003,-39.326477,0.2380553,-0.20874065,9.801538,0.0015936196,0.00019054115,0.0012979507,6.1035156e-05,0.00015258789,1.5258789e-05
0.010662627,-0.012093809,0.9917709,0.23449707,-0.20578003,9.800995,3.791809,-14.819336,-37.557983,0.23753414,-0.2086869,9.801552,-0.00049455464,0.00012369454,-0.0012140274,-0.00012207031,3.0517578e-05,1.5258789e-05
0.010616139,-0.012102106,0.99178374,0.23210144,-0.20578003,9.810577,3.1906128,-15.661621,-37.70294,0.2366301,-0.20898733,9.801566,-0.0017331988,-8.498132e-05,-0.0019254684,-6.1035156e-05,9.1552734e-05,-0.00016784668
0.010617108,-0.012107566,0.9917836,0.2416687,-0.21296692,9.8033905,2.7954102,-15.391541,-38.16223,0.23666266,-0.20909102,9.801564,0.0004028529,1.707673e-05,-0.00016593933,-0.00012207031,0.00015258789,-0.00016784668
0.01061092,-0.0121303005,0.99178576,0.23928833,-0.21296692,9.7986145,3.5736084,-15.9210205,-38.37738,0.23659487,-0.20955311,9.801557,0.00046408176,-0.00023202598,0.0005302429,-0.00024414062,0.00015258789,1.5258789e-05
0.0106441425,-0.012148615,0.9917772,0.2368927,-0.2033844,9.800995,3.2791138,-15.435791,-37.73651,0.23729986,-0.20981151,9.801534,0.0019403696,0.00024403632,-0.0025253296,-0.00012207031,9.1552734e-05,7.6293945e-05
0.010625685,-0.012125235,0.99178165,0.23928833,-0.20817566,9.791428,3.1066895,-15.663147,-38.22937,0.23687609,-0.20941027,9.801552,-0.0005143881,0.0012723655,-0.0004014969,-0.00018310547,3.0517578e-05,-0.00045776367
0.010625152,-0.012115097,0.9917816,0.23449707,-0.20817566,9.8033905,3.1311035,-15.155029,-37.67395,0.23684087,-0.20921402,9.801558,1.257658e-05,0.0010730177,-0.0002641678,-6.1035156e-05,0.00015258789,-4.5776367e-05
0.0105887335,-0.012070435,0.9917905,0.22970581,-0.2033844,9.800995,2.9464722,-15.59906,-38.13629,0.23600839,-0.20845093,9.801594,-0.0010802597,0.0017466545,0.00029850006,6.1035156e-05,9.1552734e-05,-0.00010681152
0.010603369,-0.012078911,0.99178666,0.23928833,-0.21057129,9.800995,3.6056519,-15.1901245,-38.456726,0.23631993,-0.20857276,9.801583,0.000991419,-0.00074508786,0.0009860992,0.0,0.00015258789,-0.00010681152
0.010604078,-0.012086155,0.99178666,0.24406433,-0.2033844,9.8033905,3.8131714,-15.979004,-38.398743,0.23635158,-0.20871198,9.8015785,0.0012203753,-0.00014735758,-0.00047779083,6.1035156e-05,9.1552734e-05,-0.00016784668
0.010651241,-0.01207883,0.99177366,0.23210144,-0.21057129,9.796219,3.8253784,-15.686035,-38.565063,0.23727135,-0.20842855,9.801563,0.0019688606,0.0005393177,0.00080013275,6.1035156e-05,3.0517578e-05,-0.00016784668
0.010602779,-0.012055314,0.9917863,0.24406433,-0.20578003,9.8033905,2.8167725,-15.336609,-35.809326,0.23625086,-0.20811404,9.801595,-0.0020130873,0.0004247576,-0.0026636124,-0.00012207031,9.1552734e-05,-0.00045776367
0.010596686,-0.012050679,0.99178785,0.23449707,-0.2033844,9.808182,3.326416,-15.855408,-39.712524,0.23611851,-0.20804176,9.8016,4.801154e-05,0.0010642111,-0.0004901886,-0.00030517578,9.1552734e-05,-0.00022888184
0.010594756,-0.012022914,0.99178773,0.23928833,-0.20578003,9.810577,3.590393,-15.629578,-38.243103,0.23601267,-0.20750566,9.801613,0.00014480948,0.002214536,0.0007982254,0.0,9.1552734e-05,-4.5776367e-05
0.010576723,-0.011973427,0.99179155,0.23449707,-0.2033844,9.7986145,3.8665771,-14.886475,-37.8006,0.23553406,-0.20659365,9.801644,-0.00035132468,0.0010853708,0.0011529922,6.1035156e-05,0.00021362305,-0.00016784668
0.010568074,-0.011986337,0.99179417,0.23928833,-0.21057129,9.8033905,3.578186,-15.771484,-38.801575,0.2353935,-0.2068713,9.801641,4.132092e-05,-0.00032234192,-0.00066661835,-0.00018310547,-3.0517578e-05,-4.5776367e-05
0.010574444,-0.012025357,0.99179333,0.22732544,-0.21296692,9.810577,3.5308838,-15.049744,-38.423157,0.2356149,-0.20761381,9.801621,0.0007840842,-0.0010166317,-0.00028133392,6.1035156e-05,3.0517578e-05,-0.00016784668
0.010588104,-0.012056015,0.9917903,0.2368927,-0.21057129,9.7986145,2.7404785,-15.34729,-35.20508,0.23596086,-0.20817141,9.8016,0.00041882694,-0.001403287,0.0015630722,-0.00018310547,3.0517578e-05,7.6293945e-05
0.010610105,-0.012116037,0.9917857,0.2368927,-0.21057129,9.800995,2.4780273,-15.420532,-37.24823,0.23654401,-0.20927718,9.801563,0.001748696,-0.001019597,-0.00054073334,-0.00012207031,0.00015258789,1.5258789e-05
0.010600436,-0.012123509,0.9917885,0.23210144,-0.21057129,9.810577,3.314209,-14.631653,-37.8006,0.23636991,-0.20945178,9.801563,0.00024102628,-0.00012485683,0.0002670288,0.0,0.00021362305,-0.00010681152
0.010609153,-0.012060551,0.9917847,0.23210144,-0.20817566,9.7986145,3.276062,-15.432739,-38.11493,0.23639028,-0.20819724,9.801589,0.00043991208,0.0017551035,0.0020933151,0.00018310547,-7.6293945e-05,1.5258789e-05
0.010622526,-0.012081559,0.99178153,0.24406433,-0.20578003,9.808182,3.678894,-15.481567,-37.913513,0.23670717,-0.20856737,9.801574,0.00034624338,-0.0012267083,0.00042819977,-6.1035156e-05,3.0517578e-05,1.5258789e-05
0.01061656,-0.012120736,0.99178404,0.2368927,-0.20817566,9.7986145,3.9840698,-15.748596,-38.433838,0.23668373,-0.20934965,9.801558,0.00059069693,-0.0008967519,0.0018825531,-6.1035156e-05,0.00021362305,1.5258789e-05
0.010626862,-0.012044397,0.9917795,0.23210144,-0.2033844,9.812973,4.4052124,-15.357971,-38.145447,0.23670307,-0.20782928,9.80159,0.00082983077,0.0030628592,-0.0011415482,-6.1035156e-05,0.00015258789,-0.00010681152
0.0105969645,-0.012023765,0.9917872,0.2368927,-0.21774292,9.800995,3.843689,-15.39917,-37.75177,0.23605864,-0.20751569,9.801612,-0.00068458915,0.0013214946,0.00067329407,-0.00018310547,0.00015258789,0.0001373291
0.010605051,-0.012019579,0.9917849,0.23928833,-0.20578003,9.800995,3.565979,-16.218567,-37.908936,0.2362092,-0.20740993,9.80161,0.00037649274,0.00025077164,-0.0017900467,0.00018310547,3.0517578e-05,-0.00016784668
0.010641647,-0.012025294,0.99177504,0.2416687,-0.21296692,9.7986145,3.9550781,-16.329956,-39.004517,0.2369505,-0.20741244,9.801593,0.0015655756,-0.0007150024,-0.00071048737,0.0,-3.0517578e-05,-0.00010681152
0.010645343,-0.0120254,0.9917741,0.23210144,-0.20817566,9.7986145,3.4820557,-16.223145,-38.056946,0.23702422,-0.20740348,9.801591,3.6522746e-05,0.00071540475,0.00048828125,-0.00012207031,9.1552734e-05,1.5258789e-05
0.010626772,-0.012015651,0.9917789,0.2368927,-0.20578003,9.805786,3.2302856,-16.529846,-37.957764,0.23663144,-0.2072686,9.801604,-1.6644597e-05,8.380413e-05,-0.0022363663,0.0,9.1552734e-05,-0.00033569336
0.010618033,-0.012073393,0.99178255,0.2368927,-0.21296692,9.800995,2.407837,-15.132141,-37.564087,0.23659803,-0.20842142,9.80158,0.0002590716,-0.0018743724,0.00010681152,6.1035156e-05,0.00015258789,-0.00022888184
0.01061687,-0.012072897,0.9917829,0.2368927,-0.21057129,9.808182,3.4927368,-15.847778,-39.187622,0.2365737,-0.2084152,9.801581,0.00053039193,-0.0006929338,-0.0002641678,0.00012207031,9.1552734e-05,-4.5776367e-05
0.010636424,-0.012071073,0.99177754,0.2368927,-0.2033844,9.7986145,4.373169,-16.012573,-38.728333,0.23695797,-0.20832135,9.801574,0.0010939687,-7.122755e-05,-0.00018024445,6.1035156e-05,3.0517578e-05,-0.00010681152
0.010685104,-0.012114878,0.99176526,0.22732544,-0.21057129,9.808182,3.7353516,-15.985107,-38.171387,0.23803216,-0.20903097,9.801532,0.00074994564,-0.0005632639,-7.05719e-05,-0.00012207031,9.1552734e-05,-0.00016784668
0.010625856,-0.012127008,0.99178165,0.23210144,-0.21296692,9.805786,3.42865,-15.718079,-37.8006,0.23688379,-0.20944436,9.801551,-0.0016960651,-0.00061522424,0.0007429123,-0.00018310547,0.00015258789,-0.00010681152
0.010644894,-0.012086578,0.9917756,0.22970581,-0.21057129,9.812973,2.6351929,-15.403748,-38.08136,0.23716405,-0.20859867,9.801563,0.0011325628,0.0021282285,0.0003414154,0.00012207031,0.00021362305,-0.00021362305
0.010592943,-0.012025528,0.9917883,0.2368927,-0.20578003,9.808182,3.7338257,-15.983582,-38.397217,0.235983,-0.20756206,9.801613,-0.0015275329,0.0015744865,0.0010108948,6.1035156e-05,3.0517578e-05,-4.5776367e-05
0.010603894,-0.012037911,0.9917856,0.24406433,-0.20578003,9.800995,3.6224365,-14.978027,-37.431335,0.23623076,-0.20777115,9.801603,0.00016582012,-0.00038418174,-0.0015516281,-0.00012207031,3.0517578e-05,-0.00016784668
0.010636565,-0.012040601,0.99177676,0.23210144,-0.20817566,9.7986145,3.8238525,-15.837097,-37.84027,0.23688672,-0.2077263,9.801588,0.0018888861,0.0007775277,7.43866e-05,-0.00012207031,0.00015258789,-0.00010681152
0.01063547,-0.012067751,0.9917777,0.2416687,-0.2033844,9.810577,3.2455444,-16.087341,-38.54828,0.2369309,-0.20825934,9.801575,0.00065740943,-0.00037041306,-0.00026607513,-6.1035156e-05,0.00015258789,-0.00016784668
0.010605881,-0.012084691,0.9917861,0.23210144,-0.21534729,9.805786,1.9607544,-16.18042,-37.68463,0.23638389,-0.20867807,9.801579,-0.0002488345,-0.000652045,0.0015668869,-0.00024414062,0.0002746582,1.5258789e-05
0.010576902,-0.012103464,0.9917944,0.2368927,-0.2033844,9.8033905,3.3538818,-15.50293,-38.130188,0.2358534,-0.20913069,9.801583,-0.0006862581,-0.0004375428,0.0005674362,-6.1035156e-05,-3.0517578e-05,7.6293945e-05
0.010598107,-0.0121184625,0.991789,0.23210144,-0.21296692,9.805786,3.9337158,-15.325928,-36.91101,0.23631138,-0.20936024,9.801567,0.00078497827,3.0264258e-05,-0.00057315826,-0.00024414062,9.1552734e-05,1.5258789e-05
0.010603766,-0.012155192,0.99178827,0.2416687,-0.21057129,9.808182,3.489685,-16.149902,-38.116455,0.23651308,-0.21006013,9.801547,0.00079903007,-0.00046353042,0.0010557175,6.1035156e-05,9.1552734e-05,3.0517578e-05
0.010628781,-0.012108319,0.99178046,0.23928833,-0.20817566,9.805786,4.3273926,-15.289307,-38.354492,0.23689656,-0.20907097,9.801559,0.0016028136,0.001919955,0.0015010834,-0.00012207031,9.1552734e-05,-0.000289917
0.01063314,-0.012088705,0.9917788,0.2368927,-0.20817566,9.805786,3.6712646,-15.626526,-38.09204,0.23693556,-0.2086752,9.801567,0.0003734529,0.0010225177,-0.0012388229,-0.00018310547,0.00021362305,-0.0005187988
0.010604204,-0.012107068,0.9917871,0.2368927,-0.21534729,9.805786,3.4942627,-16.003418,-38.238525,0.23640491,-0.20911972,9.80157,-0.00028172135,-0.00021506846,-0.00034999847,-6.1035156e-05,0.00015258789,-0.00022888184
0.010589971,-0.012123882,0.9917913,0.24406433,-0.21296692,9.810577,3.251648,-15.866089,-38.88092,0.23616277,-0.2094902,9.801567,-0.0002963841,-0.0007792711,0.0010471344,0.0,-0.0001373291,1.5258789e-05
0.010648608,-0.012137679,0.9917757,0.2416687,-0.21057129,9.7986145,3.111267,-15.438843,-38.78784,0.23736207,-0.2095848,9.8015375,0.0020923018,0.0002744347,-0.0002527237,-0.00030517578,0.00015258789,-0.00016784668
0.010595961,-0.012120463,0.99178964,0.23449707,-0.20100403,9.805786,4.7210693,-15.483093,-38.18512,0.23627354,-0.20940565,9.801566,-0.0018380284,0.0012845397,-1.2397766e-05,0.0,-3.0517578e-05,-0.00033569336
0.010608558,-0.012112655,0.991786,0.23210144,-0.20100403,9.7986145,3.6987305,-14.889526,-38.775635,0.23650503,-0.20921578,9.801565,0.00032795966,0.00013163686,-0.00016117096,0.00012207031,-3.0517578e-05,0.00015258789
0.010569154,-0.012039344,0.99179506,0.23449707,-0.20817566,9.810577,3.781128,-15.037537,-37.753296,0.23554367,-0.20790246,9.801616,-0.0018169284,0.0021693558,-0.0004377365,-0.00012207031,9.1552734e-05,-0.00010681152
0.010598693,-0.012078126,0.9917879,0.2416687,-0.21057129,9.815353,2.507019,-16.200256,-39.900208,0.23622507,-0.20857137,9.801586,0.0017688423,-0.0007159114,0.0029039383,0.0,3.0517578e-05,-0.000289917
0.0106207235,-0.012126179,0.991783,0.2368927,-0.20817566,9.805786,3.3706665,-15.060425,-38.494873,0.23677975,-0.20944346,9.801554,0.0014550388,-0.002236411,0.00016975403,0.00018310547,0.00015258789,-0.00016784668
0.010572325,-0.012082948,0.9917952,0.2416687,-0.20817566,9.8033905,3.7963867,-16.343689,-38.471985,0.23571259,-0.20874391,9.801594,-0.0015578419,0.00065523386,0.00058174133,0.0,0.0002746582,-0.00039672852
0.010562051,-0.012077906,0.99179786,0.2416687,-0.21296692,9.805786,3.8146973,-15.98053,-38.171387,0.23549612,-0.2086761,9.801601,0.0005862266,0.00058302283,-0.00041103363,-0.00030517578,0.00015258789,-0.00039672852
0.010609772,-0.012096086,0.99178535,0.24645996,-0.21057129,9.7986145,2.4429321,-16.14685,-38.072205,0.23648891,-0.20888883,9.801572,0.0024873614,0.0002848804,-0.0021867752,0.00012207031,0.00015258789,-0.00010681152
0.010626022,-0.012069032,0.9917803,0.2368927,-0.2033844,9.810577,4.206848,-16.171265,-38.453674,0.23674619,-0.20831248,9.801578,0.00078967214,-0.00051522255,0.0011444092,0.0,0.00021362305,-0.00039672852
0.010630285,-0.012065355,0.991779,0.23449707,-0.21057129,9.808182,4.2388916,-15.438843,-38.606262,0.23682204,-0.20822805,9.8015785,0.0009523928,0.00012235343,0.0004415512,6.1035156e-05,0.0002746582,-0.00039672852
0.010614701,-0.012057176,0.9917831,0.23928833,-0.21057129,9.805786,3.501892,-15.628052,-39.370728,0.2364924,-0.20811489,9.80159,-0.00013254583,-8.136034e-06,-0.0016241074,0.00012207031,-0.00019836426,-0.00033569336
0.010615792,-0.012040673,0.9917824,0.23210144,-0.20817566,9.800995,3.7750244,-15.109253,-38.145447,0.23647399,-0.2077896,9.801598,-0.00035838783,0.0003837794,2.670288e-05,-6.1035156e-05,9.1552734e-05,-4.5776367e-05
0.01061869,-0.01204197,0.99178165,0.23928833,-0.20817566,9.808182,3.8024902,-16.19873,-38.442993,0.23653473,-0.20780626,9.801595,0.00028043985,-5.7131052e-05,0.0014514923,-0.00012207031,0.00015258789,-0.00022888184
0.010647746,-0.012035579,0.9917736,0.23449707,-0.19621277,9.791428,3.1066895,-15.585327,-38.516235,0.23709676,-0.20759499,9.801586,0.0014042109,0.00090175867,-0.0019006729,0.0,-3.0517578e-05,-0.00033569336
0.010659189,-0.012053917,0.9917709,0.2368927,-0.20578003,9.810577,3.022766,-15.513611,-39.32953,0.23736878,-0.20791869,9.801572,0.00089500844,-0.0009187311,0.00064086914,0.0,9.1552734e-05,-0.00016784668
0.010628152,-0.012051912,0.9917793,0.23449707,-0.1986084,9.8033905,2.760315,-16.117859,-38.609314,0.23674697,-0.20797208,9.801586,-0.00088740885,0.0003325343,0.0007534027,-6.1035156e-05,9.1552734e-05,-0.00021362305
0.010584154,-0.012019069,0.99179053,0.2368927,-0.21534729,9.808182,4.0618896,-15.892029,-37.937927,0.23579264,-0.2074622,9.8016205,-0.0015992075,0.0014903843,-0.0009317398,-0.00018310547,9.1552734e-05,-4.5776367e-05
0.0105816275,-0.012028966,0.9917915,0.23210144,-0.20578003,9.8033905,3.3554077,-15.504456,-37.979126,0.23576644,-0.20766285,9.801617,0.00033213198,-0.00020086765,0.0014429092,6.1035156e-05,0.00015258789,-4.5776367e-05
0.010569617,-0.012049765,0.9917952,0.23449707,-0.2033844,9.7986145,3.994751,-15.52887,-38.31482,0.2355782,-0.20810445,9.801611,-0.0002219677,-0.0014152974,0.002076149,6.1035156e-05,3.0517578e-05,-0.00033569336
0.010583803,-0.01200345,0.9917903,0.23928833,-0.20578003,9.8033905,3.413391,-16.007996,-38.085938,0.23574767,-0.20715843,9.801626,0.00083224475,0.0021559,-0.0027694702,0.0,0.0002746582,-0.00022888184
0.01056544,-0.012001198,0.99179524,0.2368927,-0.20817566,9.810577,5.8425903,-15.248108,-40.14435,0.23537724,-0.20716913,9.801636,0.00025971234,-0.0002450794,-0.0015306473,-0.00012207031,0.00021362305,-0.00039672852
0.010538781,-0.012008089,0.99180263,0.2416687,-0.2033844,9.808182,4.107666,-16.311646,-39.91394,0.23486406,-0.20738287,9.801643,-0.00043344498,-1.694262e-05,0.0013685226,-0.00012207031,0.00015258789,-0.00016784668
0.010545191,-0.012050138,0.99180186,0.23210144,-0.21057129,9.805786,3.1646729,-16.091919,-38.619995,0.23509355,-0.20818438,9.801621,0.0010231286,-0.0011293292,-0.00068569183,6.1035156e-05,-3.0517578e-05,-0.00033569336
0.010621222,-0.012072404,0.99178165,0.23928833,-0.20817566,9.800995,4.1534424,-15.6692505,-37.971497,0.236659,-0.20839262,9.801579,0.0027995259,-0.0006926656,-0.00013065338,0.0,9.1552734e-05,-0.0005187988
0.010610102,-0.012072644,0.9917847,0.23210144,-0.20100403,9.8033905,3.7994385,-16.34674,-38.16986,0.23643853,-0.20843041,9.801583,0.00013515353,-0.00015228987,0.0013427734,0.00012207031,0.00021362305,-0.000289917
0.010588931,-0.012064439,0.9917903,0.22970581,-0.21057129,9.805786,4.283142,-16.08429,-39.64691,0.23599775,-0.20833333,9.801596,-0.000119134784,-0.00026878715,-0.0018310547,6.1035156e-05,0.00015258789,-0.00045776367
0.010557966,-0.01205931,0.9917986,0.2368927,-0.20817566,9.7986145,4.2877197,-16.088867,-39.118958,0.23536976,-0.20832536,9.801611,-0.0006892085,-4.0754676e-05,0.0006875992,-0.00018310547,-3.0517578e-05,-0.00016784668
0.0106071485,-0.012108582,0.9917863,0.2368927,-0.20100403,9.800995,4.1671753,-15.22522,-38.63678,0.23646711,-0.2091405,9.801567,0.0022827089,-0.0013863742,-0.0009756088,6.1035156e-05,0.00021362305,-0.00016784668
0.01059081,-0.012084622,0.99179024,0.22970581,-0.2033844,9.800995,3.5720825,-15.919495,-38.60321,0.23608413,-0.2087216,9.801586,4.36455e-05,0.00083228946,-0.0001783371,-6.1035156e-05,9.1552734e-05,7.6293945e-05
0.010556277,-0.012065992,0.9917992,0.2368927,-0.21057129,9.7986145,3.2470703,-16.090393,-38.16986,0.23535241,-0.2084608,9.80161,-0.0011316389,0.0010307729,-0.0012369156,-0.00012207031,9.1552734e-05,-4.5776367e-05
0.010552334,-0.0120594455,0.9918001,0.2416687,-0.20578003,9.808182,3.1585693,-16.468811,-37.338257,0.23525812,-0.20834476,9.801614,-0.00032171607,0.00044308603,0.00014400482,0.0,9.1552734e-05,-0.00022888184
0.010582683,-0.0120570585,0.9917918,0.2416687,-0.21057129,9.800995,4.2755127,-16.53595,-37.927246,0.23585562,-0.2082079,9.801602,0.0014940947,0.0005194098,-0.001502037,-6.1035156e-05,3.0517578e-05,-0.00033569336
0.010598727,-0.012045284,0.9917872,0.2368927,-0.20817566,9.796219,4.118347,-16.322327,-38.48114,0.23614596,-0.20793037,9.801601,0.0009447634,0.0007431954,0.0012254715,-6.1035156e-05,9.1552734e-05,-0.00022888184
0.010616935,-0.012046767,0.99178225,0.23928833,-0.20817566,9.8033905,2.897644,-15.254211,-36.25183,0.23651148,-0.2079051,9.801593,0.0013032407,-0.0002360344,0.0006580353,6.1035156e-05,9.1552734e-05,-0.0002746582
0.010611143,-0.012053944,0.991784,0.2368927,-0.20817566,9.805786,3.640747,-16.358948,-37.939453,0.23641379,-0.2080624,9.801592,-0.00051537156,-8.4236264e-05,-0.00051403046,-6.1035156e-05,-0.0001373291,-0.00016784668
0.010629978,-0.012070503,0.99177927,0.23449707,-0.20578003,9.808182,3.1280518,-15.075684,-38.412476,0.23682843,-0.20832941,9.801576,0.00051006675,-0.00053946674,-0.00050258636,0.0,9.1552734e-05,-0.00022888184
0.010603573,-0.012074297,0.99178654,0.23928833,-0.21057129,9.7986145,3.6376953,-16.279602,-38.754272,0.23631276,-0.20848212,9.801585,-0.00042741,-0.00012595952,0.0015745163,-6.1035156e-05,0.00015258789,-0.00016784668
0.010588665,-0.012094782,0.991791,0.24645996,-0.21057129,9.793823,2.9907227,-16.473389,-38.01422,0.23606615,-0.20892625,9.801582,-0.00017248094,-0.0011233687,-0.0007047653,6.1035156e-05,-3.0517578e-05,-4.5776367e-05
0.010616065,-0.012065499,0.9917829,0.23449707,-0.21057129,9.810577,2.2079468,-15.864563,-38.612366,0.2365397,-0.20827322,9.801584,0.0010419339,0.0010837168,-0.0007982254,0.00012207031,3.0517578e-05,-0.00022888184
0.010570736,-0.012044278,0.99179476,0.2368927,-0.20817566,9.812973,2.9403687,-15.6692505,-38.601685,0.23558709,-0.20799403,9.801613,-0.0020685494,0.000550732,-0.0008468628,0.0,3.0517578e-05,-0.000289917
0.010596107,-0.012036508,0.9917877,0.2416687,-0.21057129,9.796219,3.6453247,-16.134644,-38.723755,0.23607256,-0.2077669,9.801606,0.0005415678,-0.0006225854,0.00035381317,-6.1035156e-05,3.0517578e-05,-0.00016784668
0.010592248,-0.01203403,0.9917887,0.23449707,-0.21057129,9.808182,3.819275,-15.83252,-38.368225,0.23598985,-0.20773005,9.80161,-8.4102154e-05,0.00053825974,-0.00071811676,-6.1035156e-05,-0.0001373291,-0.00010681152
0.010596605,-0.012021045,0.9917872,0.23210144,-0.20817566,9.805786,3.4240723,-15.713501,-38.40332,0.2360449,-0.20746371,9.801614,-0.00062537193,0.0005123764,0.001124382,-6.1035156e-05,-3.0517578e-05,1.5258789e-05
0.0105693005,-0.012040076,0.99179506,0.23928833,-0.20578003,9.812973,3.5095215,-15.560913,-38.301086,0.23554838,-0.20791632,9.801616,-0.0006260276,-0.0006902069,0.00074863434,0.0,0.00015258789,-0.00016784668
0.010610711,-0.012056943,0.9917842,0.2368927,-0.2033844,9.7986145,3.2455444,-16.087341,-38.397217,0.23641251,-0.20812221,9.801591,0.0023252368,0.00024554133,0.0011396408,-0.00012207031,0.00015258789,-4.5776367e-05
0.01062966,-0.012043851,0.99177873,0.23928833,-0.20578003,9.815353,2.2155762,-15.795898,-38.145447,0.23675737,-0.20781028,9.801589,0.00079631805,0.00040109456,-0.0005245209,-6.1035156e-05,-0.0001373291,-4.5776367e-05
0.01063665,-0.012098335,0.9917781,0.23210144,-0.20100403,9.805786,3.1661987,-16.171265,-38.1073,0.23702872,-0.20885265,9.80156,0.0002671033,-0.0014129281,0.0010919571,0.0,-3.0517578e-05,-0.00022888184
0.010652616,-0.012051694,0.99177265,0.23928833,-0.20100403,9.8033905,3.8375854,-15.544128,-37.782288,0.23723271,-0.20789492,9.801576,7.3850155e-05,0.0016784519,-0.0008583069,0.00012207031,-3.0517578e-05,-0.00022888184
0.010618352,-0.012033627,0.9917816,0.22970581,-0.21057129,9.8033905,3.7506104,-15.542603,-38.685608,0.23650774,-0.20764446,9.801599,-0.0011105686,0.00023968518,0.00021648407,-0.00018310547,-7.6293945e-05,-0.00039672852
0.010619871,-0.012045772,0.9917815,0.23449707,-0.20578003,9.7986145,3.1188965,-15.446472,-37.731934,0.23656744,-0.20787692,9.801592,-0.00020501018,-0.00024841726,-0.0003299713,0.0,0.00015258789,-0.00010681152
0.0106106615,-0.012048406,0.99178404,0.22970581,-0.21057129,9.805786,4.145813,-15.663147,-38.876343,0.23639077,-0.20795575,9.801595,-3.7044287e-05,0.0002976954,-0.0005350113,0.00012207031,9.1552734e-05,-0.00022888184
0.01057819,-0.012043213,0.99179274,0.23928833,-0.2033844,9.805786,4.219055,-15.87677,-38.69629,0.23573267,-0.20795107,9.80161,-0.00079129636,-0.00044341385,-0.0018091202,-6.1035156e-05,3.0517578e-05,-0.00010681152
0.010612589,-0.011989233,0.9917821,0.2368927,-0.20817566,9.800995,4.1519165,-15.515137,-38.84735,0.2362853,-0.2067953,9.801621,0.0012701601,0.002497226,0.0021514893,-6.1035156e-05,0.00021362305,-0.000289917
0.010563342,-0.012032933,0.9917965,0.23928833,-0.21296692,9.805786,3.7582397,-15.473938,-38.21869,0.23541257,-0.20779464,9.801621,-0.00072190166,-0.002259016,-0.00033569336,0.00018310547,9.1552734e-05,-0.000289917
0.010526175,-0.012028898,0.9918065,0.2368927,-0.20100403,9.7986145,3.831482,-15.692139,-37.81128,0.23466398,-0.20782639,9.801639,-0.0016486198,-0.000795573,-0.00022792816,0.00012207031,3.0517578e-05,-0.00033569336
0.010582778,-0.012046267,0.99179155,0.22970581,-0.20578003,9.800995,3.0349731,-15.524292,-37.82196,0.2358313,-0.20799702,9.801607,0.0024433285,-0.000605464,0.0003232956,-6.1035156e-05,-3.0517578e-05,-0.00016784668
0.010598632,-0.012037957,0.991787,0.23449707,-0.2033844,9.808182,3.68042,-15.406799,-38.12561,0.23612627,-0.20778769,9.801605,0.0007055551,0.00038276613,0.0006933212,0.00012207031,0.0002746582,-0.00016784668
0.010583468,-0.011988562,0.99179006,0.23210144,-0.21534729,9.805786,4.133606,-15.803528,-39.43329,0.23570488,-0.20686893,9.801635,0.00017979741,0.0018470585,-0.0011329651,-6.1035156e-05,0.00015258789,-0.00010681152
0.010571502,-0.0120283095,0.99179417,0.2368927,-0.20817566,9.800995,3.730774,-15.904236,-39.286804,0.23556356,-0.20768015,9.8016205,0.0003145039,-0.0016386807,0.0005121231,6.1035156e-05,9.1552734e-05,-4.5776367e-05
0.010612783,-0.012009061,0.99178255,0.2416687,-0.21057129,9.793823,3.5125732,-15.412903,-38.64746,0.23633733,-0.20718165,9.801612,0.001681909,0.000740245,0.0008172989,0.0,-0.0001373291,-0.00016784668
0.010670541,-0.0119767515,0.9917661,0.2368927,-0.21057129,9.810577,2.3727417,-15.782166,-38.52539,0.23740673,-0.20637901,9.801603,0.0013381094,0.0013641417,-0.00072193146,0.00012207031,9.1552734e-05,-0.00022888184
0.010673589,-0.012018306,0.9917662,0.23210144,-0.20578003,9.808182,4.0130615,-15.24353,-37.727356,0.23756841,-0.20718084,9.801583,0.00092950463,-0.0018922389,0.0014247894,0.0,-0.0001373291,-0.00016784668
0.010662286,-0.012053432,0.9917701,0.2416687,-0.21534729,9.796219,4.3899536,-15.875244,-37.34436,0.23742919,-0.2079,9.801572,-0.0010825098,-0.0011864156,-0.0012807846,-6.1035156e-05,-7.6293945e-05,-0.000289917
0.010666371,-0.012020459,0.99176824,0.23210144,-0.20100403,9.7986145,3.6712646,-15.550232,-38.531494,0.23688027,-0.20737864,9.801596,0.000113248825,0.0010340661,0.00074100494,0.00018310547,9.1552734e-05,-0.00022888184
0.010633262,-0.012015104,0.9917771,0.23928833,-0.21057129,9.808182,3.8345337,-15.693665,-37.434387,0.23675908,-0.2072386,9.801601,-0.00015416741,0.0010084957,-0.0012083054,-0.00012207031,9.1552734e-05,1.5258789e-05
0.010614192,-0.012026373,0.99178255,0.23210144,-0.2033844,9.7986145,2.6748657,-16.197205,-38.77411,0.23640741,-0.2075153,9.801603,0.00017264485,-0.00012721121,0.0020599365,-0.00012207031,9.1552734e-05,1.5258789e-05
0.010578427,-0.011979387,0.9917912,0.23210144,-0.21296692,9.7986145,4.069519,-15.594482,-38.632202,0.23558243,-0.2067049,9.801641,-0.0013654977,0.0016736239,-0.0026168823,0.00012207031,9.1552734e-05,-0.00022888184
0.010587859,-0.012024924,0.9917897,0.2368927,-0.20578003,9.805786,3.0639648,-14.79187,-38.127136,0.23588048,-0.20756544,9.801616,0.000719741,-0.0015289932,0.0009717941,-0.00012207031,0.00015258789,-0.00022888184
0.010569828,-0.012064138,0.9917955,0.23449707,-0.21057129,9.805786,4.295349,-15.943909,-38.789368,0.23561728,-0.2083843,9.801604,-0.00020380318,-0.001658991,-0.00031089783,-6.1035156e-05,-0.0001373291,-0.00010681152
0.010596609,-0.0120235635,0.99178725,0.23928833,-0.21296692,9.805786,4.3045044,-15.724182,-38.82141,0.2360511,-0.20751284,9.801613,0.00031884015,0.0017631352,-0.00084400177,6.1035156e-05,3.0517578e-05,-4.5776367e-05
0.010631189,-0.011998255,0.9917773,0.23210144,-0.20100403,9.8033905,3.942871,-16.62445,-38.83667,0.23667692,-0.20691596,9.80161,0.0016087145,0.0011721253,0.0005540848,0.0,3.0517578e-05,-0.00035095215
0.010622591,-0.012012999,0.99178,0.24406433,-0.21057129,9.7986145,2.9296875,-16.041565,-37.92267,0.23654184,-0.20722929,9.801606,-0.00041025877,-0.0006637275,0.00020694733,0.00012207031,-0.0001373291,-0.00010681152
0.010606102,-0.01196856,0.99178344,0.2368927,-0.2033844,9.7986145,3.390503,-16.366577,-38.838196,0.23610611,-0.2064112,9.801634,-0.00093881786,0.0009010881,0.0002965927,-6.1035156e-05,0.00015258789,-0.000289917
0.010611352,-0.012010246,0.99178296,0.2368927,-0.21296692,9.808182,2.8961182,-15.101624,-37.200928,0.23631175,-0.20720904,9.801612,0.0009983033,-0.0011619478,0.00067424774,-6.1035156e-05,9.1552734e-05,-0.00016784668
0.010614541,-0.012042494,0.99178284,0.23210144,-0.20817566,9.812973,3.5629272,-16.137695,-38.874817,0.23645353,-0.20782882,9.801596,0.0006275326,-0.0010149628,-2.9563904e-05,0.0,3.0517578e-05,-0.00022888184
0.0106104305,-0.0120508,0.99178416,0.24406433,-0.2033844,9.793823,3.8528442,-15.254211,-37.573242,0.23639199,-0.20800316,9.801594,-0.0002680272,-0.0001271069,-0.00034236908,-0.00012207031,0.00015258789,-0.00022888184
0.0106177665,-0.012078776,0.9917828,0.22970581,-0.21057129,9.808182,2.8686523,-15.3793335,-39.144897,0.23660581,-0.20852725,9.801578,0.00072415173,-0.00057819486,-0.0013465881,-6.1035156e-05,-7.6293945e-05,-0.00010681152
0.010640891,-0.012108456,0.9917771,0.23210144,-0.2033844,9.793823,4.3060303,-15.725708,-38.668823,0.23713765,-0.20903756,9.801555,0.0011598766,-0.001019463,-0.00057315826,6.1035156e-05,9.1552734e-05,-0.00022888184
0.010621413,-0.012062521,0.9917814,0.23210144,-0.20578003,9.812973,2.6000977,-16.207886,-38.319397,0.23663877,-0.20819917,9.801583,-0.00071431696,0.001219809,-0.0018224716,0.00012207031,3.0517578e-05,-0.00033569336
0.010604318,-0.012045296,0.99178565,0.2368927,-0.20817566,9.800995,3.8894653,-15.893555,-39.364624,0.23625715,-0.20791398,9.8015995,-0.0006079078,0.0004889369,0.002609253,-6.1035156e-05,4.5776367e-05,-0.00022888184
0.010626258,-0.012051371,0.99177986,0.23449707,-0.21774292,9.800995,5.1086426,-15.742493,-38.780212,0.23670799,-0.20796715,9.801586,0.0010923892,8.274615e-05,0.0012617111,-0.00018310547,9.1552734e-05,-0.000289917
0.010623582,-0.012053775,0.99178064,0.2368927,-0.20578003,9.8033905,4.197693,-16.313171,-38.85956,0.23666064,-0.20802206,9.801587,0.00019723177,0.0008383095,-0.0015459061,-6.1035156e-05,9.1552734e-05,-0.00033569336
0.010615826,-0.012033786,0.99178225,0.2416687,-0.21296692,9.812973,3.1936646,-15.586853,-37.763977,0.23645787,-0.20765506,9.801599,-8.712709e-05,0.0006991476,-7.724762e-05,-0.00012207031,0.00015258789,-0.00033569336
0.010607071,-0.012043993,0.9917849,0.2416687,-0.2033844,9.796219,3.37677,-16.659546,-38.897705,0.2363087,-0.20788035,9.801599,-0.00017772615,-0.00025610626,0.0009050369,0.0,3.0517578e-05,-4.5776367e-05
0.010586149,-0.012054244,0.99179083,0.23449707,-0.20817566,9.796219,3.390503,-16.366577,-38.989258,0.23591769,-0.20814265,9.801601,-0.0002514422,-0.00025860965,-0.001953125,0.0,0.00015258789,-4.5776367e-05
0.0106150815,-0.012030062,0.99178237,0.2368927,-0.21296692,9.8033905,4.232788,-15.737915,-37.61139,0.23643409,-0.20758465,9.801602,0.0013932139,0.00086677074,0.0004529953,-0.00012207031,9.1552734e-05,-0.00016784668
0.010618172,-0.012047534,0.99178195,0.22732544,-0.20578003,9.800995,3.4255981,-15.560913,-39.053345,0.23653792,-0.20791635,9.801591,0.00079344213,0.00024393201,0.00061893463,-0.00012207031,3.0517578e-05,-0.00033569336
0.010601118,-0.012019514,0.99178594,0.23928833,-0.20578003,9.793823,3.6743164,-15.47699,-38.59253,0.2361309,-0.2074204,9.801613,-0.00071130693,0.0009572655,0.0004119873,0.0,3.0517578e-05,-0.000289917
0.010622132,-0.0120629165,0.99178123,0.2368927,-0.21057129,9.812973,2.9647827,-15.159607,-38.272095,0.23665404,-0.20820476,9.801583,0.00091299415,-0.0013675392,0.00027751923,-6.1035156e-05,0.00015258789,-0.00016784668
0.010621026,-0.012053332,0.9917813,0.23449707,-0.21774292,9.8033905,3.3187866,-16.152954,-39.167786,0.23660877,-0.20802101,9.801588,0.00071567297,0.00035466254,-0.00013637543,0.00018310547,9.1552734e-05,-0.00010681152
0.010590245,-0.012091195,0.99179053,0.23210144,-0.2033844,9.808182,4.776001,-15.982056,-38.815308,0.23608887,-0.20885155,9.801583,-0.0009225756,-0.0023944974,0.0005340576,6.1035156e-05,9.1552734e-05,-0.0004119873
0.010603801,-0.012081407,0.9917866,0.23449707,-0.20578003,9.808182,3.617859,-14.97345,-38.11035,0.23633458,-0.20862019,9.801582,0.00077469647,-4.157424e-06,-0.0017156601,0.00018310547,0.00015258789,-0.00035095215
0.01056702,-0.012083668,0.9917967,0.22970581,-0.21057129,9.800995,3.6575317,-15.841675,-38.664246,0.23560885,-0.20877375,9.801596,-0.0006637126,-0.0005699694,-0.00020599365,6.1035156e-05,0.00021362305,-0.00016784668
0.0105603775,-0.012068098,0.9917981,0.23449707,-0.20817566,9.7986145,2.6168823,-15.843201,-38.0188,0.23543903,-0.20848969,9.801606,0.0004671365,9.222329e-05,1.6212463e-05,6.1035156e-05,9.1552734e-05,-4.5776367e-05
0.010546831,-0.012065944,0.99180174,0.23449707,-0.20578003,9.812973,3.6453247,-16.212463,-38.13629,0.23516451,-0.20848793,9.801613,0.0002683401,0.00080792606,-0.00047683716,0.0,0.00021362305,-0.00010681152
0.010546753,-0.012054863,0.9918015,0.22970581,-0.21296692,9.800995,2.7755737,-15.829468,-38.09967,0.23513608,-0.20827194,9.801619,0.001002565,0.0010902733,0.0009508133,0.0,0.00015258789,-0.0004119873
0.010566161,-0.012092348,0.9917971,0.23449707,-0.21774292,9.800995,3.453064,-15.283203,-37.18567,0.23561287,-0.2089457,9.801593,0.0012537688,-0.0011294633,-0.00096416473,-0.00018310547,0.00015258789,-0.00039672852
0.010564772,-0.012093354,0.9917975,0.23928833,-0.20817566,9.805786,3.843689,-15.550232,-37.028503,0.23558772,-0.20896946,9.801593,0.00054460764,0.00083211064,0.0014343262,0.0,9.1552734e-05,-0.00033569336
0.01060731,-0.012119429,0.99178654,0.2416687,-0.20817566,9.808182,3.692627,-15.266418,-37.49237,0.23649667,-0.20935169,9.801562,0.002295658,-0.0012127608,-0.00303936,0.0,-1.5258789e-05,-0.00033569336
0.010602211,-0.012088492,0.9917872,0.23449707,-0.20578003,9.7986145,3.0044556,-16.181946,-37.954712,0.23632017,-0.20876317,9.801579,-0.0004274696,0.0008658469,0.0026016235,0.0,9.1552734e-05,-0.00010681152
0.010600982,-0.012052294,0.9917867,0.2416687,-0.20817566,9.796219,3.8452148,-15.170288,-38.989258,0.23620781,-0.20806044,9.801597,0.00014512241,0.0016085953,0.0010919571,0.00018310547,9.1552734e-05,-0.000289917
0.0106024435,-0.012049733,0.9917863,0.2368927,-0.20817566,9.7986145,3.9276123,-15.24353,-38.327026,0.23623064,-0.20800613,9.801598,0.0003708154,-0.00084522367,-0.0003900528,6.1035156e-05,0.00015258789,-0.00016784668
0.0105919745,-0.01205114,0.99178916,0.23928833,-0.21057129,9.810577,3.767395,-15.254211,-38.323975,0.23602596,-0.20806475,9.801601,0.00012297928,-0.00033159554,-0.0017108917,6.1035156e-05,3.0517578e-05,-0.00010681152
0.010605584,-0.012070241,0.9917859,0.23928833,-0.20817566,9.7986145,2.922058,-16.264343,-37.438965,0.23634289,-0.20839699,9.801587,0.0007556826,-0.00070622563,0.00093364716,6.1035156e-05,0.00021362305,-0.00045776367
0.010596588,-0.0121415695,0.99178994,0.22970581,-0.19621277,9.7986145,3.463745,-14.761353,-38.51471,0.23633729,-0.20981567,9.801557,0.0007662624,-0.0028775483,-0.0004930496,-6.1035156e-05,0.00015258789,-0.000289917
0.010609536,-0.012131921,0.9917862,0.2368927,-0.21296692,9.8033905,3.6819458,-15.255737,-38.848877,0.23657128,-0.20958884,9.801556,0.0007764399,-5.2005053e-06,-0.001291275,6.1035156e-05,0.00015258789,-0.00021362305
0.010618995,-0.012140526,0.9917838,0.2368927,-0.21774292,9.7986145,3.0395508,-15.454102,-37.504578,0.23678023,-0.20972858,9.801547,0.0012658685,-9.293854e-05,0.0015249252,6.1035156e-05,9.1552734e-05,7.6293945e-05
0.010646342,-0.012133551,0.9917762,0.23449707,-0.20100403,9.808182,4.234314,-15.509033,-38.848877,0.23730697,-0.20951098,9.801539,0.0014417022,-5.362928e-05,0.001162529,0.0,-3.0517578e-05,-0.00016784668
0.010644348,-0.012130119,0.9917767,0.24645996,-0.21057129,9.800995,3.3203125,-15.925598,-40.10315,0.237259,-0.20944996,9.801542,-0.0006535351,0.000824064,-0.0006494522,-0.00012207031,3.0517578e-05,-0.000289917
0.010634017,-0.012150829,0.99178,0.22970581,-0.20578003,9.793823,2.3147583,-17.097473,-38.415527,0.23710392,-0.20988488,9.801537,0.00022757053,-0.0006560981,-0.00075149536,-6.1035156e-05,0.00021362305,-0.000289917
0.0106305145,-0.012104247,0.99177986,0.23928833,-0.22013855,9.810577,3.5171509,-15.341187,-38.482666,0.23692112,-0.20898631,9.80156,-5.415082e-05,0.0015505105,-0.0006685257,0.00024414062,-3.0517578e-05,-0.00039672852
0.010644996,-0.012124064,0.9917764,0.23210144,-0.21057129,9.800995,4.2297363,-15.582275,-39.08844,0.23725714,-0.20932987,9.801544,0.0007854998,-0.0014500469,0.0011453629,-6.1035156e-05,9.1552734e-05,-0.00045776367
0.01061943,-0.0121358745,0.9917836,0.23449707,-0.20578003,9.800995,3.3294678,-15.782166,-39.546204,0.23677759,-0.20963652,9.80155,-0.0006416589,-0.0006555617,-4.2915344e-05,6.1035156e-05,-7.6293945e-05,-0.00033569336
0.01065629,-0.012165007,0.99177426,0.23449707,-0.1986084,9.808182,4.2999268,-15.7196045,-39.4989,0.23758121,-0.2100952,9.801521,0.0014363527,-0.0009255409,-0.0011367798,0.00012207031,0.00015258789,-0.00039672852
0.010650405,-0.012101333,0.9917744,0.23449707,-0.20100403,9.810577,3.2287598,-16.226196,-39.709473,0.23730943,-0.20887016,9.801553,2.2113323e-05,0.002158925,0.00067043304,-0.00012207031,0.00021362305,-0.00045776367
0.010638672,-0.012151011,0.99177873,0.2368927,-0.20578003,9.800995,3.668213,-15.548706,-38.682556,0.23719692,-0.20987457,9.801535,0.0006034821,-0.001610592,0.0015630722,-0.00018310547,0.00021362305,-0.000289917
0.010621389,-0.012129904,0.99178296,0.2368927,-0.20817566,9.808182,4.060364,-15.815735,-38.449097,0.23680204,-0.20951417,9.801552,-0.00021138787,0.0016338676,0.00040340424,-6.1035156e-05,9.1552734e-05,-0.000289917
0.010658917,-0.012139503,0.99177295,0.2368927,-0.21057129,9.796219,3.919983,-15.312195,-38.720703,0.23757142,-0.20958963,9.801531,0.0018780977,-0.00020478666,0.00074481964,-0.00012207031,3.0517578e-05,-0.00039672852
0.010680062,-0.012149999,0.9917674,0.2368927,-0.20578003,9.812973,3.4866333,-16.070557,-38.554382,0.23801732,-0.20973139,9.8015175,0.0012084246,-6.7576766e-05,-0.0004606247,0.0,-3.0517578e-05,-4.5776367e-05
0.010675494,-0.012147494,0.9917686,0.24406433,-0.21774292,9.7986145,3.7521362,-15.542603,-38.534546,0.23792043,-0.20969614,9.801521,-0.0013496131,-0.0015237927,0.0005893707,-6.1035156e-05,9.1552734e-05,-0.00022888184
0.01067837,-0.012175221,0.9917685,0.23210144,-0.21296692,9.800995,2.0080566,-15.005493,-38.352966,0.23804499,-0.21022862,9.801506,0.0006916225,-4.2513013e-05,-0.001200676,-0.00019836426,6.1035156e-05,0.00022888184
0.0106604695,-0.012150166,0.9917728,0.2416687,-0.20578003,9.800995,2.62146,-15.69519,-38.365173,0.23762822,-0.20979309,9.801526,-0.0010442883,0.0014303476,0.00016117096,-1.5258789e-05,-0.00012207031,0.00016784668
0.010680227,-0.012090473,0.99176604,0.2368927,-0.20578003,9.800995,2.8778076,-15.464783,-37.5,0.23787586,-0.20856932,9.801546,0.0004223734,0.0020973682,-0.0029268265,4.5776367e-05,0.0,-6.1035156e-05
0.010663858,-0.012081314,0.99177027,0.23449707,-0.20817566,9.8033905,3.288269,-16.809082,-39.149475,0.23752819,-0.20843938,9.801557,-0.0006750524,0.00029844046,0.00091838837,-1.5258789e-05,0.00012207031,4.5776367e-05
0.010664695,-0.012077364,0.99176997,0.23928833,-0.20578003,9.8033905,2.9327393,-15.968323,-37.756348,0.23753524,-0.20835982,9.8015585,0.00027365983,0.00022374094,0.00045871735,-1.5258789e-05,-6.1035156e-05,4.5776367e-05
0.010685062,-0.012110305,0.9917652,0.23210144,-0.20578003,9.800995,2.8961182,-16.616821,-39.094543,0.23802023,-0.20894188,9.801535,0.000734359,-0.0008723438,-1.6212463e-05,4.5776367e-05,6.1035156e-05,-0.00018310547
0.010698859,-0.012099296,0.99176115,0.23928833,-0.20817566,9.808182,3.225708,-16.525269,-38.485718,0.2382677,-0.20868586,9.801534,0.00072701275,8.049607e-05,0.00030994415,4.5776367e-05,6.1035156e-05,0.00016784668
0.010695129,-0.0120618455,0.9917613,0.2368927,-0.21296692,9.793823,2.6123047,-16.06903,-37.38556,0.23810244,-0.20796618,9.801553,-7.297099e-05,0.0012715161,0.00035572052,4.5776367e-05,-0.00012207031,0.00016784668
0.010682265,-0.01206507,0.9917649,0.2416687,-0.21296692,9.810577,3.0303955,-15.370178,-38.998413,0.23785461,-0.2080675,9.801558,-0.0009928495,-0.0005540997,-0.0018377304,0.00010681152,-6.1035156e-05,0.000289917
0.010690021,-0.012093177,0.9917634,0.2368927,-0.20817566,9.800995,3.1799316,-15.727234,-38.848877,0.23807713,-0.20859283,9.80154,0.00045998394,-0.000987336,0.00022029877,-7.6293945e-05,-0.00012207031,-1.5258789e-05
0.010674808,-0.012112952,0.991768,0.2416687,-0.21296692,9.812973,2.380371,-15.634155,-38.42163,0.23782282,-0.20902413,9.8015375,-0.000967741,-0.0010410547,0.00030231476,4.5776367e-05,6.1035156e-05,-0.00012207031
0.010706499,-0.012143787,0.9917601,0.23928833,-0.20817566,9.796219,3.0349731,-15.449524,-38.031006,0.23852783,-0.20953128,9.80151,0.0016558766,-0.0009955168,0.001004219,0.00010681152,0.00012207031,-1.5258789e-05
0.010666295,-0.012148634,0.99177116,0.23449707,-0.20578003,9.7986145,3.4469604,-15.124512,-38.58795,0.23774032,-0.20974581,9.801524,-0.0011270493,-0.0010385066,-0.0012512207,4.5776367e-05,0.00012207031,0.00022888184
0.010711976,-0.012150806,0.99175876,0.23210144,-0.21057129,9.8033905,3.0181885,-15.739441,-38.61847,0.2386538,-0.20965189,9.801504,0.002521783,5.955994e-05,-0.0013189316,4.5776367e-05,6.1035156e-05,0.00022888184
0.010693921,-0.012139239,0.9917634,0.2368927,-0.21057129,9.7986145,4.0878296,-15.231323,-38.407898,0.23826669,-0.20948006,9.801517,-0.0011869669,0.0003798902,0.0018310547,-1.5258789e-05,0.0,-6.1035156e-05
0.010649758,-0.0121429,0.9917755,0.23928833,-0.20578003,9.808182,4.031372,-14.727783,-38.153076,0.23739761,-0.20968324,9.801534,-0.0012686402,-0.0006027669,0.00042247772,-1.5258789e-05,-4.5776367e-05,0.00010681152
0.0106376475,-0.012103904,0.99177796,0.23449707,-0.21057129,9.805786,2.720642,-15.25116,-38.206482,0.23706208,-0.20895837,9.801558,-0.0011643916,0.0017737299,-0.0009946823,0.00016784668,0.0,-1.5258789e-05
0.010647767,-0.012088816,0.99177486,0.23210144,-0.21057129,9.789032,3.5140991,-15.490723,-38.059998,0.23722658,-0.20863377,9.80156,0.000590086,1.7926097e-05,0.00028705597,0.00016784668,0.0,0.00035095215
0.010629978,-0.012055572,0.9917789,0.24406433,-0.20817566,9.808182,3.8497925,-15.098572,-38.598633,0.23679218,-0.20803809,9.801584,-0.0013555586,0.00035455823,-0.0012454987,4.5776367e-05,-0.00012207031,0.00010681152
0.01067108,-0.012085028,0.9917684,0.2368927,-0.20578003,9.8033905,3.5110474,-15.637207,-37.86316,0.23768081,-0.20849034,9.801553,0.0015756935,-0.00084759295,0.0007696152,-0.0001373291,0.0,0.000289917
0.010662034,-0.012051231,0.9917701,0.2416687,-0.20817566,9.808182,3.552246,-16.508484,-37.96692,0.2374188,-0.2078578,9.801572,-0.0005403757,0.0018461347,-0.0013952255,0.00010681152,0.0,0.00022888184
0.010684314,-0.012081764,0.9917647,0.23449707,-0.21296692,9.810577,3.5140991,-15.489197,-38.586426,0.23793596,-0.20838717,9.801549,0.0010852963,-0.0014468879,0.0006532669,0.00010681152,6.1035156e-05,0.00016784668
0.01067123,-0.012068555,0.991768,0.23449707,-0.21296692,9.800995,3.6880493,-15.261841,-38.09662,0.23764373,-0.20816843,9.80156,-7.170439e-05,-0.0002182275,0.0012311935,0.00010681152,0.00012207031,0.00010681152
0.010624254,-0.012094619,0.99178135,0.2416687,-0.20817566,9.805786,3.5354614,-15.127563,-37.835693,0.23677325,-0.20881706,9.801567,-0.0013504326,0.0006727576,-0.0008382797,0.00010681152,6.1035156e-05,0.00010681152
0.010656718,-0.0121016,0.9917727,0.23449707,-0.21774292,9.812973,4.2282104,-15.808105,-37.927246,0.23743561,-0.20885655,9.801551,0.0015714616,-0.0002477765,7.915497e-05,-7.6293945e-05,0.0,4.5776367e-05
0.010630855,-0.012136051,0.9917805,0.2416687,-0.21774292,9.800995,3.5324097,-15.052795,-38.197327,0.23700516,-0.20960595,9.801545,-0.001345858,-0.0011847466,-0.00074481964,-1.5258789e-05,-0.00012207031,4.5776367e-05
0.010652829,-0.012136492,0.99177456,0.2416687,-0.20817566,9.805786,3.4072876,-16.15448,-38.11493,0.23744309,-0.20954904,9.801536,0.00086553395,0.00019943714,-0.00081157684,-1.5258789e-05,0.0,0.00016784668
0.0106609035,-0.012156002,0.9917728,0.2416687,-0.20817566,9.8033905,3.5812378,-15.698242,-39.086914,0.23765105,-0.2099057,9.801523,0.00018507242,-0.00064979494,-6.0081482e-05,-7.6293945e-05,0.0,0.00016784668
0.010676349,-0.012210546,0.9917698,0.23210144,-0.21296692,9.812973,3.4484863,-15.280151,-37.712097,0.23809068,-0.21092398,9.80149,0.0011640787,-0.0012807697,0.0012350082,-7.6293945e-05,0.00012207031,0.00035095215
0.010689105,-0.0121340845,0.9917646,0.24645996,-0.21057129,9.8033905,2.6947021,-15.835571,-38.17444,0.23815839,-0.20939383,9.80152,0.00062550604,0.002680108,-0.00014019012,4.5776367e-05,6.1035156e-05,0.000289917
0.010700315,-0.01214345,0.9917618,0.2368927,-0.21296692,9.824936,3.3462524,-15.79895,-37.361145,0.23840407,-0.20954315,9.801513,0.00082065165,-0.0004992038,0.0026197433,0.00016784668,0.00012207031,0.00035095215
0.010675243,-0.012138201,0.9917685,0.23449707,-0.2033844,9.805786,2.6123047,-15.838623,-38.546753,0.23789284,-0.20951554,9.801525,-0.0010419339,-5.762279e-05,-0.0017642975,-0.0002593994,-0.00016784668,0.00022888184
0.01067226,-0.012138901,0.9917693,0.2368927,-0.2033844,9.777069,3.3294678,-16.085815,-38.09662,0.23783524,-0.2095381,9.801526,-0.00052958727,0.00094234943,0.001540184,4.5776367e-05,-6.1035156e-05,-1.5258789e-05
0.010673535,-0.012161602,0.9917695,0.2368927,-0.21296692,9.808182,4.168701,-15.226746,-38.41095,0.23791577,-0.2099773,9.801515,-0.000107601285,-0.0012706965,-0.0012025833,0.00010681152,-6.1035156e-05,-6.1035156e-05
0.010686641,-0.012137409,0.9917654,0.23210144,-0.20578003,9.810577,4.243469,-15.2908325,-38.72986,0.23811752,-0.2094661,9.801521,0.00040595233,0.00037109852,0.00014972687,4.5776367e-05,0.0,0.000289917
0.010685588,-0.012132689,0.99176556,0.23449707,-0.21296692,9.817749,3.819275,-15.830994,-38.519287,0.2380851,-0.20937711,9.801523,-4.5254827e-05,0.00027798116,-0.00037765503,-7.6293945e-05,0.00012207031,0.00010681152
0.010684532,-0.012174074,0.99176675,0.2368927,-0.20817566,9.805786,3.7338257,-16.059875,-38.034058,0.23816474,-0.21018785,9.801504,0.00037372112,-0.0015447587,-0.00089359283,-1.5258789e-05,0.0,0.00010681152
0.010648413,-0.012155946,0.99177617,0.23449707,-0.1986084,9.7986145,3.6361694,-16.35437,-38.467407,0.23740259,-0.20994185,9.801529,-0.0017420053,0.00082847476,-0.00042915344,4.5776367e-05,-0.00012207031,0.00035095215
0.010643508,-0.012117375,0.99177665,0.2368927,-0.21296692,9.8033905,3.7567139,-15.396118,-38.731384,0.23721135,-0.20920378,9.801549,-0.0005970746,0.001058355,0.0006685257,-1.5258789e-05,-0.00016784668,0.00010681152
0.0106633585,-0.0121242255,0.9917714,0.2416687,-0.21057129,9.8033905,3.3416748,-15.794373,-37.963867,0.23762259,-0.20927826,9.801537,0.00019536912,0.00017304718,0.00013828278,-7.6293945e-05,0.0,0.000289917
0.010655355,-0.012178422,0.9917748,0.23449707,-0.20100403,9.805786,2.822876,-16.401672,-39.35089,0.2375952,-0.21035974,9.801515,-2.2888184e-05,-0.0013685077,9.8228455e-05,-1.5258789e-05,-0.00012207031,0.0004119873
0.010665116,-0.012184225,0.9917723,0.2368927,-0.21057129,9.810577,3.6499023,-15.986633,-38.92212,0.23780338,-0.21044388,9.801508,0.00023128092,-0.0008018911,0.00085639954,4.5776367e-05,-6.1035156e-05,0.00016784668
0.01065238,-0.012185593,0.99177575,0.2368927,-0.21057129,9.8033905,3.6361694,-15.9729,-40.73181,0.23755346,-0.21050854,9.801512,-0.0011654198,0.00020942092,-0.0013341904,-7.6293945e-05,-0.00016784668,0.00022888184
0.010672398,-0.012210439,0.99177086,0.2368927,-0.20817566,9.810577,3.1845093,-15.731812,-38.095093,0.23801187,-0.2109337,9.801492,0.00073975325,-0.0010289997,0.0013389587,-7.6293945e-05,-6.1035156e-05,0.00010681152
0.010676798,-0.012185128,0.99176913,0.23928833,-0.21296692,9.800995,4.006958,-15.388489,-37.60681,0.23803782,-0.21042663,9.801501,-0.00021761656,0.0015636832,-0.0011663437,4.5776367e-05,-0.00012207031,0.00018310547
0.010689529,-0.012136719,0.99176455,0.23928833,-0.20817566,9.810577,3.9718628,-16.04004,-38.417053,0.23817326,-0.209444,9.80152,-0.00014130771,0.0017861575,0.001452446,-0.00019836426,-6.1035156e-05,0.00035095215
0.010726483,-0.0121704135,0.99175525,0.2368927,-0.20817566,9.800995,3.4225464,-15.711975,-38.554382,0.23898989,-0.20999119,9.801489,0.0011927187,-6.15716e-05,2.2888184e-05,-0.0001373291,6.1035156e-05,0.00022888184
0.01073835,-0.0122036105,0.9917528,0.23449707,-0.21057129,9.805786,3.4942627,-15.92865,-38.146973,0.23930658,-0.21060352,9.801467,0.0006522387,-0.0008880049,-0.0004606247,4.5776367e-05,-6.1035156e-05,0.0005340576
0.010682107,-0.012158689,0.99176705,0.2368927,-0.21057129,9.7986145,4.824829,-14.8880005,-38.67035,0.23807913,-0.20989488,9.801513,-0.0021913648,0.0012846738,-0.00014781952,-7.6293945e-05,6.1035156e-05,0.000289917
0.0106993,-0.012168653,0.99176264,0.2368927,-0.21296692,9.8033905,3.4606934,-14.987183,-37.652588,0.23844516,-0.21003799,9.8015,0.000785023,0.00047920644,0.0011787415,-7.6293945e-05,-6.1035156e-05,0.0004119873
0.010656346,-0.012179668,0.99177456,0.23928833,-0.20817566,9.796219,3.6834717,-15.257263,-38.623047,0.23761791,-0.21038108,9.801513,-0.002230361,-0.0006005317,0.0011072159,-0.0001373291,-0.00016784668,0.0005950928
0.010655172,-0.01217084,0.9917747,0.23210144,-0.21296692,9.7986145,3.1845093,-15.731812,-38.093567,0.23757313,-0.2102123,9.8015175,-0.00050996244,0.00091162324,0.00026798248,4.5776367e-05,-0.00012207031,0.00035095215
0.010666361,-0.012199747,0.9917723,0.24645996,-0.21774292,9.82254,3.3737183,-15.065002,-38.11798,0.23786588,-0.21074308,9.8015,-7.265806e-05,-0.00096453726,-0.0010871887,-7.6293945e-05,-0.00022888184,4.5776367e-05
0.010699677,-0.012182671,0.9917628,0.22253418,-0.18902588,9.748352,4.156494,-15.672302,-37.594604,0.23848675,-0.21031041,9.801494,0.0007571727,0.00073958933,-0.0013628006,-7.6293945e-05,-0.00022888184,0.00035095215
0.010661502,-0.012150003,0.9917725,0.24406433,-0.21534729,9.7986145,2.8457642,-16.044617,-38.372803,0.23764838,-0.20978685,9.801526,-0.0017115027,-0.0010181665,-0.0031738281,-7.6293945e-05,-6.1035156e-05,0.00022888184
0.010660424,-0.012143323,0.99177265,0.22492981,-0.21057129,9.791428,2.6046753,-16.13617,-38.076782,0.23761068,-0.2096597,9.801529,-0.000485003,0.0007767379,0.0014009476,-1.5258789e-05,-0.00016784668,0.00047302246
0.0106373215,-0.0120909,0.9917777,0.23449707,-0.1986084,9.812973,3.8330078,-15.539551,-38.31024,0.237024,-0.20870556,9.801563,-0.0015890598,0.0019848645,0.0011014938,-0.00019836426,-6.1035156e-05,0.00035095215
0.010639268,-0.012197213,0.99177957,0.22970581,-0.22970581,9.815353,3.881836,-16.26587,-38.383484,0.237321,-0.21077438,9.801512,7.480383e-06,-0.0035938025,0.0010585785,-0.0001373291,-0.00016784668,0.00016784668
0.010656765,-0.012147408,0.9917737,0.2368927,-0.20100403,9.800995,4.23584,-15.435791,-38.908386,0.23754784,-0.20975031,9.801528,0.0004877597,0.0025777072,0.000872612,-1.5258789e-05,-0.00012207031,0.000289917
0.010687669,-0.012184213,0.99176615,0.22732544,-0.21774292,9.810577,3.5308838,-15.200806,-37.776184,0.23825175,-0.21037634,9.801497,0.0007625371,-0.0013587326,-0.0014896393,-0.0001373291,-0.00012207031,0.0005493164
0.010662899,-0.012188233,0.99177295,0.2416687,-0.21057129,9.8033905,3.4317017,-15.567017,-38.072205,0.23776905,-0.21052872,9.801507,-0.0011572838,0.00047826767,0.00061130524,0.00010681152,-6.1035156e-05,0.00010681152
0.010706821,-0.01218462,0.9917609,0.22732544,-0.2033844,9.7986145,3.0899048,-16.1026,-37.864685,0.23863354,-0.21032713,9.80149,0.0010973066,0.00049990416,-0.0005426407,-0.0002593994,-0.00016784668,0.00035095215
0.010695204,-0.012159367,0.99176353,0.24645996,-0.21057129,9.8033905,2.6916504,-15.908813,-38.11035,0.23834115,-0.20986903,9.801507,-0.0012317151,0.0014733821,-0.00018978119,-7.6293945e-05,-0.00016784668,0.000289917
0.010686643,-0.012109573,0.9917647,0.23210144,-0.20100403,9.7986145,3.6010742,-15.261841,-38.697815,0.2380499,-0.20892288,9.801535,-0.0011898279,0.002210185,0.0005121231,-1.5258789e-05,-0.00022888184,0.00035095215
0.010655724,-0.0121208895,0.99177337,0.23928833,-0.2033844,9.812973,3.793335,-14.89563,-37.121582,0.23746271,-0.20923594,9.801541,-0.0015812665,-0.00033003092,0.0014657974,-1.5258789e-05,-6.1035156e-05,0.00035095215
0.010725676,-0.01206898,0.99175316,0.2368927,-0.21296692,9.800995,3.6087036,-15.26947,-37.716675,0.23872703,-0.20801422,9.8015375,0.0016913563,0.0020424426,0.00081920624,-1.5258789e-05,-0.00012207031,0.000289917
0.010723856,-0.012089515,0.9917541,0.23928833,-0.20578003,9.7986145,3.3981323,-16.223145,-38.73291,0.23874082,-0.20842035,9.801528,2.1457672e-05,3.351271e-05,-0.0018396378,-0.0001373291,-0.000289917,0.0005950928
0.010742602,-0.012094247,0.99174917,0.23449707,-0.20817566,9.808182,3.189087,-15.658569,-37.928772,0.23912495,-0.20845668,9.8015175,-0.00057661533,5.6788325e-05,-0.0012149811,-7.6293945e-05,-0.00035095215,0.00035095215
0.010727243,-0.012087488,0.99175316,0.22732544,-0.21296692,9.805786,3.8085938,-15.974426,-39.154053,0.23880321,-0.20837069,9.801528,-0.0017040372,0.0007009208,0.0012779236,-0.0001373291,-0.00016784668,0.00035095215
0.010715612,-0.012136147,0.99175745,0.24406433,-0.20578003,9.8033905,3.9123535,-15.457153,-39.050293,0.23869042,-0.20935498,9.80151,-0.00064997375,-0.0011790842,0.0003824234,-0.00019836426,-6.1035156e-05,0.00035095215
0.010686129,-0.012120673,0.99176514,0.23928833,-0.21057129,9.791428,2.8656006,-15.603638,-38.35907,0.23806664,-0.20914102,9.801529,-0.0017012656,0.00052663684,-0.00021839142,4.5776367e-05,-0.000289917,0.00047302246
0.01069958,-0.012184966,0.99176294,0.2368927,-0.20817566,9.808182,3.4942627,-16.157532,-37.062073,0.23849042,-0.2103555,9.801493,-0.00045126677,-0.0023286939,0.00034427643,4.5776367e-05,-0.00012207031,0.0004119873
0.010684369,-0.012179212,0.9917669,0.23449707,-0.21534729,9.805786,4.942322,-15.901184,-38.580322,0.238174,-0.21028861,9.801502,-0.00060652196,0.00022777915,-8.4877014e-05,-1.5258789e-05,6.1035156e-05,0.00022888184
0.010679133,-0.012181216,0.9917684,0.24406433,-0.21534729,9.800995,3.1463623,-14.9383545,-37.10327,0.23807478,-0.21034336,9.801504,-0.00023527443,-0.00021512806,-0.002295494,-0.00019836426,6.1035156e-05,0.0004119873
0.0106214015,-0.012185196,0.99178416,0.2368927,-0.20578003,9.791428,3.2669067,-15.576172,-38.520813,0.2369366,-0.21059313,9.801526,-0.0015043914,0.0007622689,0.0010261536,-1.5258789e-05,-0.00016784668,0.0004119873
0.010683579,-0.012174525,0.99176705,0.23928833,-0.21296692,9.812973,2.937317,-15.8203125,-38.027954,0.23814689,-0.2101995,9.801504,0.0013353527,0.00037625432,0.0006904602,-0.0001373291,0.0,0.00010681152
0.010683289,-0.012193597,0.9917675,0.2416687,-0.20578003,9.796219,3.1097412,-15.589905,-38.14087,0.23818749,-0.21057256,9.801496,-0.00014142692,-0.00021031499,0.00015068054,-1.5258789e-05,-0.00012207031,0.000289917
0.01068602,-0.012187788,0.9917667,0.23928833,-0.2033844,9.805786,3.439331,-16.94336,-39.559937,0.23822765,-0.21045104,9.8014965,-0.00016130507,0.00061151385,-0.0016555786,-0.00019836426,-6.1035156e-05,0.000289917
0.0106607145,-0.012179287,0.99177337,0.24406433,-0.21296692,9.793823,3.2943726,-16.664124,-39.19525,0.23770386,-0.21036063,9.801512,-0.0012867451,0.0009970516,-0.0010957718,-0.0001373291,6.1035156e-05,0.0004119873
0.010668073,-0.012193621,0.9917717,0.2368927,-0.20817566,9.8033905,3.2974243,-14.918518,-38.46283,0.23788501,-0.21061842,9.801502,0.0006595403,-0.00018693507,0.00070381165,-7.6293945e-05,6.1035156e-05,0.0004119873
0.010668173,-0.012172714,0.99177116,0.23210144,-0.21534729,9.805786,3.327942,-16.009521,-38.61084,0.23783618,-0.21021011,9.801512,0.00021250546,0.0011033714,0.0019035339,-1.5258789e-05,0.0,0.00022888184
0.010673386,-0.012183465,0.99177,0.24645996,-0.21296692,9.805786,3.4072876,-16.001892,-38.764954,0.23796596,-0.21040437,9.801504,0.00030736625,-0.00011943281,0.0015964508,-1.5258789e-05,0.0,4.5776367e-05
0.010672175,-0.01213763,0.9917693,0.23928833,-0.20578003,9.7986145,3.37677,-14.990234,-37.95166,0.23783047,-0.20951356,9.801527,-0.00074221194,0.0016248226,-0.0003671646,-1.5258789e-05,-0.00016784668,0.00022888184
0.010698742,-0.01211162,0.9917615,0.23449707,-0.21296692,9.8033905,4.159546,-15.52124,-38.017273,0.23829536,-0.20892671,9.801528,0.00070519745,0.001262337,-0.00040531158,4.5776367e-05,-6.1035156e-05,0.00016784668
0.010700567,-0.012124226,0.99176127,0.23449707,-0.20817566,9.812973,3.4927368,-16.078186,-37.72583,0.2383623,-0.20916727,9.801521,-0.00032570958,-0.0008903444,0.00020885468,0.00016784668,-6.1035156e-05,0.00016784668
0.010652139,-0.012115771,0.99177426,0.23449707,-0.21296692,9.800995,3.0975342,-15.884399,-37.820435,0.23737898,-0.20914674,9.801545,0.0004170984,0.0010086745,0.0005722046,0.00016784668,-6.1035156e-05,0.00035095215
0.010653301,-0.012100835,0.9917736,0.23928833,-0.20578003,9.8033905,2.7832031,-15.682983,-38.220215,0.2373658,-0.20885181,9.801552,-0.0002605021,0.00045979023,-0.0008993149,0.00010681152,-6.1035156e-05,0.00010681152
0.010670121,-0.0120892,0.9917688,0.23210144,-0.20817566,9.800995,3.9474487,-14.804077,-38.238525,0.23767188,-0.20857462,9.801551,0.00038656592,-5.2616e-05,-0.0006017685,0.00016784668,0.0,0.00047302246
0.010672532,-0.012079056,0.9917679,0.23928833,-0.21774292,9.8033905,3.4667969,-16.435242,-38.931274,0.23769516,-0.20836948,9.801555,-0.00012812018,-0.00024165213,0.0015192032,4.5776367e-05,0.0,4.5776367e-05
0.010669019,-0.012092466,0.99176913,0.23449707,-0.21057129,9.800995,3.6514282,-16.218567,-37.23297,0.23765792,-0.20864162,9.80155,0.00014689565,-0.00046557188,-0.00074863434,0.00010681152,-6.1035156e-05,0.00022888184
0.01066463,-0.012108741,0.9917707,0.2416687,-0.21296692,9.808182,2.4780273,-15.342712,-38.06305,0.23761024,-0.20897233,9.801544,-0.0005206913,-0.000840202,0.0011005402,-7.6293945e-05,6.1035156e-05,4.5776367e-05
0.010670711,-0.012084375,0.9917685,0.2368927,-0.2033844,9.810577,3.8330078,-15.539551,-38.31024,0.23767188,-0.20847869,9.801553,0.0006067902,0.0008184612,8.773804e-05,-7.6293945e-05,-0.00012207031,0.00035095215
0.010674157,-0.012068562,0.99176717,0.23928833,-0.21534729,9.808182,4.8690796,-15.686035,-38.83667,0.23770192,-0.20815983,9.8015585,-0.00037920475,0.000983119,-0.00041389465,-1.5258789e-05,6.1035156e-05,0.00035095215
0.010680102,-0.012094468,0.99176615,0.2368927,-0.21296692,9.796219,3.2104492,-14.994812,-38.850403,0.2378831,-0.20864764,9.801544,0.0001501888,-0.0009188503,0.0005197525,-1.5258789e-05,-0.00016784668,-1.5258789e-05
0.010677239,-0.012094325,0.9917669,0.2368927,-0.21296692,9.800995,3.994751,-15.6814575,-37.66632,0.23782584,-0.20865339,9.801545,-0.00027170777,-0.00019051135,0.0005092621,-1.5258789e-05,-0.00010681152,0.00010681152
0.010701687,-0.01211914,0.99176085,0.2368927,-0.20817566,9.812973,4.2037964,-16.168213,-38.830566,0.23837219,-0.20906466,9.801523,0.0006212443,-0.00074495375,-0.0004491806,0.00010681152,0.00012207031,0.00035095215
0.010714704,-0.012094559,0.99175674,0.2368927,-0.20817566,9.805786,2.6794434,-16.125488,-38.607788,0.23857118,-0.20854613,9.80153,0.0004221052,0.0008880049,1.4305115e-05,4.5776367e-05,-0.00016784668,0.00022888184
0.010666483,-0.012110224,0.9917702,0.2416687,-0.20817566,9.805786,4.5150757,-16.137695,-40.272522,0.23765068,-0.20899573,9.801542,-0.0024829805,-0.0008174628,-0.0003004074,-7.6293945e-05,-0.00016784668,4.5776367e-05
0.010665957,-0.012072502,0.9917695,0.23449707,-0.20817566,9.800995,5.2108765,-14.84375,-41.16974,0.2375485,-0.20826118,9.80156,-0.0006915927,0.0015512109,-0.0008363724,-0.00019836426,-0.00012207031,0.00010681152
0.010679017,-0.012094068,0.99176645,0.24885559,-0.21057129,9.800995,2.6687622,-16.419983,-38.29193,0.23786056,-0.20864308,9.801545,0.0001835525,0.00025731325,0.00024700165,-0.00019836426,0.0,0.0004119873
0.010704875,-0.012100335,0.99175954,0.2368927,-0.20817566,9.815353,3.1829834,-15.653992,-38.75885,0.23838982,-0.20868818,9.801531,-9.2461705e-05,-0.00042280555,-0.0017404556,0.00016784668,-0.00022888184,4.5776367e-05
0.010713427,-0.012101811,0.9917573,0.23449707,-0.2033844,9.815353,3.4255981,-15.560913,-38.97705,0.23856345,-0.20869146,9.801527,-0.00027132034,-0.00017084181,0.00043010712,0.00016784668,-0.00012207031,0.00022888184
0.010724293,-0.012067309,0.9917535,0.24406433,-0.20817566,9.808182,3.8452148,-15.170288,-38.912964,0.23869546,-0.20798571,9.801538,6.8336725e-05,0.0012759864,0.00013446808,-7.6293945e-05,-0.00012207031,0.00047302246
0.010738815,-0.012124348,0.99175084,0.23449707,-0.20817566,9.808182,3.9031982,-15.602112,-39.305115,0.23912299,-0.20905542,9.801506,0.00062559545,-0.0015046895,-0.0019798279,-1.5258789e-05,0.0,0.0005340576
0.010725045,-0.012129799,0.9917547,0.2416687,-0.20578003,9.791428,4.2633057,-14.927673,-38.352966,0.23886245,-0.20920292,9.801508,-0.0010029823,-0.0004118532,-0.0014801025,4.5776367e-05,-6.1035156e-05,0.00035095215
0.010711729,-0.012127663,0.9917583,0.2416687,-0.20578003,9.784256,3.2852173,-15.135193,-38.583374,0.23859257,-0.20920102,9.801516,-0.00051146746,6.5624714e-05,0.00061130524,-1.5258789e-05,-0.00016784668,0.000289917
0.010721456,-0.012104453,0.9917551,0.23210144,-0.21057129,9.800995,4.119873,-16.17279,-39.205933,0.23872949,-0.20871904,9.801523,0.00030617416,0.0012679845,0.0005722046,-0.0001373291,0.0,0.00010681152
0.010713763,-0.012107152,0.9917573,0.2368927,-0.21057129,9.812973,3.2806396,-15.208435,-38.975525,0.2385831,-0.20879467,9.801524,-0.00027106702,-0.00032918155,0.00053310394,4.5776367e-05,0.0,0.00022888184
0.010673512,-0.012127283,0.9917687,0.23210144,-0.20817566,9.808182,3.8589478,-15.034485,-37.82959,0.23783188,-0.20930764,9.801531,-0.0019331127,-0.0014638156,0.0014753342,0.00016784668,-6.1035156e-05,4.5776367e-05
0.010642111,-0.012116246,0.991777,0.2368927,-0.21057129,9.810577,3.1021118,-15.431213,-39.842224,0.23718081,-0.20918591,9.80155,-0.0010396391,0.00079642236,0.00019168854,-7.6293945e-05,0.0,0.00022888184
0.010684153,-0.012122703,0.9917657,0.2368927,-0.20578003,9.7986145,3.3294678,-15.858459,-39.183044,0.2380323,-0.20918652,9.801529,0.0017003715,0.0005477816,-0.0005092621,-0.0001373291,6.1035156e-05,0.00016784668
0.010662422,-0.012111832,0.99177134,0.2368927,-0.20578003,9.805786,3.8131714,-16.055298,-38.035583,0.23757385,-0.20903923,9.801543,-0.00048977137,-0.00028020144,0.0006313324,-0.00032043457,6.1035156e-05,6.1035156e-05
0.010682131,-0.012113125,0.99176604,0.2416687,-0.1986084,9.796219,2.6290894,-14.413452,-34.25598,0.2379688,-0.20900564,9.801534,0.00031162798,-0.000563398,-0.00053596497,0.00010681152,-6.1035156e-05,4.5776367e-05
0.010693027,-0.012102171,0.9917628,0.2368927,-0.20817566,9.805786,3.161621,-14.724731,-36.4563,0.23815875,-0.20875937,9.801535,-0.00032161176,0.00084264576,-0.0024251938,-1.5258789e-05,-0.00016784668,-1.5258789e-05
0.0107122995,-0.012136287,0.99175835,0.2416687,-0.21296692,9.796219,3.5202026,-17.088318,-38.916016,0.23862489,-0.20936759,9.801511,-9.597838e-05,-0.0009224713,0.0020666122,-7.6293945e-05,-0.00016784668,0.0004119873
0.010699265,-0.012118533,0.9917615,0.23928833,-0.2033844,9.805786,3.7399292,-15.988159,-37.719727,0.23832256,-0.20906004,9.801524,-0.0014707297,0.0013932735,-4.386902e-05,-7.6293945e-05,-0.000289917,0.00022888184
0.010711635,-0.012105835,0.99175787,0.2368927,-0.20817566,9.800995,4.3014526,-15.72113,-39.196777,0.2385376,-0.20877531,9.801525,0.00046014786,0.00016728044,0.0004453659,-1.5258789e-05,-6.1035156e-05,0.000289917
0.010689812,-0.012123397,0.9917642,0.23928833,-0.21296692,9.7986145,2.6931763,-15.605164,-39.787292,0.23879364,-0.2096509,9.8015,0.0009330213,-0.00017274916,0.0014276505,-0.0002593994,-4.5776367e-05,0.00022888184
0.01071124,-0.012110212,0.99175805,0.23928833,-0.20578003,9.793823,3.9611816,-16.184998,-38.824463,0.23854037,-0.20886192,9.801523,-0.0009625852,0.0009584874,-0.00016784668,4.5776367e-05,-6.1035156e-05,0.00035095215
0.010647661,-0.012125901,0.9917757,0.2368927,-0.21296692,9.8033905,3.7231445,-16.203308,-38.441467,0.2373146,-0.20935775,9.801542,-0.0023919642,-0.0009275377,0.0013227463,4.5776367e-05,-0.00016784668,0.000289917
0.010613604,-0.01214164,0.9917853,0.23928833,-0.21057129,9.796219,4.219055,-15.87677,-38.69629,0.23667575,-0.20976637,9.801549,-0.0015096515,-0.0005181134,9.250641e-05,-0.0001373291,0.0,0.00010681152
0.010615639,-0.012082911,0.99178344,0.23449707,-0.21296692,9.800995,3.5690308,-15.840149,-39.492798,0.23657356,-0.20861427,9.801577,-0.00019824505,0.002385065,-0.0002527237,0.00010681152,0.0,0.00010681152
0.010648799,-0.012110273,0.99177504,0.23928833,-0.20817566,9.805786,3.95813,-16.333008,-38.476562,0.23729925,-0.20904943,9.80155,0.0009905845,-0.00077192485,-0.0006418228,-0.0001373291,-0.00012207031,0.00022888184
0.01064824,-0.012116389,0.99177533,0.2368927,-0.21296692,9.7986145,2.6229858,-15.849304,-37.113953,0.237303,-0.20917043,9.801547,-0.0004480332,6.67274e-05,5.6266785e-05,4.5776367e-05,-6.1035156e-05,0.00022888184
0.01067499,-0.012100899,0.9917677,0.23449707,-0.20817566,9.808182,3.0151367,-15.811157,-38.635254,0.23779711,-0.20878838,9.801543,0.0005072206,0.0011056662,-0.0012388229,-7.6293945e-05,-0.00012207031,0.00016784668
0.010636785,-0.012089734,0.99177784,0.23210144,-0.21296692,9.805786,4.135132,-15.957642,-38.407898,0.2370105,-0.20868441,9.801564,-0.0015680641,0.00076694787,-0.0004968643,-0.0001373291,-6.1035156e-05,0.000289917
0.010627772,-0.01207659,0.99178,0.24406433,-0.2033844,9.810577,2.8396606,-16.113281,-38.763428,0.23679936,-0.20845477,9.801574,-0.00016833842,0.00029456615,0.00014400482,-1.5258789e-05,0.0,0.00022888184
0.010671754,-0.012099649,0.99176854,0.23928833,-0.20817566,9.793823,3.565979,-14.393616,-38.139343,0.23772973,-0.20877361,9.801544,0.0010394454,-0.0003362596,0.0010614395,-7.6293945e-05,-0.00012207031,0.000289917
0.010684586,-0.012109017,0.99176526,0.23449707,-0.2033844,9.805786,3.5949707,-15.557861,-37.927246,0.2380076,-0.20891815,9.801535,0.00054331124,0.0002720058,-0.00088596344,-0.0001373291,-0.00012207031,0.00010681152
0.010660831,-0.01211387,0.9917719,0.23210144,-0.2033844,9.815353,3.9077759,-15.603638,-38.778687,0.23754716,-0.20908372,9.801542,-0.0013901144,0.00020717084,-0.000104904175,-7.6293945e-05,6.1035156e-05,0.00010681152
0.010687024,-0.012127095,0.991765,0.24406433,-0.21057129,9.796219,2.8305054,-14.73999,-37.27417,0.23810007,-0.20926367,9.801526,0.0009085536,-0.0010322332,0.0013618469,0.00010681152,-0.00016784668,-6.1035156e-05
0.010669626,-0.012147215,0.9917702,0.23449707,-0.2033844,9.796219,3.8101196,-16.204834,-37.538147,0.23780309,-0.2097082,9.801523,-0.00071676075,-0.0015357137,0.0012197495,0.00010681152,6.1035156e-05,0.000289917
0.01064381,-0.0121302875,0.9917768,0.23449707,-0.21057129,9.805786,3.8711548,-14.73999,-37.998962,0.2372487,-0.20945485,9.801542,-0.0013578534,0.00035370886,-0.00077342987,0.00016784668,-0.00016784668,0.00010681152
0.010648414,-0.012139762,0.9917758,0.23928833,-0.21057129,9.8033905,3.7155151,-16.270447,-39.13269,0.23736325,-0.209626,9.801536,-0.0002605319,-0.00021146238,-0.0017929077,-1.5258789e-05,-0.00012207031,0.000289917
0.010671777,-0.012168325,0.9917701,0.23928833,-0.2033844,9.7986145,3.9291382,-15.32135,-37.43744,0.23789717,-0.21011372,9.801513,0.00087475777,-0.0009057671,0.0007200241,-7.6293945e-05,6.1035156e-05,0.000289917
0.01067819,-0.012137864,0.99176764,0.23449707,-0.21057129,9.800995,3.3691406,-15.287781,-37.483215,0.23795061,-0.20950018,9.801524,0.0003541857,0.00038279593,-0.00048446655,0.00016784668,-6.1035156e-05,0.00022888184
0.010653868,-0.012121087,0.9917739,0.23928833,-0.21057129,9.805786,4.008484,-15.238953,-38.25531,0.23742631,-0.20924532,9.801542,-0.00055353343,0.00037005544,-0.00016498566,4.5776367e-05,6.1035156e-05,0.00035095215
0.010643426,-0.012121909,0.99177676,0.23928833,-0.20578003,9.815353,3.6026,-15.414429,-37.6709,0.2372207,-0.2092925,9.801546,-0.00012169778,0.00018891692,0.0014867783,4.5776367e-05,0.0,0.000289917
0.010652379,-0.012078578,0.99177337,0.2368927,-0.2033844,9.800995,3.7582397,-15.625,-37.342834,0.23729338,-0.20842023,9.801563,-3.993511e-06,0.0017459542,0.0032215118,-1.5258789e-05,0.00012207031,0.00016784668
0.010663438,-0.012061013,0.99176997,0.2368927,-0.21057129,9.7986145,3.477478,-14.775085,-36.705017,0.2374705,-0.2080445,9.801567,0.00032745302,0.00039096177,-0.0016803741,-1.5258789e-05,-6.1035156e-05,0.00010681152
0.010657935,-0.01212167,0.99177283,0.23210144,-0.20578003,9.805786,3.0288696,-15.596008,-38.139343,0.23750858,-0.20924458,9.80154,-0.00017435849,-0.0022602528,-0.0020742416,4.5776367e-05,-6.1035156e-05,0.0004119873
0.01066101,-0.012105159,0.9917716,0.2368927,-0.20578003,9.8033905,3.2653809,-15.727234,-37.947083,0.23752956,-0.20891322,9.801547,5.6147575e-05,0.0010029525,-0.0005874634,-1.5258789e-05,0.0,0.00035095215
0.010646627,-0.012123762,0.99177593,0.23449707,-0.21296692,9.791428,3.8574219,-14.955139,-38.417053,0.23728885,-0.2093191,9.801544,-0.0004310757,-0.0005041957,0.0008916855,-7.6293945e-05,-0.00012207031,0.00035095215
0.010654952,-0.012123981,0.99177366,0.23928833,-0.20578003,9.805786,3.1219482,-15.296936,-38.230896,0.2374549,-0.20929857,9.801541,-0.0005734116,-0.0003015399,-0.0019540787,-1.5258789e-05,0.0,0.000289917
0.010692959,-0.012156975,0.99176407,0.2368927,-0.2033844,9.8033905,2.6870728,-15.98053,-38.352966,0.23829073,-0.20982906,9.80151,0.001216948,-0.0009779483,-0.00018978119,-1.5258789e-05,-0.00016784668,0.000289917
0.010688534,-0.0121167265,0.99176437,0.23928833,-0.20817566,9.8033905,3.3065796,-16.522217,-38.56201,0.23810488,-0.20905685,9.801531,-0.0009831339,0.0018557608,0.00052165985,-1.5258789e-05,-0.00016784668,0.00022888184
0.010692143,-0.012135293,0.99176383,0.23449707,-0.21057129,9.796219,3.2196045,-15.003967,-37.57019,0.23822175,-0.20940837,9.801519,-0.0001718849,-0.00017258525,0.0014743805,-7.6293945e-05,-0.00012207031,0.00022888184
0.010665242,-0.012160166,0.9917717,0.2416687,-0.20817566,9.796219,4.397583,-15.653992,-37.677002,0.23774742,-0.20997402,9.801519,-0.0011378974,-0.0012799501,0.0005054474,4.5776367e-05,-6.1035156e-05,0.0004119873
0.010597684,-0.011938199,0.99178505,0.21057129,-0.047851562,9.743576,3.6346436,-14.607239,-37.88452,0.23586504,-0.20584382,9.801652,-0.00026585162,0.009234875,0.004304886,-0.0002593994,7.6293945e-05,0.0005950928
0.010882215,-0.012560396,0.99172163,0.14356995,-0.035888672,9.774673,3.1951904,-15.437317,-38.261414,0.24303627,-0.21713533,9.801233,0.016733408,-0.020396382,0.0038928986,-0.00019836426,-0.0004272461,0.0008392334
0.0105017545,-0.011932662,0.991811,0.28953552,-0.22013855,9.846466,3.7139893,-14.753723,-37.615967,0.2339451,-0.20602101,9.801695,-0.020020023,0.022004604,-0.007119179,0.00016784668,-0.00024414062,-0.00032043457
0.010854231,-0.0122567825,0.9917224,0.20578003,-0.29670715,9.78186,3.40271,-16.149902,-38.642883,0.2417401,-0.21129434,9.801393,0.015387341,-0.009713545,0.008976936,-0.00019836426,-0.00030517578,0.00065612793
0.010444002,-0.01224748,0.9918337,0.24885559,-0.086135864,9.836899,3.036499,-15.45105,-37.88147,0.23355995,-0.21233569,9.801569,-0.016295478,-0.0018164665,-0.0077295303,-0.0001373291,6.1035156e-05,0.00022888184
0.010771044,-0.012081103,0.9917411,0.22253418,-0.3014984,9.78186,4.6844482,-15.753174,-41.256714,0.23965831,-0.20811516,9.801512,0.010780051,0.008628562,0.007303238,-0.0001373291,-0.00024414062,0.0005493164
0.010496329,-0.012265454,0.9918199,0.25602722,-0.16270447,9.829712,3.2424927,-15.933228,-39.649963,0.23464413,-0.2125312,9.801538,-0.009714872,-0.008568153,-0.0077381134,4.5776367e-05,-0.00012207031,0.00048828125
0.010825384,-0.0120629845,0.99172586,0.20578003,-0.20817566,9.791428,3.038025,-15.299988,-38.757324,0.24069425,-0.20759892,9.801497,0.010462448,0.010277495,0.0076265335,-7.6293945e-05,-0.00012207031,0.00047302246
0.010543528,-0.012128039,0.99180406,0.2679901,-0.24645996,9.815353,3.0044556,-15.953064,-39.266968,0.2352495,-0.20970947,9.801584,-0.010325626,-0.0039693266,-0.0070466995,-7.6293945e-05,-0.00036621094,0.0004272461
0.010856415,-0.012175086,0.99171996,0.21296692,-0.1603241,9.791428,3.527832,-15.048218,-38.80005,0.24158439,-0.20969355,9.801432,0.011467218,0.00017641485,0.0079193115,-0.0001373291,0.00024414062,0.00035095215
0.0105668735,-0.011986653,0.9917945,0.24645996,-0.24645996,9.800995,2.8747559,-15.309143,-38.980103,0.23537038,-0.20688103,9.801641,-0.011411399,0.0056564957,-0.0074977875,0.00010681152,-0.00030517578,0.00022888184
0.010806057,-0.012133675,0.9917327,0.2416687,-0.1986084,9.800995,2.8503418,-16.047668,-37.921143,0.24048238,-0.20903629,9.801473,0.0082898885,-0.0045753717,0.0057086945,-1.5258789e-05,0.0001373291,0.00061035156
0.0105213495,-0.012032799,0.99180794,0.22253418,-0.20817566,9.786652,4.335022,-15.068054,-38.763428,0.23457754,-0.20791689,9.80164,-0.009931058,0.0024004728,-0.0032281876,0.00016784668,-0.00030517578,0.00016784668
0.010713462,-0.0120793935,0.99175674,0.25842285,-0.23210144,9.810577,2.7893066,-15.538025,-38.038635,0.23850958,-0.20825389,9.8015375,0.0059980005,-0.0015609115,0.00024700165,4.5776367e-05,0.00030517578,0.00022888184
0.010571818,-0.012071094,0.99179506,0.21057129,-0.19621277,9.791428,3.199768,-15.365601,-38.09662,0.23567373,-0.20851411,9.8016,-0.005015224,-0.00037108362,-0.0028715134,4.5776367e-05,-0.00048828125,0.00016784668
0.010675086,-0.012051684,0.9917666,0.26560974,-0.22253418,9.812973,2.217102,-15.718079,-38.430786,0.23767936,-0.20782772,9.801567,0.0022666901,0.0013825148,0.004163742,-1.5258789e-05,0.00018310547,0.0004119873
0.010572009,-0.012133458,0.99179643,0.21057129,-0.21057129,9.793823,3.5446167,-14.833069,-38.07831,0.23582892,-0.20973052,9.801571,-0.0023300499,-0.003920749,-0.001865387,4.5776367e-05,-0.00036621094,0.000289917
0.010669827,-0.0121498145,0.9917702,0.26560974,-0.20578003,9.810577,3.7658691,-15.3289795,-37.887573,0.23781341,-0.20975833,9.801522,0.0033183992,0.00020466745,0.0021209717,-7.6293945e-05,0.00036621094,0.00016784668
0.010648445,-0.012124536,0.99177545,0.21057129,-0.21774292,9.786652,4.421997,-14.994812,-37.994385,0.23732688,-0.2093288,9.801543,0.0004774481,0.00095282495,-0.0011510849,-7.6293945e-05,-0.00010681152,-6.1035156e-05
0.010658839,-0.012160202,0.9917734,0.26560974,-0.20578003,9.817749,2.720642,-15.022278,-39.36615,0.2376202,-0.20999381,9.801522,-0.00052788854,-0.0010111481,-0.0004415512,-1.5258789e-05,0.0002593994,0.000289917
0.010650847,-0.012146065,0.9917753,0.21296692,-0.21534729,9.789032,3.804016,-16.122437,-38.88092,0.23742694,-0.20974174,9.801531,-8.837879e-05,0.0008728951,-0.0014133453,4.5776367e-05,-0.00035095215,0.00035095215
0.010662992,-0.012155138,0.9917722,0.26081848,-0.21534729,9.82254,3.741455,-15.992737,-37.417603,0.23769045,-0.20988259,9.801522,-0.00081528723,0.0005322397,-0.00076293945,-0.00019836426,1.5258789e-05,0.00035095215
0.01068846,-0.012147147,0.9917651,0.21534729,-0.2033844,9.789032,3.352356,-15.499878,-38.356018,0.23817734,-0.20965067,9.801515,0.0008416623,0.00030697882,0.00061035156,-0.0001373291,-0.00035095215,0.000289917
0.010647946,-0.012190456,0.99177706,0.27038574,-0.21534729,9.820145,3.338623,-15.791321,-38.415527,0.23747715,-0.21061666,9.801513,-0.0020370483,-0.001128614,-0.000538826,-7.6293945e-05,7.6293945e-05,0.00035095215
0.010706352,-0.012204246,0.9917615,0.21534729,-0.20817566,9.796219,3.9916992,-15.679932,-37.96692,0.23867193,-0.2107115,9.80148,0.0020302534,-8.584559e-05,0.00012302399,-0.0001373291,-0.00022888184,0.0005340576
0.010699064,-0.012181264,0.991763,0.22253418,-0.21534729,9.78186,3.17688,-15.800476,-38.63678,0.23847114,-0.2102848,9.801495,0.00080776215,-3.4034252e-05,0.00031757355,0.0001373291,-0.00016784668,-7.6293945e-05
0.010659659,-0.012221211,0.99177456,0.25602722,-0.20817566,9.812973,3.5934448,-15.405273,-38.95111,0.23778477,-0.21118191,9.801493,-0.002076447,-0.0015595704,-0.002497673,-0.00010681152,1.5258789e-05,0.00022888184
0.010742518,-0.01219285,0.99175143,0.21774292,-0.21774292,9.791428,3.1738281,-15.797424,-38.938904,0.23936328,-0.21038109,9.801471,0.0035049915,0.0014934242,0.0021677017,1.5258789e-05,-0.00016784668,-1.5258789e-05
0.010655148,-0.012141902,0.991774,0.24645996,-0.21057129,9.815353,4.652405,-15.26947,-37.83722,0.23750237,-0.20964772,9.801533,-0.0039478242,0.0009824634,-0.0019140244,1.5258789e-05,6.1035156e-05,-1.5258789e-05