rotationVector_x,rotationVector_y,rotationVector_z,accelerometer_x,accelerometer_y,accelerometer_z,magneticField_x,magneticField_y,magneticField_z,gravity_x,gravity_y,gravity_z,linearAcceleration_x,linearAcceleration_y,linearAcceleration_z,gyroscope_x,gyroscope_y,gyroscope_z
0.010948049,-0.012278952,0.9938386,0.23976135,-0.21798706,9.804352,3.8482666,-15.023804,-39.26239,0.23980162,-0.21581082,9.801342,0.00083607435,5.170703e-05,-0.0009355545,0.00012207031,0.00016784668,-0.00032043457
0.010925341,-0.012307452,0.99384505,0.23904419,-0.21559143,9.801956,3.3294678,-15.934753,-38.822937,0.23940738,-0.21642938,9.801338,-0.0001925081,-0.0012471378,-0.000954628,-6.1035156e-05,0.00022888184,-0.0002593994
0.010906115,-0.012289897,0.99384975,0.23904419,-0.21440125,9.8022,3.5232544,-15.496826,-37.306213,0.23898646,-0.21613799,9.801354,-0.00024399161,0.00059863925,-0.0012722015,0.00018310547,0.00010681152,-0.00019836426
0.010908743,-0.012247665,0.9938484,0.24023438,-0.21749878,9.803162,3.9215088,-15.466309,-37.693787,0.2389508,-0.2153052,9.801374,0.00029449165,0.000713855,-0.0011835098,0.0,-1.5258789e-05,-6.1035156e-05
0.010925068,-0.012294756,0.99384487,0.23928833,-0.2172699,9.805069,2.1392822,-15.577698,-38.702393,0.23937537,-0.21618189,9.801344,0.00080914795,-0.0017601401,0.0004930496,0.0,0.00016784668,6.1035156e-05
0.010907395,-0.012301929,0.99384964,0.23857117,-0.21607971,9.804596,2.5436401,-15.70282,-37.986755,0.23903717,-0.21636984,9.801349,0.00020126998,-0.00038188696,-3.8146973e-06,6.1035156e-05,0.00022888184,-0.00019836426
0.010883644,-0.012299952,0.9938558,0.24047852,-0.21751404,9.802673,3.4729004,-14.61792,-38.1073,0.2385584,-0.21639521,9.80136,-5.6371093e-05,-0.0003389567,0.0015859604,0.00018310547,0.00010681152,-0.00019836426
0.010908511,-0.012297322,0.9938493,0.23951721,-0.21679688,9.803162,2.8244019,-14.733887,-38.179016,0.23904985,-0.21627675,9.801351,0.0013673007,-0.00093762577,-0.0007047653,0.00024414062,0.00016784668,-0.0001373291
0.010908601,-0.012301385,0.9938493,0.24095154,-0.21798706,9.8033905,2.6626587,-14.894104,-37.677002,0.23906013,-0.21635592,9.801348,0.00064729154,-0.0006210357,-0.0006418228,0.0,0.00010681152,0.0
0.0109300045,-0.012327299,0.99384415,0.24191284,-0.21678162,9.806503,2.380371,-15.789795,-37.545776,0.23954204,-0.21680488,9.801327,0.0013621151,-0.00065101683,-0.00059223175,0.0,0.00010681152,0.0
0.010946749,-0.012305607,0.9938394,0.24023438,-0.21751404,9.803879,3.7857056,-14.738464,-38.824463,0.23983134,-0.21633552,9.80133,8.825958e-05,0.00010441244,0.0009460449,0.00024414062,0.00016784668,6.1035156e-05
0.010941472,-0.012317162,0.993841,0.23976135,-0.21751404,9.802444,3.250122,-15.940857,-38.668823,0.23975004,-0.21657571,9.801327,-4.339218e-05,-0.00088891387,-0.002568245,6.1035156e-05,0.00010681152,0.00012207031
0.010946246,-0.012312934,0.9938396,0.24238586,-0.21702576,9.803146,2.0950317,-14.929199,-38.038635,0.23983662,-0.21648014,9.801327,0.0008325577,-2.4318695e-05,-0.00012207031,6.1035156e-05,4.5776367e-05,0.00024414062
0.010982638,-0.012335165,0.9938305,0.23736572,-0.21655273,9.803146,2.9525757,-15.5303955,-37.667847,0.2406104,-0.21681648,9.8013,0.0017239302,-0.001597181,-0.0002527237,0.00012207031,0.00010681152,-0.00044250488
0.010915653,-0.012315824,0.9938477,0.23928833,-0.21464539,9.806503,2.0248413,-14.64386,-37.904358,0.23923123,-0.21661922,9.801338,-0.0023868233,0.00059849024,-0.0001707077,-0.00012207031,6.1035156e-05,-0.00032043457
0.010927901,-0.01227791,0.99384385,0.23857117,-0.21440125,9.800995,3.0303955,-15.370178,-38.84735,0.2393968,-0.21584485,9.801352,0.0002964139,0.0012608916,0.0016450882,0.00024414062,4.5776367e-05,6.1035156e-05
0.010900174,-0.012233006,0.9938504,0.23857117,-0.21774292,9.802673,2.5619507,-15.264893,-37.89978,0.23874894,-0.21504168,9.801385,-0.000940606,0.0013987422,-0.0017766953,0.0,0.00016784668,-0.0001373291
0.010878955,-0.012296045,0.99385697,0.23928833,-0.21487427,9.801239,2.0126343,-15.010071,-37.825012,0.23845652,-0.21633145,9.801364,0.00029996037,-0.0028062612,-0.0002374649,0.00012207031,0.00010681152,0.0
0.010906882,-0.012246407,0.99384886,0.24143982,-0.2172699,9.8029175,3.0441284,-15.231323,-38.064575,0.23891096,-0.2152856,9.801375,0.0013048649,0.0016319901,-0.0008058548,-6.1035156e-05,4.5776367e-05,0.00024414062
0.01092842,-0.012291296,0.993844,0.23976135,-0.21487427,9.804108,2.9647827,-15.232849,-38.363647,0.23943517,-0.2161052,9.801345,0.0010115057,-0.0011359751,-0.00021839142,0.0,4.5776367e-05,0.00012207031
0.010924437,-0.012269005,0.9938446,0.23951721,-0.21511841,9.803635,2.3864746,-15.414429,-38.754272,0.23930898,-0.21568011,9.801357,0.0001706034,0.00083976984,0.00049209595,0.0,0.00010681152,-0.0001373291
0.010925415,-0.012249346,0.99384403,0.2400055,-0.21368408,9.80603,2.0736694,-15.748596,-36.088562,0.23928745,-0.21529308,9.801367,0.0001667738,0.00047546625,0.002084732,0.0,0.00016784668,-7.6293945e-05
0.010927052,-0.012237114,0.99384344,0.24191284,-0.21894836,9.804108,1.991272,-15.296936,-38.563538,0.23929457,-0.21504946,9.801371,0.00064846873,0.00047543645,-4.9591064e-05,0.0,0.00010681152,-0.0001373291
0.0109599745,-0.012302627,0.99383587,0.23736572,-0.21751404,9.8029175,3.7475586,-15.766907,-37.901306,0.2400894,-0.21624151,9.801325,0.002002284,-0.0021597594,0.00011730194,-6.1035156e-05,-1.5258789e-05,-0.00019836426
0.010905743,-0.01232038,0.99385035,0.23857117,-0.21606445,9.8029175,2.5253296,-16.065979,-38.28888,0.23904267,-0.21673504,9.80134,-0.0019672364,-0.0009660423,-0.0015201569,0.0,0.00022888184,-0.00019836426
0.010895709,-0.01230641,0.99385273,0.23857117,-0.21655273,9.8033905,3.1341553,-15.155029,-37.524414,0.23881298,-0.21648894,9.801352,0.0006529689,0.00069984794,0.0004234314,6.1035156e-05,0.00016784668,-0.0001373291
0.010876607,-0.012299915,0.9938576,0.2400055,-0.2163086,9.804352,4.017639,-15.246582,-37.200928,0.23841766,-0.21641342,9.801362,-0.00038729608,-0.00033576787,0.00011253357,-6.1035156e-05,0.00022888184,-0.00019836426
0.010891262,-0.01230321,0.99385387,0.24023438,-0.2172699,9.803162,3.2562256,-15.94696,-37.84027,0.23871744,-0.21643835,9.801354,0.0009940863,0.0006479621,-0.00023841858,-6.1035156e-05,-0.00012207031,-6.1035156e-05
0.010933377,-0.012325568,0.9938432,0.23880005,-0.21606445,9.801956,3.4454346,-15.2771,-38.090515,0.23960583,-0.21676193,9.801327,0.0015313774,-0.000928089,0.0006341934,0.00012207031,0.00010681152,-0.00050354004
0.010912112,-0.012302259,0.9938484,0.24095154,-0.21870422,9.805557,2.949524,-15.679932,-37.319946,0.23913215,-0.21636355,9.801347,-0.0003720373,9.10908e-05,-0.0015001297,0.00018310547,0.00016784668,-0.0002593994
0.010932266,-0.012318264,0.9938434,0.23808289,-0.21534729,9.805542,3.4729004,-14.616394,-38.1073,0.23956834,-0.21662208,9.80133,0.0010851473,-0.00082941353,0.0023431778,0.0,-1.5258789e-05,-0.00032043457
0.010898639,-0.012290396,0.9938517,0.24047852,-0.21534729,9.804352,3.3081055,-14.625549,-38.479614,0.23883812,-0.21616794,9.801358,-0.0013020635,0.0003991723,0.0004377365,0.00030517578,0.00010681152,-0.00032043457
0.01092157,-0.012257891,0.9938452,0.24072266,-0.2172699,9.801956,3.831482,-15.538025,-38.61084,0.23922846,-0.21547052,9.801364,0.0011742562,0.00019149482,0.00012683868,0.00018310547,4.5776367e-05,0.0
0.010928643,-0.0122765675,0.9938437,0.23976135,-0.21798706,9.803162,3.3081055,-14.778137,-37.756348,0.23940882,-0.2158166,9.801352,5.505979e-05,2.9101968e-05,-0.0008611679,0.00012207031,-1.5258789e-05,-0.00032043457
0.010922358,-0.01231202,0.9938459,0.237854,-0.21702576,9.802444,2.3010254,-15.794373,-37.61902,0.2393573,-0.21652676,9.801337,-0.00060391426,-0.002135247,-0.0005750656,0.00018310547,0.00010681152,6.1035156e-05
0.010902678,-0.012300838,0.9938508,0.23832703,-0.21440125,9.804825,2.418518,-14.907837,-37.895203,0.23894061,-0.2163612,9.801351,5.3927302e-05,-0.00014656782,0.00024700165,0.00012207031,0.00010681152,-0.00019836426
0.010875905,-0.01227072,0.9938573,0.23951721,-0.21702576,9.800766,2.4932861,-15.054321,-37.400818,0.23834269,-0.21584447,9.801376,-0.0010299236,0.000774011,0.00032424927,6.1035156e-05,0.00010681152,-0.00019836426
0.010877398,-0.012266466,0.9938569,0.23855591,-0.21655273,9.804108,3.3843994,-14.84375,-37.921143,0.23836365,-0.2157573,9.801378,0.00064234436,-0.00028784573,-0.0012369156,6.1035156e-05,0.00016784668,-6.1035156e-05
0.010888171,-0.012276569,0.9938542,0.23953247,-0.21702576,9.804108,3.3050537,-14.924622,-37.48474,0.23860005,-0.2159258,9.801369,0.0006480664,-0.0003463924,0.00014019012,0.0,-6.1035156e-05,0.00024414062
0.010912965,-0.012293905,0.993848,0.23976135,-0.2172699,9.801239,2.809143,-15.100098,-38.102722,0.23913173,-0.2161979,9.80135,0.0012912899,-0.00054880977,0.001200676,0.0,0.00022888184,0.0
0.010888048,-0.012304555,0.9938547,0.23951721,-0.21343994,9.804352,2.8060913,-15.020752,-38.764954,0.23865601,-0.21647333,9.801355,-0.00012096763,-0.0007638186,-0.0015993118,0.00024414062,4.5776367e-05,0.0
0.010914802,-0.012260377,0.993847,0.23951721,-0.22061157,9.805313,2.922058,-14.364624,-38.034058,0.2390984,-0.21553738,9.801365,0.0010914356,0.0011762977,0.0006875992,6.1035156e-05,0.00016784668,6.1035156e-05
0.010909445,-0.012336378,0.99384964,0.24047852,-0.21559143,9.802673,3.8482666,-15.098572,-38.97705,0.23915006,-0.21703786,9.801331,0.00078879297,-0.00328435,0.0017232895,-6.1035156e-05,0.00016784668,-0.0001373291
0.010905404,-0.012327196,0.9938506,0.24047852,-0.21989441,9.8033905,2.8442383,-16.117859,-38.237,0.23905015,-0.21686924,9.801337,0.00041761994,0.0006055087,-0.001408577,-6.1035156e-05,0.00022888184,-6.1035156e-05
0.01091372,-0.012367012,0.99384904,0.24095154,-0.21679688,9.8029175,2.7404785,-14.962769,-37.469482,0.2392995,-0.2176253,9.801314,0.001374498,-0.0019959658,-0.00014591217,0.00024414062,-1.5258789e-05,0.00012207031
0.010944994,-0.012356523,0.9938407,0.23880005,-0.21559143,9.803162,2.3010254,-15.640259,-38.41858,0.23990268,-0.2173358,9.801306,0.00052428246,0.0003567636,0.00022220612,6.1035156e-05,-1.5258789e-05,-0.0001373291
0.010943749,-0.012317912,0.9938404,0.2409668,-0.21774292,9.8033905,2.8137207,-15.103149,-37.498474,0.23979712,-0.21658422,9.801326,0.00040732324,0.0012625009,-0.00049972534,0.00018310547,0.00010681152,-1.5258789e-05
0.010932309,-0.012310831,0.99384326,0.23951721,-0.2172699,9.805313,3.3584595,-15.505981,-37.45117,0.23955368,-0.21647665,9.801333,-8.34167e-05,-0.0005066842,0.00013637543,-0.00012207031,4.5776367e-05,-0.0001373291
0.010951616,-0.012333619,0.9938386,0.24191284,-0.2172699,9.806503,2.1011353,-14.782715,-38.009644,0.23998713,-0.21687007,9.801313,0.000671342,-0.00034181774,0.0013780594,0.0,-0.00012207031,-0.0001373291
0.010976744,-0.012341717,0.9938322,0.24072266,-0.2172699,9.805069,2.3010254,-15.643311,-38.267517,0.24050629,-0.21696052,9.801299,0.00060378015,-0.00023216009,0.0017156601,-6.1035156e-05,4.5776367e-05,0.0
0.010972084,-0.012340446,0.99383336,0.2416687,-0.2172699,9.804596,2.4398804,-14.3966675,-38.095093,0.24041049,-0.21694826,9.801302,0.00022229552,3.5911798e-06,0.00034713745,6.1035156e-05,0.00010681152,-0.00019836426
0.010976731,-0.012344948,0.9938322,0.23808289,-0.21679688,9.804352,2.6474,-15.185547,-37.81128,0.24051279,-0.21702373,9.801298,0.00083987415,-0.0003964156,-0.00025367737,6.1035156e-05,0.00016784668,0.00012207031
0.0109289605,-0.012337444,0.99384457,0.23953247,-0.21440125,9.803635,3.1936646,-15.512085,-38.201904,0.23954235,-0.21700606,9.801322,-0.0015397221,5.298853e-05,-0.000497818,6.1035156e-05,0.00016784668,0.0
0.010934065,-0.012284766,0.99384236,0.2400055,-0.21774292,9.804108,2.7938843,-15.237427,-39.338684,0.23953432,-0.21596228,9.801346,0.00039543211,0.0018734485,-0.00033664703,0.0,-0.00018310547,-0.0001373291
0.010935261,-0.012301497,0.99384236,0.23951721,-0.21536255,9.804825,3.2928467,-16.43219,-40.734863,0.23959318,-0.2162862,9.801337,-0.00014911592,-0.0006735027,-0.00022220612,0.00012207031,-1.5258789e-05,-0.0002593994
0.010942478,-0.012297659,0.9938404,0.24095154,-0.21607971,9.80603,2.7359009,-14.959717,-37.997437,0.23972939,-0.21619166,9.801336,0.00020261109,-0.00029480457,1.1444092e-05,0.00012207031,4.5776367e-05,0.00024414062
0.01095888,-0.012283994,0.99383587,0.24119568,-0.2172699,9.8033905,2.8503418,-15.818787,-39.006042,0.2400286,-0.21588016,9.801335,0.00059874356,0.00013031065,0.0017642975,6.1035156e-05,-6.1035156e-05,-0.0001373291
0.010991039,-0.012307397,0.9938278,0.23976135,-0.21655273,9.801727,2.5421143,-15.626526,-38.275146,0.2407202,-0.2162508,9.80131,0.000871256,-0.0009496957,-0.0015382767,6.1035156e-05,-6.1035156e-05,-0.0001373291
0.010972329,-0.012305958,0.9938327,0.23760986,-0.2163086,9.803162,3.1097412,-15.589905,-38.06305,0.24034329,-0.21627326,9.801318,-0.000874877,-0.00023555756,-0.002298355,-6.1035156e-05,4.5776367e-05,0.0
0.010927607,-0.012299223,0.9938443,0.23857117,-0.21583557,9.8022,2.8686523,-15.455627,-38.630676,0.23943548,-0.2162624,9.801342,-0.0018783063,1.4007092e-06,0.00038051605,-6.1035156e-05,4.5776367e-05,-0.00019836426
0.010906952,-0.012292737,0.9938496,0.23808289,-0.21678162,9.801483,2.1530151,-15.286255,-38.719177,0.23900914,-0.21619129,9.801353,-0.00047576427,0.0006340444,-0.0011911392,0.0,4.5776367e-05,0.00012207031
0.010881418,-0.012307512,0.9938565,0.24191284,-0.21583557,9.803879,3.0792236,-14.500427,-37.91809,0.23852968,-0.21654902,9.801357,-0.0011938065,-0.00044962764,-0.0006275177,-0.00018310547,-6.1035156e-05,6.1035156e-05
0.01094218,-0.01230697,0.99384063,0.237854,-0.21655273,9.8033905,2.2018433,-16.163635,-37.84027,0.23974289,-0.21637452,9.8013315,0.0026096553,0.00081315637,0.00022411346,-6.1035156e-05,-1.5258789e-05,-6.1035156e-05
0.010910341,-0.01231246,0.99384904,0.2416687,-0.21296692,9.8033905,2.886963,-15.167236,-38.046265,0.23911802,-0.21656777,9.801342,-0.0010757148,5.1796436e-05,0.00062942505,-0.00012207031,-6.1035156e-05,-0.00032043457
0.010954018,-0.012255657,0.99383664,0.23904419,-0.2163086,9.804596,2.2888184,-15.936279,-38.175964,0.23987219,-0.21533924,9.801351,0.0012740195,0.002187863,0.0007352829,6.1035156e-05,-1.5258789e-05,-0.0001373291
0.010925631,-0.012252237,0.99384403,0.23928833,-0.21583557,9.804825,3.6819458,-15.257263,-38.623047,0.23929778,-0.21534899,9.801364,-0.0020056516,0.00029681623,0.0014066696,-6.1035156e-05,-1.5258789e-05,0.00018310547
0.010913625,-0.01224561,0.9938471,0.24143982,-0.21655273,9.804108,2.0126343,-15.238953,-36.361694,0.23904407,-0.21525185,9.8013735,-7.4997544e-05,0.0004452318,0.00014209747,-6.1035156e-05,-0.00012207031,0.00024414062
0.010962368,-0.01226571,0.9938347,0.237854,-0.21487427,9.805069,2.8823853,-15.2404785,-38.21106,0.24006009,-0.21551326,9.801343,0.0015565008,-0.0002618283,-0.000702858,0.0,4.5776367e-05,6.1035156e-05
0.010928027,-0.0122737065,0.9938438,0.23976135,-0.2163086,9.803635,2.545166,-15.704346,-37.686157,0.23939055,-0.21576233,9.801353,-0.0011345893,-0.00048221648,0.000333786,0.00012207031,4.5776367e-05,0.00018310547
0.010913349,-0.012243871,0.99384713,0.23976135,-0.21440125,9.803162,2.4398804,-14.321899,-38.156128,0.23903489,-0.21521859,9.801374,-0.0003003776,0.00040331483,-0.00042629242,0.0,4.5776367e-05,0.00018310547
0.010925285,-0.012247141,0.99384403,0.23904419,-0.21655273,9.803162,3.6819458,-15.484619,-37.538147,0.23928022,-0.21525031,9.801367,0.0006649345,-4.2691827e-05,-0.00044822693,6.1035156e-05,0.00022888184,0.00018310547
0.010900317,-0.012261233,0.9938508,0.23832703,-0.21511841,9.805313,3.2836914,-15.287781,-38.085938,0.23881072,-0.21559319,9.801371,-0.00029431283,-0.0006659776,-0.00045681,0.00012207031,-1.5258789e-05,0.00012207031
0.010909106,-0.012237429,0.99384815,0.23880005,-0.21463013,9.799805,2.8961182,-15.02533,-37.63733,0.23893663,-0.21510404,9.801378,-0.00019532442,0.00028266013,0.00033473969,0.0,-1.5258789e-05,0.00012207031
0.010907004,-0.012245655,0.9938488,0.24119568,-0.21942139,9.8029175,2.3971558,-15.26947,-38.650513,0.23891181,-0.21527056,9.801375,0.00033837557,-4.2364e-05,-0.001701355,6.1035156e-05,-1.5258789e-05,6.1035156e-05
0.010919977,-0.012301641,0.99384636,0.23928833,-0.21440125,9.803879,3.0319214,-15.446472,-38.48419,0.23928802,-0.21633023,9.801343,0.000915274,-0.0023459047,-0.00065898895,0.0,0.00010681152,-6.1035156e-05
0.010931173,-0.012273344,0.99384296,0.23857117,-0.21559143,9.801483,2.468872,-15.411377,-38.52997,0.23945267,-0.21574676,9.8013525,0.0007444322,0.00090608,0.0005121231,0.0,0.00022888184,6.1035156e-05
0.010898956,-0.012257698,0.9938511,0.23880005,-0.21463013,9.803635,3.3599854,-15.354919,-38.17749,0.23877616,-0.21552774,9.8013735,-0.00072453916,0.0006816834,-0.00045585632,6.1035156e-05,4.5776367e-05,-0.00032043457
0.010887907,-0.012255585,0.993854,0.23857117,-0.21606445,9.800766,2.7832031,-15.684509,-38.220215,0.23855095,-0.21551622,9.801379,-0.00026875734,0.00020943582,0.0011301041,-0.00012207031,0.00016784668,-0.00030517578
0.010880775,-0.012267909,0.993856,0.23832703,-0.21534729,9.805542,3.7612915,-15.475464,-37.841797,0.23843414,-0.2157764,9.801375,0.0003427714,-0.00051125884,-0.0018053055,0.0,0.00010681152,-6.1035156e-05
0.010893429,-0.012240513,0.99385226,0.237854,-0.21536255,9.801483,1.4434814,-15.042114,-38.26294,0.23862982,-0.21520664,9.801384,0.0006112009,0.00061917305,0.00198555,0.00018310547,0.00010681152,-0.0002593994
0.010829867,-0.012242217,0.9938689,0.23641968,-0.21559143,9.80101,2.5253296,-16.140747,-37.69989,0.23736323,-0.21541114,9.801411,-0.0017077327,-0.00063975155,-0.0012388229,6.1035156e-05,0.00016784668,-0.0002593994
0.01086848,-0.012246528,0.9938589,0.23760986,-0.21368408,9.803879,3.0548096,-15.238953,-36.9339,0.23814386,-0.21539149,9.801393,0.0006304383,0.00078463554,0.0009384155,6.1035156e-05,0.00016784668,-0.0002593994
0.010869612,-0.012191625,0.9938577,0.23928833,-0.21534729,9.803635,2.5039673,-14.756775,-38.020325,0.23805183,-0.21431495,9.801417,0.0007054359,0.0013865381,0.00141716,0.00012207031,0.00016784668,-0.0001373291
0.010855211,-0.0122269895,0.99386203,0.23760986,-0.21583557,9.800522,3.5110474,-15.563965,-38.15155,0.2378379,-0.2150452,9.801407,0.000203982,-0.0014704615,-0.00017929077,-6.1035156e-05,0.00022888184,-0.0001373291
0.010833057,-0.012225104,0.9938678,0.23976135,-0.21463013,9.8029175,2.7023315,-15.841675,-37.269592,0.23739128,-0.21506795,9.801417,-4.939735e-05,0.00021527708,-0.0014066696,-6.1035156e-05,-1.5258789e-05,0.0
0.010879179,-0.012231284,0.99385583,0.2359314,-0.21534729,9.804352,3.4698486,-14.916992,-37.112427,0.2383258,-0.2150646,9.801394,0.0016472489,0.00021959841,0.00066280365,-0.00012207031,4.5776367e-05,-0.0002593994
0.0108546475,-0.012239527,0.9938624,0.23880005,-0.21534729,9.800278,3.1784058,-15.802002,-38.41095,0.23785281,-0.21529186,9.801401,-0.00075927377,-1.6242266e-05,0.00092220306,0.0,0.00010681152,-0.0001373291
0.010841491,-0.01223052,0.99386567,0.23808289,-0.21583557,9.806259,2.0996094,-15.086365,-36.48529,0.23757109,-0.21515116,9.801411,1.7166138e-05,0.0002964586,-0.00178051,0.0,0.00016784668,-0.00038146973
0.010839081,-0.012260061,0.9938668,0.23760986,-0.21655273,9.8022,1.6937256,-16.625977,-38.594055,0.23758459,-0.21573524,9.801398,0.00045196712,-0.0012484342,0.0020036697,6.1035156e-05,4.5776367e-05,-0.00032043457
0.010842566,-0.012240633,0.99386555,0.23664856,-0.2141571,9.800766,2.4398804,-16.220093,-37.937927,0.2376137,-0.21534601,9.801406,0.00019727647,0.0005107522,-0.0002641678,0.00012207031,0.00010681152,-0.00038146973
0.010825473,-0.012234446,0.9938699,0.24023438,-0.2163086,9.802673,2.230835,-15.4296875,-38.072205,0.2372592,-0.215271,9.801415,-0.00014001131,-0.00030440092,-0.0020971298,0.0,0.00016784668,-0.00032043457
0.010864851,-0.012260344,0.99386007,0.23904419,-0.21798706,9.8022,2.7191162,-15.325928,-38.07068,0.23810016,-0.21567139,9.801387,0.0021016598,-0.0008518696,0.0011520386,0.00012207031,0.00010681152,0.0
0.010860926,-0.012270357,0.99386126,0.24023438,-0.21463013,9.8033905,3.189087,-15.660095,-38.00354,0.23804261,-0.21587777,9.801384,0.00050392747,-0.000881508,-0.00068569183,0.00012207031,0.00016784668,0.0
0.010894505,-0.0122575145,0.99385226,0.23951721,-0.21559143,9.803879,3.0166626,-15.814209,-38.25836,0.23868684,-0.21553616,9.801375,0.0015104562,-2.1800399e-05,0.0009813309,-6.1035156e-05,4.5776367e-05,6.1035156e-05
0.010914514,-0.012240445,0.9938468,0.23808289,-0.21247864,9.80101,3.4591675,-14.985657,-37.878418,0.23905103,-0.21514846,9.801375,0.0011459887,0.00078083575,1.04904175e-05,6.1035156e-05,0.00010681152,-0.0001373291
0.010884274,-0.012198477,0.993854,0.23713684,-0.21534729,9.8033905,2.4887085,-15.19928,-37.353516,0.2383591,-0.21440941,9.801408,-0.0010203123,0.0014667362,-0.00078964233,0.0,-1.5258789e-05,6.1035156e-05
0.01085997,-0.012198646,0.9938603,0.23951721,-0.2115326,9.802444,2.8793335,-15.313721,-38.224792,0.23787384,-0.21447818,9.801418,-0.000768885,0.000105679035,0.00043010712,0.00012207031,0.00016784668,0.00030517578
0.010882522,-0.0121716205,0.993854,0.237854,-0.2163086,9.802673,3.4240723,-15.789795,-37.815857,0.23826803,-0.21388903,9.801422,0.0014578104,0.00095398724,0.00027942657,0.0,0.00010681152,-0.00019836426
0.010873734,-0.012195099,0.99385667,0.23928833,-0.21534729,9.8033905,2.4414062,-16.220093,-37.937927,0.23814146,-0.21437177,9.8014145,-8.879602e-05,-0.0011924654,-0.00045776367,-0.00012207031,0.00010681152,-1.5258789e-05
0.010883148,-0.012220297,0.99385464,0.23951721,-0.21440125,9.8022,3.3721924,-15.136719,-37.905884,0.23838218,-0.21483909,9.801398,0.0011062026,-0.00048220158,-0.00015449524,-0.00012207031,4.5776367e-05,-0.00019836426
0.010886695,-0.012224561,0.99385375,0.23976135,-0.21511841,9.803162,3.1936646,-15.512085,-38.201904,0.23846196,-0.21491288,9.801394,8.150935e-05,0.00030770898,-8.869171e-05,-6.1035156e-05,0.00016784668,-0.0001373291
0.010900003,-0.012232747,0.9938504,0.23808289,-0.2163086,9.804352,2.1392822,-15.652466,-38.264465,0.23874496,-0.21503706,9.801385,0.0014523715,-4.7966838e-05,0.0007286072,-0.00024414062,0.00010681152,-0.0002593994
0.010877532,-0.012270472,0.9938569,0.2368927,-0.21534729,9.802444,2.6031494,-16.209412,-37.942505,0.2383747,-0.21583526,9.801376,-0.0005636811,-0.0006785691,0.0004911423,0.00012207031,4.5776367e-05,-0.00019836426
0.010851923,-0.0122413235,0.9938631,0.23832703,-0.21440125,9.802673,1.6098022,-15.344238,-35.762024,0.23780212,-0.21533431,9.801401,-0.00073076785,0.0005055219,0.00063610077,6.1035156e-05,-1.5258789e-05,0.00012207031
0.010870278,-0.0122239925,0.99385804,0.23976135,-0.21440125,9.802673,2.9388428,-15.821838,-37.802124,0.23813272,-0.21494602,9.801402,0.0004042387,0.00034676492,-0.001326561,0.0,4.5776367e-05,-0.0001373291
0.010886113,-0.012223361,0.9938539,0.23808289,-0.2163086,9.805313,1.7105103,-16.264343,-38.36975,0.23844782,-0.214891,9.801395,0.00079743564,0.00029969215,0.0007123947,0.00012207031,0.00010681152,0.00010681152
0.010886575,-0.012230457,0.99385387,0.24191284,-0.21343994,9.804825,3.137207,-15.008545,-37.643433,0.23847187,-0.2150285,9.801392,0.00027142465,-0.000984773,0.0010995865,0.00012207031,-6.1035156e-05,0.0
0.010924099,-0.012187283,0.9938434,0.23760986,-0.21440125,9.8029175,2.7557373,-16.342163,-37.976074,0.23913144,-0.21408312,9.801396,0.0017541647,0.0011752546,0.0007247925,0.00024414062,0.00022888184,-0.00019836426
0.010892292,-0.012187648,0.9938517,0.23951721,-0.21368408,9.801956,2.2125244,-15.792847,-38.520813,0.23849668,-0.21417606,9.80141,-0.00046025217,-0.00065647066,-0.0015926361,-6.1035156e-05,0.000289917,-0.00019836426
0.010901461,-0.012191597,0.99384934,0.23976135,-0.21511841,9.8033905,2.8762817,-15.310669,-38.601685,0.23868816,-0.21422856,9.801404,0.0010259151,0.0003580302,4.4822693e-05,-6.1035156e-05,4.5776367e-05,-0.0001373291
0.010921808,-0.012213124,0.9938444,0.23713684,-0.21607971,9.8033905,3.1661987,-15.789795,-40.06958,0.23913968,-0.21459457,9.801385,0.0008253902,-0.00096058846,-0.0006122589,-0.00012207031,4.5776367e-05,0.00018310547
0.010870224,-0.01220222,0.9938577,0.23736572,-0.21272278,9.801483,3.09906,-15.9591675,-37.4588,0.2380862,-0.21452047,9.801413,-0.0017030984,0.000625208,-0.0002450943,0.00024414062,4.5776367e-05,-0.00032043457
0.010852754,-0.012184614,0.993862,0.23640442,-0.21702576,9.8022,2.9174805,-16.105652,-39.141846,0.2371463,-0.21460828,9.801434,-3.103912e-05,-0.0012077838,-0.0015583038,0.00018310547,0.00016784668,-6.1035156e-05
0.010810923,-0.012215241,0.9938734,0.24119568,-0.2141571,9.804108,3.0441284,-15.306091,-37.77771,0.23692839,-0.21493463,9.801431,0.00018206239,-0.0006467104,-0.00088119507,0.0,-1.5258789e-05,-6.1035156e-05
0.010876242,-0.01219366,0.993856,0.23976135,-0.2141571,9.804825,2.9388428,-15.818787,-38.179016,0.23818855,-0.21433687,9.801414,0.0025024712,0.00045238435,0.0016355515,0.00012207031,0.00010681152,0.00012207031
0.010897582,-0.012200495,0.9938505,0.23880005,-0.21559143,9.803162,3.5079956,-15.637207,-38.24005,0.23862924,-0.21441299,9.801401,0.0013289303,-0.0001746118,0.001250267,0.0,0.00010681152,-0.0001373291
0.010903096,-0.0122163305,0.99384934,0.2416687,-0.21368408,9.801483,1.8615723,-16.244507,-39.73236,0.23877248,-0.21470775,9.801392,0.00022375584,-0.000596419,3.0517578e-05,-0.00012207031,-0.00012207031,0.0
0.010939766,-0.012219289,0.9938398,0.23617554,-0.21224976,9.802673,2.9327393,-15.966797,-37.90741,0.23951137,-0.21466665,9.801374,0.0013973266,0.0005479306,-0.00045394897,6.1035156e-05,0.00016784668,6.1035156e-05
0.010900938,-0.012176899,0.9938493,0.23904419,-0.21343994,9.804825,1.9668579,-15.957642,-38.168335,0.238647,-0.21394259,9.801412,-0.0015577674,0.0012488067,-0.0007839203,0.0,-0.00012207031,-0.00019836426
0.010897531,-0.012158127,0.9938498,0.23857117,-0.21487427,9.8029175,3.2745361,-15.431213,-38.264465,0.23853974,-0.21358475,9.801423,-0.0002616793,0.00066168606,0.0013904572,-6.1035156e-05,0.00016784668,-6.1035156e-05
0.010880178,-0.012181034,0.99385476,0.23808289,-0.21679688,9.804825,2.4658203,-15.560913,-38.182068,0.23824084,-0.21407941,9.801418,3.9294362e-05,-0.00075271726,-0.00018596649,-6.1035156e-05,-1.5258789e-05,0.0
0.0108967945,-0.012216374,0.993851,0.23904419,-0.21272278,9.801727,2.859497,-15.751648,-38.313293,0.23864667,-0.2147256,9.801394,0.00034575164,-0.0010634065,0.00035953522,-6.1035156e-05,-6.1035156e-05,0.00012207031
0.010904684,-0.012199152,0.9938486,0.23976135,-0.21534729,9.802444,3.1097412,-15.664673,-37.852478,0.23876832,-0.21436758,9.801399,-1.1086464e-05,0.0009660721,-0.0007123947,6.1035156e-05,4.5776367e-05,-6.1035156e-05
0.010892604,-0.01221427,0.9938521,0.23808289,-0.21702576,9.801956,2.2216797,-15.649414,-38.116455,0.23855853,-0.21469577,9.801397,0.00020819902,-0.0011098236,-0.0008096695,0.0,-6.1035156e-05,6.1035156e-05
0.010897152,-0.01224642,0.9938514,0.23832703,-0.2163086,9.801239,2.4536133,-15.853882,-38.01422,0.23871654,-0.21531208,9.801379,-0.00017049909,-0.0012179911,-0.0006990433,0.00012207031,0.00022888184,-0.0001373291
0.01088893,-0.012246584,0.99385357,0.23760986,-0.21296692,9.798843,3.5079956,-15.789795,-37.21466,0.23855262,-0.21533746,9.801383,0.0007315427,-0.000494346,-0.0017499924,0.0,0.00016784668,-0.00032043457
0.010856343,-0.012225068,0.99386173,0.23783875,-0.21751404,9.800766,2.307129,-15.4953,-38.38806,0.2378565,-0.21500456,9.801407,-0.0007496476,0.00061662495,0.0009031296,6.1035156e-05,0.000289917,-0.00038146973
0.010850482,-0.012250652,0.99386364,0.23808289,-0.21583557,9.804596,3.8269043,-15.763855,-37.75177,0.23779276,-0.21552058,9.801397,0.00028909743,-0.0010312349,-0.0011615753,0.0,4.5776367e-05,6.1035156e-05
0.010847715,-0.012250815,0.99386436,0.23880005,-0.21224976,9.801483,2.7008057,-15.612793,-38.80768,0.23773783,-0.21553123,9.801399,0.00033007562,-4.6610832e-05,0.0011453629,0.0,-1.5258789e-05,0.0
0.0108722765,-0.012193715,0.993857,0.23951721,-0.21966553,9.801956,2.6351929,-15.403748,-38.157654,0.23810947,-0.21434866,9.801416,0.000918597,0.0023575574,0.00012111664,-6.1035156e-05,4.5776367e-05,-0.0001373291
0.010859097,-0.012286149,0.993862,0.23545837,-0.21391296,9.804596,2.7145386,-15.167236,-39.396667,0.238039,-0.21619143,9.801376,0.00026986003,-0.0039306134,7.534027e-05,0.00030517578,0.00016784668,-6.1035156e-05
0.010818213,-0.01222884,0.99387175,0.23832703,-0.21607971,9.804108,2.59552,-16.052246,-39.723206,0.23710246,-0.21518095,9.801422,-0.0014466494,0.000808239,0.001156807,0.00018310547,0.00016784668,-0.00018310547
0.0108323265,-0.0122204665,0.9938679,0.23928833,-0.21536255,9.803879,2.9342651,-15.740967,-38.91754,0.23736702,-0.21497926,9.80142,0.0013977289,0.00013694167,0.00028419495,6.1035156e-05,0.00010681152,-0.0002593994
0.010858228,-0.012237485,0.99386144,0.23712158,-0.21534729,9.8033905,2.8793335,-15.388489,-37.78839,0.23792012,-0.21524228,9.801401,0.0013144165,-0.0015059114,0.001452446,6.1035156e-05,4.5776367e-05,0.0
0.010835131,-0.012227698,0.9938673,0.24023438,-0.21487427,9.801483,2.7420044,-16.482544,-38.911438,0.23743813,-0.21511312,9.801415,-0.0005853325,0.0007480383,-0.0011072159,0.0,0.00022888184,0.0
0.010867562,-0.012215082,0.99385864,0.237854,-0.21343994,9.804108,2.154541,-15.286255,-38.415527,0.23805985,-0.2147791,9.801407,0.0021294504,0.000418514,0.00037193298,0.00012207031,0.00010681152,-0.00019836426
0.010841287,-0.012200099,0.99386525,0.23760986,-0.21655273,9.803635,2.6306152,-15.70282,-37.15973,0.23750357,-0.21455692,9.801426,-0.00089879334,0.00019523501,-7.1525574e-05,6.1035156e-05,0.00010681152,-0.00044250488
0.010855352,-0.0122384,0.9938622,0.237854,-0.21583557,9.806992,3.2455444,-16.165161,-38.035583,0.23786451,-0.21526791,9.801401,0.0008839369,-0.00171116,0.000579834,-6.1035156e-05,0.00022888184,6.1035156e-05
0.010822127,-0.012241627,0.9938709,0.23928833,-0.21798706,9.8033905,2.999878,-16.026306,-39.20746,0.23720731,-0.21542042,9.801414,8.5026026e-05,-0.00010435283,0.0018119812,6.1035156e-05,0.00022888184,-0.0002593994
0.01085856,-0.012268992,0.99386185,0.23760986,-0.21391296,9.801712,3.1082153,-15.359497,-39.4516,0.23799247,-0.21585743,9.801385,0.0021758825,-0.0015967041,-0.00071430206,0.00018310547,0.00016784668,-0.00032043457
0.010834308,-0.012228529,0.9938675,0.23976135,-0.21487427,9.8029175,3.3340454,-15.786743,-38.94348,0.2374234,-0.21513155,9.8014145,-0.00032688677,0.0010109693,-0.0020837784,6.1035156e-05,4.5776367e-05,-6.1035156e-05
0.010867134,-0.012215375,0.99385875,0.23832703,-0.21128845,9.800049,3.1356812,-16.600037,-39.328003,0.23805192,-0.21478601,9.801408,0.0014221519,0.00066781044,0.00020694733,-6.1035156e-05,0.00022888184,-0.00032043457
0.01085922,-0.012166712,0.99386,0.23832703,-0.21774292,9.801712,2.3620605,-16.07666,-38.13324,0.2377922,-0.21385582,9.801434,0.0002734214,0.0018657446,-0.0020971298,0.00012207031,0.00022888184,-0.00018310547
0.0108586075,-0.012228711,0.9938612,0.23736572,-0.2172699,9.804352,3.553772,-16.433716,-38.25531,0.23790938,-0.21506971,9.801405,0.0008739829,-0.0029022843,-0.00013542175,0.00012207031,-1.5258789e-05,-0.00019836426
0.010862902,-0.012227547,0.99386,0.23880005,-0.21559143,9.804352,3.022766,-15.744019,-38.015747,0.23799276,-0.21503541,9.801404,0.0012611598,0.00090940297,0.0010576248,-6.1035156e-05,0.00010681152,-0.0001373291
0.010862693,-0.012243718,0.99386036,0.23832703,-0.21487427,9.802673,2.7160645,-15.628052,-36.697388,0.23802233,-0.21535212,9.801395,0.00049595535,-0.00067974627,0.0014953613,0.0,4.5776367e-05,0.0
0.010870758,-0.012219371,0.99385786,0.24023438,-0.2163086,9.805313,2.9327393,-15.815735,-38.55591,0.23813267,-0.21485437,9.801404,0.00014315546,0.0012164861,-0.000120162964,0.0,-0.00018310547,-0.0002593994
0.010912578,-0.012256757,0.99384755,0.23832703,-0.21751404,9.801712,2.9953003,-16.401672,-37.92267,0.2390464,-0.21547261,9.801368,0.0013691783,-0.0017405599,0.0008764267,0.00012207031,0.00022888184,-0.00038146973
0.01087708,-0.012273848,0.9938571,0.24072266,-0.21463013,9.8033905,4.46167,-15.861511,-38.476562,0.23837273,-0.21590249,9.801375,-0.0005557239,-0.0010897517,-0.0021305084,6.1035156e-05,-1.5258789e-05,-0.00050354004
0.010928001,-0.012241358,0.99384326,0.2400055,-0.21440125,9.803162,2.420044,-16.583252,-38.235474,0.23932242,-0.2151299,9.801369,0.0020681173,0.0010170788,0.0009651184,0.00012207031,0.000289917,-0.0001373291
0.010927589,-0.012243892,0.9938434,0.23951721,-0.21679688,9.80603,3.5705566,-15.917969,-38.905334,0.2393195,-0.21518058,9.801369,0.0006325245,-0.00036278367,0.00032138824,0.0,-1.5258789e-05,-0.00044250488
0.010914891,-0.0122468,0.9938468,0.23664856,-0.2131958,9.800995,4.1381836,-15.882874,-38.61847,0.23907185,-0.2152717,9.801373,-0.0003373921,-1.6540289e-05,0.0010080338,0.0,-0.00012207031,-0.00019836426
0.010909496,-0.012214724,0.99384767,0.23951721,-0.21463013,9.8033905,3.1646729,-16.091919,-38.69629,0.23889701,-0.21465908,9.80139,-0.0013311207,0.0012586415,-0.0017108917,0.00012207031,-0.00012207031,-0.0001373291
0.010909496,-0.012193322,0.9938473,0.23808289,-0.2131958,9.803879,2.5604248,-15.339661,-37.687683,0.23885229,-0.21424063,9.8014,-0.0005687326,0.00012253225,-2.2888184e-05,0.00012207031,4.5776367e-05,0.00018310547
0.010885726,-0.012183655,0.99385333,0.2400055,-0.21534729,9.805786,2.5680542,-16.78772,-38.964844,0.23835716,-0.2141157,9.8014145,-8.08239e-05,0.00024826825,0.0006084442,-6.1035156e-05,4.5776367e-05,-1.5258789e-05
0.010907085,-0.012198682,0.993848,0.23832703,-0.21391296,9.799805,2.911377,-16.326904,-38.583374,0.23881534,-0.21435194,9.801399,0.00088587403,-0.000712499,0.00072956085,0.00012207031,-6.1035156e-05,-1.5258789e-05
0.0109163895,-0.0121884495,0.9938454,0.24072266,-0.21559143,9.803635,3.5049438,-15.783691,-38.043213,0.23897985,-0.21412675,9.801399,2.9399991e-05,0.0002451092,-0.0020666122,0.0,-1.5258789e-05,-6.1035156e-05
0.010935564,-0.012207032,0.9938407,0.23664856,-0.21368408,9.802673,3.4194946,-16.0141,-37.182617,0.23940179,-0.21443833,9.801382,0.0010346919,-0.0008713007,0.0005311966,6.1035156e-05,0.00010681152,0.0
0.010888597,-0.012187028,0.9938527,0.23976135,-0.21511841,9.802429,3.0288696,-15.672302,-37.623596,0.23842157,-0.21417391,9.801412,-0.0020395368,0.0005236417,-0.0002861023,0.0,0.00010681152,-0.00032043457
0.010894126,-0.012211126,0.9938516,0.23880005,-0.21511841,9.801727,2.59552,-16.35437,-37.971497,0.23858239,-0.21463019,9.801398,0.0011468977,-0.0011765361,-0.00051498413,-6.1035156e-05,0.00022888184,-0.00032043457
0.010906195,-0.012216241,0.9938485,0.24023438,-0.21487427,9.801239,2.5360107,-15.771484,-38.4552,0.23883423,-0.21469764,9.801391,0.0008970499,0.0003234297,-0.00018024445,6.1035156e-05,0.00010681152,-0.00019836426
0.010900167,-0.012206566,0.99384993,0.23857117,-0.21606445,9.803162,2.4734497,-15.5685425,-37.12616,0.23869355,-0.21452472,9.801397,0.00033561885,-0.00010718405,-0.0012483597,0.0,0.00022888184,-0.00032043457
0.01089132,-0.012242174,0.99385285,0.23855591,-0.21536255,9.8029175,3.352356,-15.652466,-37.480164,0.23859116,-0.21524481,9.801385,0.00066655874,-0.0012803078,0.0012369156,0.0,-6.1035156e-05,-0.0002593994
0.010884124,-0.012238807,0.9938547,0.23545837,-0.21534729,9.801956,2.6138306,-15.840149,-38.39569,0.23844033,-0.21519838,9.80139,-0.00038048625,0.00010077655,-0.0006093979,6.1035156e-05,0.00010681152,6.1035156e-05
0.010842864,-0.0122395735,0.9938655,0.23808289,-0.21655273,9.801727,2.6153564,-15.765381,-38.75885,0.23761745,-0.21532449,9.801407,-0.0017075986,-0.00072045624,-9.441376e-05,6.1035156e-05,4.5776367e-05,-0.00032043457
0.010812125,-0.012243338,0.99387354,0.23880005,-0.21511841,9.801483,3.755188,-15.394592,-38.88092,0.23701099,-0.21548074,9.801416,-0.0006080866,-0.00033958256,-0.00038337708,0.00012207031,0.00010681152,-0.0002593994
0.010848237,-0.012233906,0.99386394,0.23521423,-0.21511841,9.800766,3.07312,-16.394043,-38.075256,0.23722224,-0.21485718,9.801426,0.0013190955,-0.00015234947,-0.00042247772,0.00018310547,-6.1035156e-05,-7.6293945e-05
0.010828564,-0.012240757,0.99386925,0.2400055,-0.21702576,9.802673,2.9144287,-16.099548,-39.89563,0.23733413,-0.21538611,9.801412,0.00070507824,-0.0011270046,0.0030441284,6.1035156e-05,-1.5258789e-05,-1.5258789e-05
0.010884637,-0.012275917,0.9938552,0.23928833,-0.21583557,9.802444,2.7633667,-15.740967,-40.345764,0.23852804,-0.21592258,9.801371,0.0021521747,-0.0010647625,-0.00019645691,0.0,0.00016784668,-6.1035156e-05
0.010884285,-0.012257961,0.99385494,0.23976135,-0.2172699,9.8029175,3.4317017,-15.567017,-38.072205,0.23848355,-0.21557245,9.80138,0.0005315542,0.00072447956,-0.0010919571,0.00012207031,4.5776367e-05,-6.1035156e-05
0.0108984485,-0.0122923395,0.9938518,0.23976135,-0.21583557,9.802444,2.7832031,-15.684509,-38.220215,0.23883834,-0.21620643,9.801356,0.001363337,-0.0019799024,0.00021839142,6.1035156e-05,0.000289917,-6.1035156e-05
0.010889439,-0.012267086,0.99385375,0.23736572,-0.21702576,9.803879,2.5161743,-15.982056,-39.630127,0.23860557,-0.21573696,9.801373,0.00039851665,0.0006548017,0.00061511993,0.0,0.000289917,-0.00018310547
0.0108620105,-0.012292844,0.9938613,0.24095154,-0.21846008,9.806503,2.5253296,-15.989685,-38.650513,0.2381112,-0.21631451,9.801373,-0.0003195405,-0.0011567473,0.0005674362,0.00012207031,-1.5258789e-05,0.0
0.010899902,-0.012308672,0.9938517,0.23904419,-0.21463013,9.803635,3.0059814,-15.95459,-38.964844,0.23890153,-0.21652187,9.801349,0.0017627478,-0.0009239763,0.00085163116,0.0,4.5776367e-05,-0.0002593994
0.010918241,-0.012301439,0.9938468,0.24047852,-0.21679688,9.8029175,2.8823853,-15.011597,-39.44702,0.23925294,-0.216331,9.801345,0.0006735772,0.0005668402,0.0016784668,0.0,-1.5258789e-05,-1.5258789e-05
0.010904328,-0.012294644,0.9938503,0.237854,-0.21534729,9.803162,2.8305054,-16.409302,-38.29651,0.23896067,-0.21623564,9.801353,2.0205975e-05,0.00021323562,-0.0012769699,6.1035156e-05,0.000289917,-0.00032043457
0.010885785,-0.012272611,0.9938548,0.24023438,-0.2141571,9.801239,3.0792236,-16.093445,-38.99536,0.23854412,-0.21585487,9.801373,-1.2069941e-05,0.0005429685,-0.0019693375,0.0,0.00016784668,6.1035156e-05
0.010899408,-0.01226988,0.9938512,0.23951721,-0.21679688,9.8029175,2.7526855,-16.340637,-38.201904,0.23881064,-0.21576472,9.801368,0.0011637956,0.00043022633,-0.00068569183,-0.00012207031,0.00022888184,-6.1035156e-05
0.0108946655,-0.01228182,0.9938526,0.23928833,-0.2172699,9.802444,3.0807495,-16.096497,-38.76953,0.2387408,-0.21601097,9.801364,0.0007428974,-0.00026731193,0.0001783371,0.00018310547,0.000289917,-0.00032043457
0.010880124,-0.012287972,0.99385655,0.24023438,-0.2141571,9.8022,1.927185,-15.087891,-37.686157,0.23846301,-0.21617043,9.801367,0.00029993057,-0.0010658354,0.00026988983,-6.1035156e-05,0.00016784668,-0.00044250488
0.010919773,-0.01225033,0.9938455,0.23928833,-0.21464539,9.801727,3.112793,-15.516663,-38.20038,0.23917678,-0.21532756,9.801369,0.0022411495,0.0019073188,-0.0012702942,-6.1035156e-05,0.00010681152,-0.0002593994
0.010911092,-0.012244592,0.9938477,0.24023438,-0.21655273,9.803162,2.6382446,-15.405273,-37.78076,0.23899132,-0.2152388,9.801375,-0.00021442771,0.00038538873,0.00011920929,0.0,0.00016784668,-0.00032043457
0.010919452,-0.012254888,0.9938457,0.23928833,-0.21440125,9.8029175,3.4957886,-15.777588,-38.798523,0.23917985,-0.21541752,9.801366,0.0012643933,-0.0006313026,0.00086402893,0.00024414062,4.5776367e-05,-0.0001373291
0.010912275,-0.012236325,0.99384725,0.23928833,-0.2163086,9.802444,1.979065,-15.817261,-37.535095,0.23899767,-0.21507394,9.801378,-0.00022318959,-0.0002503395,-0.00071430206,0.00012207031,0.00010681152,-0.00032043457
0.010913838,-0.012235686,0.99384683,0.24047852,-0.21391296,9.804596,3.036499,-15.37323,-38.39569,0.23902756,-0.21505722,9.801377,0.00022526085,-0.00025813282,0.0008020401,0.00012207031,0.00016784668,-0.00038146973
0.010916004,-0.012223203,0.99384606,0.23736572,-0.21702576,9.804108,3.678894,-15.403748,-38.42621,0.23904477,-0.2148073,9.801383,0.00067064166,-2.5704503e-05,0.00084114075,-0.00012207031,4.5776367e-05,-0.00019836426
0.01090035,-0.012261135,0.9938508,0.23999023,-0.21511841,9.802444,2.5421143,-15.397644,-39.51111,0.23881118,-0.21559118,9.801371,-0.00029487908,-0.00066788495,0.00072956085,-0.00012207031,4.5776367e-05,-0.00044250488
0.0108995745,-0.012239822,0.99385065,0.23904419,-0.21440125,9.802673,2.3986816,-15.197754,-38.407898,0.23875117,-0.21517655,9.801381,5.751848e-06,0.0005852878,-0.0009508133,0.00012207031,0.00010681152,-0.00038146973
0.010898143,-0.012233256,0.99385095,0.23641968,-0.21559143,9.800766,3.5614014,-14.845276,-36.268616,0.23870888,-0.21505205,9.801386,0.00053434074,-2.5719404e-05,0.00015258789,6.1035156e-05,0.00016784668,-0.00038146973
0.010853947,-0.012232093,0.99386245,0.23928833,-0.21440125,9.803162,2.6870728,-16.133118,-37.628174,0.2378233,-0.21514839,9.801405,-0.0014282316,-0.000420779,-0.0016527176,0.0,0.00022888184,-0.00019836426
0.010881424,-0.012214004,0.993855,0.24023438,-0.21440125,9.802429,3.1845093,-15.655518,-38.607788,0.2383346,-0.2147207,9.801402,0.0021187812,0.0008303821,8.583069e-06,-6.1035156e-05,0.00022888184,-0.0001373291
0.010874141,-0.012242584,0.9938573,0.24047852,-0.21391296,9.8022,3.2745361,-15.583801,-37.5412,0.23824872,-0.21529911,9.801392,0.00051264465,-0.0005014986,0.0018568039,0.00024414062,0.00022888184,-0.00038146973
0.010890816,-0.012220418,0.9938526,0.23928833,-0.21702576,9.8033905,2.4536133,-15.699768,-39.03961,0.23853564,-0.21482077,9.801394,0.0014293641,-0.00026115775,0.000102996826,0.00024414062,0.00022888184,-0.00018310547
0.010887447,-0.012224117,0.99385357,0.23736572,-0.21511841,9.80603,2.62146,-15.542603,-39.09149,0.23847605,-0.21490219,9.801394,0.0007647425,-0.0013635755,0.0005311966,0.0,0.00022888184,-0.00019836426
0.010852254,-0.012233433,0.9938629,0.2359314,-0.21655273,9.805313,2.9525757,-15.52887,-38.043213,0.23779225,-0.21517915,9.801405,-0.0007145554,-0.00035876036,0.0009813309,0.00024414062,0.00016784668,-0.00038146973
0.010824916,-0.01223964,0.99387014,0.24191284,-0.21559143,9.803162,1.890564,-15.739441,-38.723755,0.23725893,-0.21537408,9.8014145,-0.00043138862,-0.0013636351,0.0004892349,0.0,0.00016784668,0.0
0.010870577,-0.0122401975,0.9938582,0.23808289,-0.21655273,9.806503,1.7150879,-16.116333,-38.568115,0.23817252,-0.21526206,9.8013935,0.002710998,0.0004492551,0.00015830994,-6.1035156e-05,0.00016784668,-0.0002593994
0.010865223,-0.012271185,0.9938601,0.23928833,-0.2172699,9.80603,2.7938843,-15.390015,-38.311768,0.23813018,-0.21588236,9.801381,0.00035193563,-0.0010626465,0.0017004013,-6.1035156e-05,0.00016784668,-7.6293945e-05
0.01087518,-0.0122823445,0.99385774,0.23951721,-0.21487427,9.806259,3.8726807,-16.63971,-37.402344,0.23835248,-0.21607374,9.801372,0.0010769665,-0.00062832236,-0.00015544891,0.00012207031,4.5776367e-05,0.0
0.010888744,-0.012254066,0.9938537,0.2416687,-0.21272278,9.801727,3.2684326,-15.730286,-37.57019,0.2385645,-0.21548425,9.801379,0.00085647404,0.0011699349,0.0006971359,-6.1035156e-05,-1.5258789e-05,6.1035156e-05
0.010949234,-0.012243,0.9938377,0.24119568,-0.21559143,9.801956,3.2226562,-16.601562,-38.27362,0.2397501,-0.21510465,9.801358,0.0018432587,0.0012592822,-0.0017652512,-6.1035156e-05,4.5776367e-05,-0.0002593994
0.010966889,-0.0122413235,0.99383307,0.23880005,-0.21440125,9.8033905,3.6224365,-15.054321,-37.145996,0.24009943,-0.21502422,9.801353,0.0010467023,0.00019434094,-0.0021362305,-6.1035156e-05,0.00010681152,-0.00019836426
0.010949568,-0.01224337,0.99383765,0.24191284,-0.21679688,9.801712,3.3981323,-16.374207,-37.93335,0.23975757,-0.215111,9.801358,-0.0005206913,3.875792e-05,0.00017261505,0.0,-0.00012207031,-0.00019836426
0.010973074,-0.012258309,0.99383175,0.23951721,-0.2141571,9.803635,3.251648,-15.942383,-38.368225,0.24025853,-0.2153396,9.801342,0.00089749694,-0.00046043098,-0.0010032654,-6.1035156e-05,0.00016784668,-0.00038146973
0.010959152,-0.012242748,0.9938351,0.23880005,-0.21655273,9.806747,1.7547607,-15.316772,-37.95166,0.23994778,-0.21507296,9.801354,-0.00023326278,0.0007136911,0.00061130524,-6.1035156e-05,0.00010681152,-0.0001373291
0.01092872,-0.012266014,0.99384344,0.23736572,-0.21534729,9.8029175,2.9785156,-15.022278,-37.187195,0.23938833,-0.21561006,9.801357,-0.00065751374,-0.0011091977,0.0018386841,0.00024414062,0.00010681152,0.0
0.010878324,-0.012241913,0.99385625,0.23904419,-0.21655273,9.804596,2.697754,-15.913391,-37.43286,0.23833093,-0.21527475,9.801391,-0.0014962554,-2.0116568e-05,-0.00085926056,6.1035156e-05,0.00022888184,-0.00032043457
0.010875895,-0.012265649,0.99385726,0.23736572,-0.21917725,9.803879,2.357483,-16.072083,-38.887024,0.2383319,-0.21574536,9.801379,0.0006413311,-0.0014602989,0.0010156631,0.0,0.00022888184,-0.00019836426
0.010840687,-0.012301715,0.99386704,0.23951721,-0.21368408,9.805069,2.8884888,-15.170288,-37.81891,0.23770353,-0.21654536,9.801377,-0.00016318262,-0.0016225129,-0.00013542175,0.0,0.00016784668,-6.1035156e-05
0.010858699,-0.012266616,0.9938618,0.24263,-0.21343994,9.804108,3.1463623,-16.304016,-39.64386,0.23799028,-0.2158106,9.801386,0.0012296885,0.0017154962,-9.441376e-05,6.1035156e-05,0.00010681152,-6.1035156e-05
0.0109408,-0.012224107,0.9938396,0.23568726,-0.21583557,9.803162,2.8656006,-15.603638,-38.2843,0.23954213,-0.21475805,9.801372,0.003263533,0.0018525273,-6.580353e-05,6.1035156e-05,0.00010681152,-0.00019836426
0.010856835,-0.012229785,0.9938617,0.2416687,-0.2163086,9.804825,2.6123047,-15.838623,-38.546753,0.23787618,-0.21509548,9.801404,-0.0027229786,-0.0009137839,-0.00052928925,-0.00018310547,0.00022888184,-0.00032043457
0.010916037,-0.012273006,0.9938469,0.24215698,-0.21559143,9.803162,2.7618408,-16.044617,-38.822937,0.23914945,-0.21578099,9.801358,0.003414467,-0.0009409934,0.00028419495,0.00018310547,0.00016784668,-0.00019836426
0.010957895,-0.012246439,0.9938355,0.23904419,-0.21440125,9.804108,2.6184082,-15.844727,-37.7182,0.2399304,-0.21514854,9.801354,0.002169326,0.00079864264,-0.0007753372,6.1035156e-05,0.00022888184,-0.0007324219
0.010937682,-0.012228737,0.9938405,0.24095154,-0.21583557,9.8022,3.314209,-16.300964,-38.74359,0.23948953,-0.21485701,9.801372,-3.8549304e-05,-0.00020197034,0.0007429123,0.00012207031,0.00022888184,-0.00012207031
0.010929657,-0.012243399,0.99384284,0.23857117,-0.21440125,9.801483,2.6870728,-16.133118,-37.628174,0.2393598,-0.21516536,9.801368,0.00058873,-0.00061897933,-0.0007829666,6.1035156e-05,0.00022888184,-0.00032043457
0.010903112,-0.012230074,0.9938496,0.23640442,-0.21368408,9.805313,2.6184082,-15.844727,-37.7182,0.23880151,-0.21497643,9.801385,-0.00027281046,0.00014041364,-0.0011720657,6.1035156e-05,4.5776367e-05,-0.0001373291
0.010887803,-0.012176337,0.9938527,0.2400055,-0.21391296,9.802444,3.1295776,-15.2282715,-37.68921,0.23838338,-0.21396701,9.801417,-0.0010652989,0.0020041466,0.00050258636,-0.00018310547,4.5776367e-05,-6.1035156e-05
0.010881124,-0.012202416,0.9938549,0.23832703,-0.21679688,9.801956,2.8060913,-15.17334,-37.96692,0.23830439,-0.21449491,9.801408,0.00069750845,-0.00082957745,-0.00047397614,0.00024414062,0.000289917,-0.00038146973
0.010868146,-0.012227284,0.99385864,0.24072266,-0.21583557,9.800995,2.9403687,-15.518188,-39.401245,0.23809698,-0.21501611,9.801401,0.00042779744,-0.0019815266,-0.00097084045,0.0,0.00016784668,0.0
0.010896163,-0.012236351,0.9938515,0.23857117,-0.21607971,9.803879,2.7191162,-15.325928,-38.07068,0.23867577,-0.2151179,9.801385,0.0017769188,2.2754073e-05,-0.00048828125,0.00012207031,0.00016784668,-0.00032043457
0.010885483,-0.012254577,0.9938546,0.23904419,-0.21247864,9.801239,2.947998,-15.525818,-38.345337,0.23850042,-0.21550305,9.801381,4.285574e-05,-0.0012686104,0.00014591217,6.1035156e-05,0.00016784668,-0.0002593994
0.010898301,-0.012196257,0.9938503,0.23832703,-0.21606445,9.801712,2.3239136,-15.132141,-38.238525,0.23863477,-0.2143282,9.801404,0.00063452125,0.0018666834,-0.000702858,0.00018310547,-1.5258789e-05,-7.6293945e-05
0.0108910445,-0.01220788,0.9938524,0.23904419,-0.2172699,9.8033905,3.340149,-15.336609,-40.664673,0.23851404,-0.21457501,9.801401,0.001228407,-3.811717e-05,0.0002670288,6.1035156e-05,0.00010681152,-0.00018310547
0.010888754,-0.01224478,0.99385357,0.23880005,-0.21536255,9.805313,3.3721924,-16.349792,-41.32538,0.23854534,-0.21530269,9.801385,2.413988e-06,-0.0019460768,0.0003271103,0.0,4.5776367e-05,-6.1035156e-05
0.010900181,-0.012236307,0.9938504,0.237854,-0.21559143,9.8033905,4.18396,-16.375732,-40.45868,0.23875596,-0.2151062,9.801383,0.00023686886,0.00027820468,0.0022945404,-4.5776367e-05,0.0,-0.00018310547
0.010889464,-0.012261448,0.9938536,0.24047852,-0.21846008,9.804825,2.9052734,-16.09497,-40.574646,0.23859431,-0.21562667,9.801375,-0.00032190979,-0.0008767098,0.0002593994,7.6293945e-05,-6.1035156e-05,-0.00012207031
0.010920164,-0.012294951,0.9938462,0.23857117,-0.21224976,9.808426,3.0288696,-15.52124,-38.34839,0.23927778,-0.21619892,9.801346,0.0013755858,-0.0012525022,0.0011281967,7.6293945e-05,-0.00010681152,0.0
0.010930863,-0.012238286,0.9938424,0.24263,-0.2163086,9.806259,3.5766602,-15.771484,-38.876343,0.23937319,-0.21506211,9.801369,-0.00017650425,0.0017044991,0.0018701553,0.00032043457,0.0,-0.00018310547
0.010968473,-0.012225238,0.9938324,0.237854,-0.21296692,9.803879,2.116394,-16.012573,-39.242554,0.24009742,-0.2147054,9.801359,0.0012347996,-0.0005609542,0.0012397766,7.6293945e-05,6.1035156e-05,6.1035156e-05
0.010914042,-0.012186265,0.993846,0.24095154,-0.21607971,9.801956,2.922058,-15.802002,-40.3656,0.23892836,-0.21409036,9.801401,-0.001653567,0.0014490634,-0.001253128,-0.00010681152,0.0,-6.1035156e-05
0.010952289,-0.012252461,0.99383706,0.23617554,-0.2163086,9.803879,3.3309937,-16.085815,-37.947083,0.23983097,-0.21528143,9.801353,0.0012943,-0.0021694005,-0.001786232,7.6293945e-05,-6.1035156e-05,0.00038146973
0.010890047,-0.012224121,0.99385285,0.23928833,-0.21679688,9.804108,3.1021118,-15.885925,-37.443542,0.23852803,-0.21489526,9.8013935,-0.0026414841,0.0003055632,-0.0019979477,7.6293945e-05,6.1035156e-05,-0.00018310547
0.0109086875,-0.012256177,0.99384856,0.23832703,-0.21607971,9.803162,1.965332,-15.956116,-38.31787,0.23896746,-0.21547177,9.801371,0.001200512,-0.0017382503,0.0016927719,7.6293945e-05,0.0001373291,-0.00018310547
0.010865113,-0.012262777,0.99386,0.23760986,-0.21343994,9.8022,1.9470215,-16.322327,-38.39264,0.23811044,-0.21571827,9.801385,-0.0012740791,-0.0003103912,-0.0007867813,0.0001373291,6.1035156e-05,-6.1035156e-05
0.010896752,-0.012214201,0.99385095,0.24215698,-0.21511841,9.804352,2.3620605,-16.000366,-38.645935,0.23864125,-0.21468319,9.801394,0.0008202344,0.0015375167,-4.863739e-05,-0.00010681152,-0.00018310547,0.0001373291
0.010945413,-0.012222702,0.99383837,0.23976135,-0.21391296,9.802673,3.1021118,-15.736389,-38.09204,0.23963137,-0.21471812,9.801371,0.0015122741,0.0001193583,-0.0003528595,-0.00010681152,-6.1035156e-05,-0.00010681152
0.010948763,-0.012240208,0.9938378,0.23760986,-0.2141571,9.804108,3.0334473,-15.371704,-38.697815,0.23973487,-0.21505134,9.80136,-2.4750829e-05,0.00022302568,-6.389618e-05,-0.00016784668,0.0,0.0
0.0109029105,-0.012220786,0.99384946,0.23713684,-0.21392822,9.801483,3.3294678,-15.934753,-38.822937,0.23877808,-0.21479537,9.80139,-0.0016891211,0.0009254813,-0.00019359589,-0.00010681152,-6.1035156e-05,0.0001373291
0.010889947,-0.01222742,0.993853,0.24119568,-0.21559143,9.804352,3.2653809,-15.57312,-38.822937,0.2385329,-0.21496001,9.801392,-0.0012033731,0.00034724176,-0.00092220306,-0.00016784668,0.0,0.0001373291
0.010931587,-0.012241814,0.9938423,0.23904419,-0.21774292,9.803635,2.5756836,-16.642761,-38.78479,0.23939502,-0.21512914,9.801367,0.0022247434,5.4702163e-05,0.0009813309,1.5258789e-05,6.1035156e-05,-0.00018310547
0.010912649,-0.012286027,0.99384797,0.24095154,-0.21511841,9.802673,2.7893066,-15.385437,-38.83972,0.23910896,-0.21604471,9.801353,-0.0005853176,-0.0018994063,-0.00014019012,-4.5776367e-05,-0.00018310547,7.6293945e-05
0.010967328,-0.012276317,0.99383354,0.24215698,-0.21463013,9.802444,2.5634766,-15.264893,-37.89978,0.24018137,-0.21570723,9.801335,0.0016846359,0.00063087046,-0.0001001358,7.6293945e-05,6.1035156e-05,0.0001373291
0.010987337,-0.012242985,0.99382776,0.2400055,-0.21583557,9.804108,2.6260376,-15.696716,-37.838745,0.24051148,-0.21500142,9.801343,0.00088621676,0.0011261106,-0.0003862381,1.5258789e-05,-6.1035156e-05,6.1035156e-05
0.010985843,-0.012279515,0.9938287,0.24023438,-0.2163086,9.801956,2.0645142,-15.586853,-38.171387,0.24055806,-0.21571971,9.801326,-0.00012673438,-0.0012637377,0.0003862381,-4.5776367e-05,0.0,-0.00018310547
0.01098039,-0.012279337,0.99383014,0.23808289,-0.2163086,9.805313,3.6743164,-15.626526,-37.867737,0.24044873,-0.21573098,9.801329,-0.0002489835,0.0001706034,-0.0010128021,1.5258789e-05,0.0,-6.1035156e-05
0.010939749,-0.0122657,0.9938406,0.24143982,-0.21534729,9.804352,3.0593872,-14.93988,-37.854004,0.23960803,-0.21557412,9.801352,0.00033979118,0.0007517189,-7.6293945e-05,0.0001373291,-6.1035156e-05,1.5258789e-05
0.010969635,-0.01226015,0.99383265,0.23880005,-0.21440125,9.805069,2.7954102,-15.391541,-38.01117,0.24019367,-0.21538489,9.801342,0.0011866689,9.094179e-05,0.00010967255,-4.5776367e-05,0.00012207031,-0.00018310547
0.010924131,-0.012234247,0.99384415,0.237854,-0.21511841,9.803162,2.3742676,-16.012573,-36.91101,0.23923023,-0.21500133,9.801374,-0.0012184978,0.00066405535,0.0010232925,7.6293945e-05,6.1035156e-05,-0.00012207031
0.010904504,-0.012231899,0.9938492,0.23880005,-0.21655273,9.803879,3.527832,-15.122986,-38.438416,0.23883313,-0.21500835,9.801383,-0.00081190467,-5.455315e-05,-0.00075244904,1.5258789e-05,-6.1035156e-05,-0.00012207031
0.010912866,-0.012257199,0.9938475,0.23857117,-0.21536255,9.803879,3.4942627,-15.776062,-38.94806,0.2390531,-0.21548048,9.801368,0.0004080832,-0.0012506247,-0.00050354004,-4.5776367e-05,6.1035156e-05,-0.00024414062
0.01088394,-0.012260872,0.99385506,0.23760986,-0.21678162,9.803162,2.5131226,-16.282654,-38.55896,0.23848271,-0.21563028,9.801378,-0.00092820823,8.890033e-05,-1.9073486e-05,7.6293945e-05,0.0,-0.00024414062
0.010887477,-0.012270927,0.99385434,0.23712158,-0.21440125,9.799805,2.9663086,-15.238953,-37.68463,0.23857437,-0.21581736,9.801372,-0.0003026724,-0.0006853193,-1.04904175e-05,7.6293945e-05,-0.00012207031,-0.00012207031
0.01086382,-0.012234537,0.9938599,0.23857117,-0.21463013,9.803162,3.5064697,-15.632629,-38.768005,0.23802568,-0.21516958,9.801399,-0.0014025271,0.0012795776,-0.0023965836,-4.5776367e-05,-6.1035156e-05,0.0
0.010875722,-0.01223803,0.99385685,0.237854,-0.21534729,9.8033905,3.1707764,-16.099548,-37.791443,0.23827082,-0.21520582,9.801393,0.00049972534,-0.0006031096,0.00031089783,7.6293945e-05,0.00012207031,-6.1035156e-05
0.01085608,-0.012240298,0.99386203,0.23951721,-0.2182312,9.801727,2.4597168,-15.856934,-37.4115,0.23788305,-0.21530308,9.8014,-0.0005453229,-1.886487e-05,-0.00010871887,1.5258789e-05,-0.00012207031,0.0
0.010899122,-0.012274319,0.99385136,0.23808289,-0.21463013,9.803635,2.6062012,-16.061401,-38.290405,0.2388142,-0.2158523,9.801366,0.0013921559,-0.0013922751,-7.05719e-05,-4.5776367e-05,0.0,-6.1035156e-05
0.010880024,-0.012257084,0.9938561,0.23904419,-0.21463013,9.800995,2.885437,-15.318298,-37.547302,0.23839656,-0.21556678,9.801382,-0.00082328916,0.00072561204,0.00074768066,7.6293945e-05,-0.00012207031,0.0001373291
0.010893999,-0.012262855,0.9938525,0.23880005,-0.21559143,9.804352,3.1936646,-15.664673,-37.32605,0.23868787,-0.21564195,9.8013735,0.00033284724,-0.00017243624,-0.0010976791,7.6293945e-05,0.0,0.0001373291
0.010897859,-0.012232359,0.993851,0.23760986,-0.2141571,9.800522,1.852417,-14.871216,-38.24463,0.23870133,-0.21503527,9.801387,6.301701e-05,0.00091032684,0.0010261536,-0.00010681152,0.0,-0.00018310547
0.010876467,-0.012225215,0.99385643,0.23832703,-0.21536255,9.804108,2.255249,-16.58783,-38.835144,0.23825897,-0.21495326,9.801399,-0.00091937184,0.00057560205,-0.000746727,-4.5776367e-05,0.0,0.0
0.010891306,-0.01224044,0.9938528,0.23881531,-0.2141571,9.803879,3.9260864,-15.242004,-38.552856,0.23858725,-0.21521093,9.801385,0.0006671101,-0.000594005,0.00061035156,-4.5776367e-05,0.0,-0.00010681152
0.010891848,-0.012220709,0.9938524,0.2400055,-0.21702576,9.8033905,1.9561768,-16.175842,-38.36212,0.23855688,-0.21482368,9.801394,-0.00027237833,0.0011778921,0.00073719025,-0.00010681152,0.0,0.0
0.010909456,-0.012274942,0.9938486,0.23760986,-0.21774292,9.801712,2.9342651,-15.664673,-39.279175,0.23902199,-0.21583658,9.80136,0.0011649579,-0.0016346425,0.0003299713,-4.5776367e-05,0.0,7.6293945e-05
0.010883035,-0.012298904,0.99385595,0.23880005,-0.2172699,9.801712,2.5360107,-15.77301,-38.30414,0.23854405,-0.21637636,9.801361,-0.0014396757,-0.0010929853,-0.0012111664,7.6293945e-05,-0.00018310547,-6.1035156e-05
0.0109053105,-0.012315864,0.9938504,0.23928833,-0.21463013,9.803635,2.6947021,-15.759277,-38.83667,0.23902462,-0.21664791,9.801343,0.0007098019,-0.00059756637,-0.0004911423,-4.5776367e-05,-0.00012207031,0.0
0.01090712,-0.012288362,0.99384946,0.23976135,-0.2163086,9.801483,2.7557373,-16.343689,-37.825012,0.23900335,-0.2161053,9.801355,-0.00046058,0.0010125786,0.00015354156,-0.00010681152,0.00012207031,-6.1035156e-05
0.010914803,-0.012299669,0.99384767,0.237854,-0.21511841,9.8022,2.7160645,-15.473938,-37.571716,0.23918049,-0.21630563,9.801346,0.00080284476,0.00024595857,-0.0005273819,-4.5776367e-05,6.1035156e-05,-0.00018310547
0.010883421,-0.012268568,0.99385536,0.23951721,-0.21463013,9.802429,3.8787842,-16.415405,-37.886047,0.23848842,-0.21578218,9.801375,-0.0013841242,0.0011815131,0.0009212494,1.5258789e-05,-6.1035156e-05,6.1035156e-05
0.010911782,-0.012240037,0.9938475,0.24047852,-0.21391296,9.804596,1.6876221,-14.953613,-38.40332,0.23899558,-0.21514784,9.801376,0.0009931326,0.0012499988,-0.0012989044,1.5258789e-05,6.1035156e-05,-0.00012207031
0.010923781,-0.012234079,0.9938442,0.23857117,-0.21583557,9.802429,1.5869141,-15.473938,-37.901306,0.2392229,-0.21499896,9.801374,0.000735417,0.00016710162,0.0024785995,-4.5776367e-05,-6.1035156e-05,0.0
0.010914602,-0.0122457,0.99384683,0.24047852,-0.21559143,9.803879,2.6901245,-15.907288,-38.337708,0.23906375,-0.21525095,9.801373,-0.00030769408,-0.00030086935,-0.00025844574,0.0001373291,6.1035156e-05,0.0001373291
0.010949065,-0.012251388,0.9938379,0.23664856,-0.21391296,9.804825,2.7999878,-15.396118,-37.483215,0.2397643,-0.21526915,9.801355,0.0009237528,-0.000535354,-0.0008134842,-4.5776367e-05,0.0,0.0002593994
0.01088703,-0.012213004,0.9938535,0.23857117,-0.21487427,9.803162,2.935791,-15.663147,-39.505005,0.2384445,-0.21468602,9.8014,-0.002090484,0.0013051927,0.0026493073,1.5258789e-05,-6.1035156e-05,6.1035156e-05
0.01089972,-0.012216638,0.99385023,0.23928833,-0.21440125,9.8033905,2.4612427,-15.783691,-37.773132,0.23870566,-0.21472286,9.801393,3.8146973e-05,-0.00034496188,-0.00078487396,-4.5776367e-05,-6.1035156e-05,0.00019836426
0.010915429,-0.012224285,0.99384624,0.23976135,-0.21391296,9.801956,2.0584106,-15.733337,-38.124084,0.23903555,-0.21483003,9.801383,0.0006735921,-0.00024147332,-0.00036144257,1.5258789e-05,0.0,0.0
0.010918609,-0.012195849,0.9938449,0.23712158,-0.2141571,9.8029175,2.9846191,-16.540527,-38.630676,0.23903966,-0.21426545,9.801395,-3.0770898e-05,0.0013301522,-0.0013589859,1.5258789e-05,-6.1035156e-05,0.00018310547
0.010877216,-0.012203351,0.9938559,0.23904419,-0.21559143,9.801712,3.3538818,-15.501404,-38.206482,0.23822826,-0.21452372,9.801409,-0.0018553883,-0.0003221184,-0.00026226044,-4.5776367e-05,-0.00012207031,-6.1035156e-05
0.010945982,-0.012208261,0.993838,0.2400055,-0.21607971,9.803162,2.090454,-16.827393,-37.971497,0.23961252,-0.21443419,9.801376,0.0013297349,0.00052952766,-0.0012340546,1.5258789e-05,6.1035156e-05,-0.00024414062
0.010946249,-0.012262791,0.99383885,0.23904419,-0.21774292,9.8033905,2.8839111,-15.2404785,-38.059998,0.23973185,-0.21549971,9.801351,0.00025235116,-0.0017510355,0.0009403229,-0.00016784668,-6.1035156e-05,0.0
0.0109232105,-0.01229214,0.99384534,0.23928833,-0.21343994,9.799805,2.2460938,-15.1397705,-37.78534,0.23933281,-0.21613576,9.801347,-0.00079987943,-0.00086925924,0.00014209747,-4.5776367e-05,6.1035156e-05,-0.00018310547
0.010934566,-0.012258993,0.9938418,0.24047852,-0.21583557,9.805069,2.8549194,-15.594482,-39.717102,0.23949046,-0.21545699,9.801357,0.000506714,0.0017803907,-0.0011758804,-4.5776367e-05,-6.1035156e-05,-0.00030517578
0.0109719625,-0.012263925,0.9938321,0.24047852,-0.21583557,9.800766,3.7506104,-15.542603,-38.83667,0.24024805,-0.2154524,9.801339,0.00066925585,-0.00035248697,0.0020895004,0.0001373291,-0.00018310547,-0.00012207031
0.010973009,-0.012261989,0.9938318,0.23976135,-0.21511841,9.8022,2.6428223,-15.182495,-38.490295,0.24026492,-0.2154117,9.801339,-0.00026774406,-0.00041641295,-0.0021181107,0.0001373291,0.0,-6.1035156e-05
0.010970427,-0.0122386,0.9938321,0.23808289,-0.21391296,9.801956,3.2699585,-15.730286,-37.41913,0.24016441,-0.2149614,9.8013525,0.0002938062,0.00034944713,0.0009813309,7.6293945e-05,6.1035156e-05,-0.00024414062
0.010915968,-0.012231291,0.99384624,0.23832703,-0.21798706,9.804352,3.302002,-16.671753,-38.215637,0.23906094,-0.21496555,9.801379,-0.0022015423,0.00012125075,0.0011339188,-4.5776367e-05,0.0,-6.1035156e-05
0.010899066,-0.01226593,0.9938512,0.23904419,-0.2163086,9.804825,2.279663,-16.15448,-38.14392,0.23879556,-0.2156884,9.80137,-0.0005131811,-0.0012970269,0.0009202957,-0.00010681152,-6.1035156e-05,6.1035156e-05
0.010911293,-0.012292549,0.99384844,0.23928833,-0.21702576,9.804596,2.999878,-16.099548,-39.068604,0.2390955,-0.21617591,9.801352,0.00014050305,-0.0005736202,0.00061035156,-4.5776367e-05,-0.00012207031,-6.1035156e-05
0.010920385,-0.012302078,0.99384624,0.23928833,-0.21511841,9.800278,2.8152466,-16.700745,-38.505554,0.23929709,-0.2163377,9.801343,0.00016449392,-0.00016474724,0.00025749207,-0.00010681152,0.0,-0.0004272461
0.010926221,-0.012288804,0.9938445,0.23928833,-0.21511841,9.803146,2.4749756,-15.339661,-38.438416,0.23938599,-0.2160624,9.801347,0.00010098517,0.0012153983,-0.0020618439,-4.5776367e-05,0.0,-0.00012207031
0.010929939,-0.012267018,0.99384314,0.23927307,-0.21487427,9.805542,2.2964478,-16.018677,-36.83319,0.23941477,-0.21562637,9.801355,6.386638e-05,0.0007868558,0.00069999695,-0.00010681152,6.1035156e-05,-0.00024414062
0.01092197,-0.012270099,0.9938453,0.23832703,-0.21583557,9.8029175,3.4866333,-15.7699585,-39.927673,0.23926197,-0.21570815,9.801358,-0.00028139353,0.00017407537,0.0020666122,0.00019836426,-0.00018310547,-0.00012207031
0.010927542,-0.012251628,0.99384356,0.23976135,-0.21846008,9.80603,2.5238037,-15.989685,-38.648987,0.2393347,-0.21533194,9.801364,-0.0005838424,-0.00021523237,-0.0011777878,1.5258789e-05,0.00018310547,0.00018310547
0.010885265,-0.012292522,0.99385524,0.24095154,-0.21702576,9.801483,3.1906128,-15.658569,-37.854004,0.23857526,-0.21624556,9.801363,-0.00055733323,-0.00192675,0.0012817383,-4.5776367e-05,6.1035156e-05,-0.00024414062
0.010944846,-0.0123243155,0.9938402,0.23857117,-0.21702576,9.804596,1.9104004,-15.299988,-38.861084,0.2398324,-0.21670644,9.801321,0.0027365535,-0.0005082935,-0.00042629242,-0.00010681152,6.1035156e-05,-6.1035156e-05
0.010896272,-0.012349307,0.99385333,0.24047852,-0.21583557,9.806503,2.9800415,-14.718628,-38.786316,0.23891379,-0.21732618,9.801331,-0.0016110092,-0.00084775686,0.00019550323,0.0001373291,6.1035156e-05,-6.1035156e-05
0.010921555,-0.012300265,0.9938459,0.23951721,-0.2163086,9.803635,4.6813965,-15.826416,-41.271973,0.23931667,-0.21629907,9.801343,0.0010796934,0.0012549013,0.0015668869,1.5258789e-05,-6.1035156e-05,-0.00018310547
0.010928572,-0.0122993,0.99384403,0.23904419,-0.21534729,9.801956,2.5161743,-16.05835,-39.268494,0.23945493,-0.21626128,9.801341,-7.3462725e-06,1.5571713e-05,-0.0010290146,7.6293945e-05,0.0,-0.00018310547
0.010939323,-0.012284149,0.993841,0.24047852,-0.21511841,9.804825,2.923584,-16.035461,-38.601685,0.23963809,-0.215936,9.801343,7.772446e-05,0.000629738,-0.0019664764,-0.00010681152,0.0,0.00019836426
0.01093637,-0.0122753875,0.9938416,0.23857117,-0.21606445,9.802673,2.7938843,-15.390015,-38.311768,0.23956077,-0.21577267,9.801349,0.00013418496,0.00071407855,0.0017213821,-0.00010681152,6.1035156e-05,6.1035156e-05
0.010922618,-0.012281189,0.9938453,0.24119568,-0.21559143,9.801712,3.1448364,-16.455078,-39.146423,0.23929808,-0.21592322,9.801352,-0.00055098534,0.00013543665,-0.0010766983,-4.5776367e-05,-0.00018310547,-0.00010681152
0.0109574925,-0.012287444,0.9938363,0.23808289,-0.21368408,9.8029175,4.0023804,-15.232849,-39.160156,0.23935184,-0.21499711,9.801371,-0.0015387237,0.0020669252,0.0005893707,-4.5776367e-05,-6.1035156e-05,-6.1035156e-05
0.010918517,-0.012282206,0.9938464,0.23713684,-0.21702576,9.803635,2.2979736,-15.565491,-39.08081,0.23921828,-0.2159542,9.801354,-0.00094504654,-0.0019843131,0.0010385513,7.6293945e-05,-6.1035156e-05,-0.00012207031
0.010894478,-0.012282896,0.9938527,0.24191284,-0.2163086,9.804352,2.4047852,-15.202332,-37.654114,0.23873928,-0.2160325,9.801363,-0.0014295429,-0.00022542477,0.00021743774,0.0001373291,-0.00012207031,-0.00012207031
0.010945333,-0.012288148,0.9938395,0.24023438,-0.21534729,9.804352,2.4398804,-16.220093,-38.087463,0.23976657,-0.21599796,9.801339,0.0018337965,-0.00049319863,0.0009365082,-0.00016784668,-6.1035156e-05,-0.00018310547
0.0109453825,-0.012278499,0.9938393,0.23832703,-0.21607971,9.801483,2.935791,-15.818787,-38.102722,0.23974739,-0.21580918,9.801344,-5.593896e-05,0.0009978265,0.00015068054,-0.00016784668,0.00012207031,-0.00030517578
0.010933022,-0.012287889,0.9938427,0.23928833,-0.21487427,9.8033905,2.8152466,-15.028381,-37.71057,0.23951998,-0.21602614,9.801344,-0.00028117,-8.910894e-06,-0.0016584396,-4.5776367e-05,-0.00012207031,7.6293945e-05
0.010923573,-0.012294018,0.9938453,0.23976135,-0.21511841,9.804108,3.2745361,-15.2786255,-39.36615,0.23934396,-0.21617147,9.801345,-0.00058953464,0.00013297796,-0.0002965927,-4.5776367e-05,-0.00012207031,0.0001373291
0.010931822,-0.0122674545,0.99384266,0.23976135,-0.21583557,9.803879,2.6504517,-15.113831,-37.87079,0.2394533,-0.21562983,9.801354,-0.00045785308,0.0010436028,0.00028514862,7.6293945e-05,-0.00018310547,0.00032043457
0.01096948,-0.012270196,0.9938329,0.23832703,-0.21296692,9.803635,3.0044556,-16.03241,-38.67798,0.24021156,-0.21558173,9.801337,0.0004518032,4.351139e-05,0.0008401871,-0.00010681152,-0.00012207031,-6.1035156e-05
0.010922111,-0.012220868,0.99384445,0.23880005,-0.21463013,9.8033905,3.35083,-15.498352,-38.583374,0.23916191,-0.21474516,9.801381,-0.0018589497,0.002078727,0.00039863586,0.0001373291,-6.1035156e-05,6.1035156e-05
0.0109361755,-0.012216055,0.9938407,0.23904419,-0.21440125,9.801727,2.140808,-15.80658,-37.38861,0.23943287,-0.2146131,9.801377,-0.00018928945,-0.00022105873,-0.0014820099,-0.00022888184,-0.00018310547,0.00038146973
0.010944676,-0.0122168055,0.9938385,0.23808289,-0.2141571,9.801956,2.7679443,-15.974426,-38.42926,0.2396043,-0.21460482,9.8013735,-0.000119671226,0.0007210523,-0.0009794235,-4.5776367e-05,-0.00018310547,0.0002593994
0.010931538,-0.012230319,0.9938421,0.23832703,-0.21343994,9.800995,1.8051147,-16.12091,-37.28943,0.23937003,-0.2149045,9.801373,-0.001325041,-0.00017987192,0.00046634674,-0.00010681152,-0.00022888184,0.0002593994
0.0109258285,-0.01219159,0.99384296,0.23928833,-0.21440125,9.804352,3.0395508,-15.377808,-37.79297,0.23917502,-0.21416269,9.801394,-0.00086945295,0.0019474179,-0.0012788773,-4.5776367e-05,6.1035156e-05,0.00019836426
0.010926724,-0.012222413,0.99384326,0.237854,-0.2172699,9.803879,2.3529053,-16.37268,-37.664795,0.23925732,-0.21476293,9.801378,-1.1578202e-05,-0.0012785792,0.0017023087,0.00019836426,-0.00012207031,0.00019836426
0.010888641,-0.012238397,0.9938535,0.23640442,-0.2141571,9.800995,2.5253296,-15.914917,-38.710022,0.23852974,-0.21517819,9.801388,-0.0016776323,-0.0013379157,-0.00013828278,1.5258789e-05,0.0,0.0002593994
0.010860868,-0.012208641,0.99386024,0.23832703,-0.21487427,9.803146,2.1331787,-15.800476,-38.293457,0.23791265,-0.2146712,9.801414,-0.0007952899,0.0010046959,-0.0016937256,-0.00010681152,0.0,6.1035156e-05
0.010859876,-0.0122304205,0.9938609,0.23713684,-0.21606445,9.8029175,3.010559,-15.882874,-38.723755,0.23793827,-0.21509972,9.801403,-0.0001231432,-0.00045657158,0.0015916824,-0.00010681152,6.1035156e-05,0.0001373291
0.010844197,-0.01224762,0.99386525,0.23713684,-0.21607971,9.801239,2.8457642,-16.04309,-38.372803,0.23766087,-0.21547823,9.801402,-0.00032748282,-0.00032801926,-0.0005350113,-4.5776367e-05,6.1035156e-05,0.0001373291
0.010834739,-0.012255992,0.9938679,0.23760986,-0.21343994,9.803635,1.9378662,-16.462708,-39.17694,0.23748928,-0.21566735,9.801401,-0.00013807416,-0.0003991723,-0.0014781952,1.5258789e-05,6.1035156e-05,0.00019836426
0.010841541,-0.0122055905,0.99386525,0.23904419,-0.2141571,9.801956,2.8686523,-15.608215,-37.982178,0.23752013,-0.21466361,9.801424,0.00031635165,0.002429694,0.0002975464,-0.00016784668,-6.1035156e-05,0.00024414062
0.0108616445,-0.012202666,0.99385995,0.237854,-0.21343994,9.804596,3.6132812,-15.045166,-38.35144,0.23791568,-0.21455228,9.801415,0.00038163364,0.00017783046,0.0009946823,0.0001373291,-6.1035156e-05,0.00019836426
0.01088002,-0.012192893,0.993855,0.23832703,-0.21247864,9.802444,3.2821655,-15.589905,-36.636353,0.23826246,-0.21431169,9.801413,0.0004976988,0.00019045174,0.00082588196,0.0001373291,-0.00022888184,0.00019836426
0.01088398,-0.012161556,0.99385345,0.23857117,-0.21440125,9.802429,2.3101807,-15.499878,-37.934875,0.23827611,-0.21368828,9.801425,-0.0006929934,0.0009894818,-0.001042366,-0.00010681152,0.0,1.5258789e-05
0.010886885,-0.012172242,0.99385285,0.23617554,-0.2131958,9.803864,2.330017,-15.214539,-36.972046,0.23835649,-0.2138894,9.801419,0.00017887354,-6.6906214e-06,0.0007429123,-0.00010681152,-0.00012207031,0.00018310547
0.010868902,-0.012172333,0.99385756,0.23976135,-0.21200562,9.804352,2.4856567,-15.12146,-38.243103,0.23799738,-0.21393964,9.801427,-0.0013959408,0.00054205954,0.0009841919,-0.00010681152,-0.00018310547,-6.1035156e-05
0.010897283,-0.012133097,0.99384946,0.23736572,-0.21559143,9.801956,1.7288208,-15.82489,-38.583374,0.23848245,-0.213096,9.801434,0.00050881505,0.001854822,0.00049877167,1.5258789e-05,-0.00018310547,0.0001373291
0.010896196,-0.0121872155,0.99385065,0.2400055,-0.21702576,9.801956,2.156067,-15.365601,-37.828064,0.23857377,-0.21415706,9.801408,-0.00074613094,-0.002127871,-0.002213478,-4.5776367e-05,-0.00022888184,0.00012207031
0.010918735,-0.01225415,0.9938459,0.23857117,-0.21487427,9.8022,3.1738281,-15.950012,-38.290405,0.23916398,-0.21540502,9.801367,0.00032252073,-0.0023102611,0.00029277802,-0.00016784668,-0.00012207031,0.0
0.010909185,-0.01224186,0.99384815,0.2400055,-0.21368408,9.802444,3.1402588,-16.680908,-38.438416,0.23894747,-0.21519049,9.801376,-0.0006569475,0.0010662526,0.0005168915,-4.5776367e-05,0.0,-0.00012207031
0.010948791,-0.012216083,0.99383736,0.24143982,-0.21534729,9.8033905,2.3712158,-15.856934,-38.08899,0.23968503,-0.21457958,9.801373,0.0012333095,0.0011693537,-0.00028514862,1.5258789e-05,-0.00012207031,0.00038146973
0.010949854,-0.01225815,0.9938378,0.23832703,-0.21559143,9.806274,2.1255493,-16.098022,-37.599182,0.23979422,-0.21539924,9.8013525,-0.00152798,-0.0008547753,0.001950264,1.5258789e-05,-0.00022888184,0.00032043457
0.010901061,-0.012266196,0.9938507,0.24095154,-0.2182312,9.8022,0.85601807,-15.594482,-37.96997,0.23883596,-0.21568821,9.801368,-0.0019744486,-0.00034807622,-0.0023708344,-0.00016784668,-0.00012207031,1.5258789e-05
0.010937595,-0.012320976,0.99384207,0.23857117,-0.2163086,9.801727,1.2451172,-15.858459,-38.269043,0.23968053,-0.21666075,9.801327,0.0012328029,-0.0015359074,0.0005016327,-0.00022888184,-0.00012207031,0.0002593994
0.010937173,-0.012339252,0.9938425,0.23928833,-0.21534729,9.802673,2.279663,-15.927124,-39.38141,0.23971026,-0.21701922,9.801317,-0.00043287873,0.00072054565,-0.002204895,-4.5776367e-05,-6.1035156e-05,0.0001373291
0.010947245,-0.012306546,0.99383926,0.23808289,-0.21534729,9.800995,1.8890381,-15.737915,-38.87329,0.23984323,-0.21635255,9.80133,-0.000578627,0.0014996827,0.0010919571,-0.00016784668,-0.00022888184,0.00038146973
0.010911476,-0.012288256,0.9938483,0.2400055,-0.2141571,9.801483,2.8198242,-16.629028,-38.34076,0.23909017,-0.21609147,9.801353,-0.0017367601,0.0009842068,-0.00086402893,-4.5776367e-05,-0.00012207031,0.00024414062
0.010935641,-0.012269577,0.9938417,0.23808289,-0.21702576,9.801956,3.17688,-15.800476,-38.63678,0.23953405,-0.21566103,9.801352,0.00045254827,0.0010479242,0.00054836273,-0.00010681152,-6.1035156e-05,0.00032043457
0.010932618,-0.012316385,0.99384326,0.24072266,-0.2163086,9.804108,1.5899658,-15.400696,-38.113403,0.23957145,-0.21658441,9.801331,-0.000785321,-0.0013900548,-0.00041770935,-4.5776367e-05,-0.000289917,0.0002593994
0.010960343,-0.012301798,0.9938358,0.23857117,-0.21749878,9.8022,2.3651123,-16.078186,-38.208008,0.24009508,-0.21622434,9.801327,0.000603348,0.00088360906,0.0008459091,-4.5776367e-05,0.0,-6.1035156e-05
0.010927688,-0.012321509,0.9938446,0.23928833,-0.21440125,9.800293,3.0853271,-16.098022,-38.5437,0.23948364,-0.21669792,9.801331,-0.0014335364,-0.0010153353,0.00071811676,7.6293945e-05,-0.00012207031,0.00032043457
0.010935857,-0.012275008,0.99384177,0.23617554,-0.21368408,9.803879,2.6474,-15.263367,-37.45117,0.23954971,-0.21576662,9.801349,-0.0007663518,0.0016245246,-0.0012655258,1.5258789e-05,-0.0004119873,0.00019836426
0.010905519,-0.012238054,0.99384904,0.23880005,-0.21487427,9.8029175,3.187561,-15.658569,-38.07831,0.23886628,-0.21512596,9.80138,-0.0022366345,0.0014588982,0.00027370453,-0.00010681152,6.1035156e-05,6.1035156e-05
0.010904783,-0.012224201,0.99384904,0.23904419,-0.21176147,9.801712,1.298523,-16.28418,-39.489746,0.23882265,-0.2148571,9.801388,-4.9456954e-05,0.00072415173,0.0006723404,-4.5776367e-05,-6.1035156e-05,0.00038146973
0.010908035,-0.012183292,0.9938475,0.23880005,-0.21391296,9.803635,2.909851,-16.403198,-38.220215,0.23880215,-0.21404845,9.801406,-0.00025492907,0.0020643026,-0.00018787384,1.5258789e-05,-0.00022888184,0.00032043457
0.010937032,-0.012187901,0.99384,0.23976135,-0.21272278,9.805069,3.0807495,-16.09497,-38.99536,0.23939113,-0.21406029,9.801391,9.562075e-05,-6.9603324e-05,0.0005245209,-0.00010681152,-6.1035156e-05,6.1035156e-05
0.010931253,-0.012174694,0.9938413,0.23880005,-0.21583557,9.7986145,2.6992798,-15.914917,-37.283325,0.23924807,-0.21381766,9.801399,-0.00024603307,0.0006595403,0.0009813309,-4.5776367e-05,-0.00022888184,0.00038146973
0.010945702,-0.012219108,0.99383825,0.24047852,-0.2141571,9.8033905,2.4291992,-16.514587,-37.61902,0.23962963,-0.21464707,9.801373,-0.00013196468,-0.0011709929,-0.0018787384,1.5258789e-05,-0.00035095215,0.0005493164
0.010982373,-0.012206968,0.9938284,0.24047852,-0.21463013,9.804825,1.2741089,-15.4296875,-37.04834,0.24033692,-0.2143106,9.801362,0.00011590123,0.0006494224,0.0005083084,-4.5776367e-05,-0.00012207031,0.00038146973
0.010992451,-0.012216266,0.993826,0.24023438,-0.21534729,9.803635,3.2730103,-15.582275,-37.76703,0.24055775,-0.21446516,9.801353,-0.00036886334,-0.00036855042,0.0016174316,7.6293945e-05,-0.00035095215,0.00030517578
0.010999488,-0.012227211,0.9938243,0.23951721,-0.2172699,9.803879,2.708435,-15.467834,-38.475037,0.24072124,-0.21466011,9.801345,-0.0005300641,-0.0004197806,-0.00018596649,-4.5776367e-05,-6.1035156e-05,0.0002593994
0.010982029,-0.012263547,0.9938295,0.24023438,-0.21487427,9.801712,3.590393,-15.553284,-38.531494,0.24044842,-0.21541777,9.801334,-0.0007405877,-0.0013311356,0.0008354187,1.5258789e-05,-0.00018310547,0.0001373291
0.01098836,-0.01227087,0.99382794,0.23951721,-0.21511841,9.802444,3.0288696,-15.6692505,-37.850952,0.24059026,-0.21554385,9.801329,-0.000619635,-1.6346574e-05,-0.0015096664,-0.00016784668,-0.00022888184,0.00038146973
0.010982893,-0.01227765,0.9938295,0.23832703,-0.2141571,9.8033905,3.6727905,-15.551758,-38.305664,0.2404952,-0.2156912,9.801328,-0.0010198653,0.0001373142,0.0006008148,1.5258789e-05,-6.1035156e-05,0.00038146973
0.010941991,-0.012232608,0.99383944,0.2368927,-0.21583557,9.804352,3.060913,-16.763306,-37.695312,0.23958367,-0.21492104,9.801367,-0.0020174235,0.0015202165,0.00023937225,1.5258789e-05,-0.00018310547,0.00044250488
0.0109190745,-0.012239582,0.9938455,0.23832703,-0.21463013,9.803879,1.6616821,-15.539551,-38.220215,0.23914035,-0.21511926,9.8013735,-0.0013316572,-0.0009044111,0.00015926361,0.0001373291,-6.1035156e-05,0.00019836426
0.010896895,-0.012226667,0.9938511,0.2400055,-0.21583557,9.8033905,2.4612427,-15.707397,-38.21106,0.23867016,-0.21492657,9.801389,-0.0011182129,0.00010444224,0.0010728836,1.5258789e-05,-6.1035156e-05,0.00038146973
0.010940302,-0.012243397,0.99384004,0.23808289,-0.21391296,9.802673,2.3422241,-14.920044,-37.139893,0.2395725,-0.21513656,9.801363,0.001104325,-0.0001848489,-0.0010375977,1.5258789e-05,-0.00022888184,0.0002593994
0.010924199,-0.0122231245,0.9938439,0.24143982,-0.21559143,9.8033905,2.9083252,-16.020203,-40.634155,0.23920837,-0.21478367,9.80138,-0.0009319037,0.00042784214,0.0004272461,1.5258789e-05,-0.00022888184,0.00018310547
0.010972972,-0.012241923,0.99383146,0.23857117,-0.21272278,9.801239,2.1774292,-16.368103,-39.61792,0.24022223,-0.2150195,9.80135,0.0009226948,-0.0002823621,-3.0517578e-05,-4.5776367e-05,-0.00018310547,0.0005645752
0.010959134,-0.012209176,0.99383456,0.23808289,-0.2172699,9.8029175,3.4881592,-15.922546,-39.128113,0.23987725,-0.2144166,9.801372,-0.0015765429,0.0014731884,-0.0019245148,-4.5776367e-05,-0.0004119873,0.00019836426
0.010955959,-0.01224014,0.9938359,0.23880005,-0.21440125,9.802444,3.5934448,-15.559387,-37.927246,0.23987855,-0.21503061,9.801358,-0.0013450533,-0.0015020221,-0.00031757355,7.6293945e-05,-0.00018310547,0.00019836426
0.010937594,-0.012229292,0.9938405,0.23736572,-0.2141571,9.803635,4.0039062,-15.386963,-37.982178,0.2394889,-0.21486808,9.801371,-0.0011987537,0.00049993396,0.0012273788,-0.00010681152,-6.1035156e-05,0.0002593994
0.010907316,-0.01224007,0.9938486,0.23736572,-0.21606445,9.801956,3.8208008,-15.834045,-38.14087,0.23890638,-0.21516053,9.801378,-0.001344949,-0.00015838444,0.0009860992,-0.00010681152,6.1035156e-05,0.00038146973
0.010856774,-0.012213951,0.99386144,0.24072266,-0.21511841,9.803635,2.746582,-16.334534,-39.030457,0.23784192,-0.21478605,9.801413,-0.000979498,0.00090043247,0.0005016327,1.5258789e-05,-0.00012207031,0.0002593994
0.010912507,-0.012237398,0.99384725,0.23857117,-0.21559143,9.803635,2.6168823,-15.843201,-37.94403,0.23900454,-0.21509428,9.801377,0.0016694218,-0.00045333803,0.0014505386,-0.00010681152,-0.00022888184,0.00019836426
0.01091827,-0.012249002,0.99384594,0.23857117,-0.2141571,9.801956,2.4749756,-15.415955,-37.776184,0.23914395,-0.21530564,9.80137,-0.0003966987,5.8859587e-06,0.0003452301,-0.00010681152,-0.00012207031,0.0002593994
0.0109128915,-0.012236363,0.99384713,0.23832703,-0.21774292,9.800995,2.6229858,-15.696716,-38.139343,0.23901008,-0.21507303,9.801378,-0.0011839122,0.0009409785,-0.0019979477,-4.5776367e-05,-0.00012207031,0.0002593994
0.010916013,-0.012281577,0.993847,0.23928833,-0.21534729,9.801712,2.9418945,-15.821838,-37.727356,0.2391669,-0.21594863,9.801354,9.7602606e-05,-0.0017727762,-0.000374794,0.0001373291,-0.00035095215,0.0001373291
0.0109294,-0.012272215,0.9938434,0.23808289,-0.21678162,9.802673,3.2363892,-16.384888,-37.928772,0.23941487,-0.21572948,9.801353,-0.0008623153,0.00015480816,-0.00040340424,-0.00010681152,-0.00012207031,0.00032043457
0.010906953,-0.0123026,0.99384975,0.23783875,-0.2182312,9.801239,3.1677246,-16.17279,-37.8067,0.23902975,-0.21638414,9.801349,-0.00096799433,-0.00086662173,0.00021457672,-0.00010681152,-6.1035156e-05,0.0002593994
0.01090076,-0.012320151,0.99385166,0.23880005,-0.2163086,9.803879,2.7496338,-14.971924,-36.187744,0.23894264,-0.216744,9.801343,-0.0008728951,-0.00026984513,-0.0006418228,-4.5776367e-05,-0.00035095215,0.00019836426
0.010907187,-0.0123238405,0.99385005,0.23976135,-0.21678162,9.801239,0.7324219,-15.412903,-34.38263,0.23907878,-0.21679881,9.801338,-0.0003118962,4.7296286e-05,0.0016536713,-4.5776367e-05,0.00012207031,0.00032043457
0.010905105,-0.01233536,0.99385077,0.2368927,-0.2172699,9.8033905,3.1204224,-15.141296,-39.257812,0.2390612,-0.21702966,9.801333,0.00020766258,-0.00022257864,-0.0011358261,1.5258789e-05,-6.1035156e-05,0.0001373291
0.0108988825,-0.012332798,0.9938524,0.23760986,-0.2172699,9.8022,2.0523071,-15.95459,-37.64038,0.23893149,-0.21699634,9.801337,-0.0011069328,-2.6673079e-06,0.0008459091,-4.5776367e-05,-0.000289917,0.00032043457
0.010879009,-0.012346389,0.9938578,0.23904419,-0.21583557,9.799332,3.112793,-15.592957,-37.460327,0.23856266,-0.21731564,9.801339,-0.0014443696,-0.00041036308,-0.00086307526,-0.00010681152,-0.00012207031,0.00019836426
0.010898187,-0.012319271,0.9938523,0.23808289,-0.21487427,9.801712,2.9800415,-14.717102,-38.86261,0.23888935,-0.21673374,9.801344,0.00039730966,0.0016168505,-0.0013637543,-4.5776367e-05,0.0,0.00019836426
0.010875495,-0.012287492,0.99385774,0.23880005,-0.21391296,9.804108,3.2852173,-15.364075,-37.345886,0.23836951,-0.21617353,9.801369,-0.0010112077,0.0013059974,0.0005264282,0.0001373291,-0.00012207031,0.00019836426
0.010905513,-0.0122357905,0.99384904,0.23928833,-0.21440125,9.803879,2.218628,-15.875244,-37.179565,0.2388614,-0.21508169,9.80138,0.00015974045,0.0014183521,0.0013084412,1.5258789e-05,-0.000289917,-6.1035156e-05
0.010931206,-0.012229992,0.99384224,0.23713684,-0.21440125,9.799805,3.1021118,-15.809631,-37.882996,0.23936273,-0.21489903,9.8013735,0.00013801455,0.0005262643,0.00071811676,-0.00016784668,-0.00012207031,0.0001373291
0.010914839,-0.012246709,0.9938468,0.24095154,-0.21583557,9.800766,2.293396,-15.864563,-37.934875,0.2390706,-0.21527004,9.801372,-0.0014805049,-5.9455633e-05,-0.0009431839,-4.5776367e-05,-0.00018310547,0.0002593994
0.01093864,-0.012243593,0.9938405,0.23857117,-0.21487427,9.8022,2.3864746,-15.7196045,-37.153625,0.23953967,-0.21514487,9.801363,0.0006941259,0.00050000846,-0.0015821457,-0.00016784668,-0.00012207031,0.00038146973
0.010942779,-0.012271239,0.99383986,0.23904419,-0.21559143,9.8022,2.6855469,-16.055298,-38.21869,0.23968016,-0.21567425,9.801348,-0.00016646087,-0.00040230155,0.00023555756,-4.5776367e-05,-6.1035156e-05,0.00019836426
0.0109171765,-0.012252853,0.99384624,0.23857117,-0.2172699,9.802673,2.7633667,-14.453125,-37.28943,0.23913015,-0.2153839,9.801369,-0.00105986,0.0007651299,0.00078868866,-4.5776367e-05,-6.1035156e-05,0.00019836426
0.010923319,-0.012284668,0.99384516,0.24047852,-0.21511841,9.8033905,2.204895,-16.090393,-37.75177,0.23931934,-0.21598937,9.80135,-5.2407384e-05,-0.0012612194,0.0006914139,-4.5776367e-05,-0.00012207031,0.00019836426
0.010942489,-0.012274666,0.99384,0.23880005,-0.21487427,9.805542,2.697754,-15.760803,-38.459778,0.23968156,-0.21574204,9.801347,0.0005313158,0.0006567091,0.0012578964,-4.5776367e-05,6.1035156e-05,6.1035156e-05
0.0109353345,-0.012264919,0.9938417,0.2400055,-0.21606445,9.804825,3.4088135,-16.079712,-38.25226,0.23951821,-0.21557078,9.801354,-5.172193e-05,0.00074218214,0.00116539,1.5258789e-05,0.0,0.00019836426
0.010916416,-0.012272353,0.9938468,0.23713684,-0.21534729,9.80722,2.8381348,-16.26587,-38.04016,0.23915568,-0.2157672,9.801359,-0.0006714761,-0.00047668815,0.0017328262,-4.5776367e-05,0.0,6.1035156e-05
0.010908148,-0.012269193,0.9938489,0.23664856,-0.21511841,9.805313,2.3788452,-15.859985,-37.635803,0.23898387,-0.21572772,9.801364,-0.0009942353,0.00022044778,0.0018033981,-0.00010681152,-0.000289917,0.00032043457
0.010877542,-0.012249034,0.99385655,0.237854,-0.21463013,9.804352,2.2872925,-15.858459,-38.764954,0.23833016,-0.21541607,9.801387,-0.0020092875,0.0006173253,-0.00071525574,7.6293945e-05,-0.00018310547,0.0002593994
0.010888253,-0.012239134,0.9938536,0.23808289,-0.21463013,9.804596,2.5054932,-16.656494,-37.426758,0.23852353,-0.21519363,9.801387,-0.00028593838,0.00040005147,0.00049495697,7.6293945e-05,-6.1035156e-05,0.00012207031
0.010880324,-0.012235142,0.9938556,0.23880005,-0.21559143,9.805313,1.739502,-15.682983,-37.875366,0.23835675,-0.21513696,9.801393,-0.0005804002,8.864701e-05,-0.0009508133,-0.00010681152,-6.1035156e-05,0.00038146973
0.010871418,-0.0122189475,0.9938577,0.23808289,-0.21200562,9.803635,2.2903442,-16.0141,-37.51068,0.23814496,-0.21484432,9.801404,-0.00037790835,0.0010097772,0.00080394745,7.6293945e-05,6.1035156e-05,0.0002593994
0.010896644,-0.012185094,0.9938505,0.23951721,-0.21343994,9.802429,2.6367188,-15.557861,-37.130737,0.23857832,-0.2141144,9.80141,0.00039185584,0.0012138933,-0.0010595322,-0.00010681152,-0.000289917,0.00038146973
0.0109237945,-0.01216387,0.9938431,0.23832703,-0.21295166,9.801239,3.0654907,-14.793396,-37.9776,0.23907642,-0.21362616,9.801408,0.00014257431,0.0014383495,-0.0003709793,-0.00016784668,-0.00012207031,0.00032043457
0.010921496,-0.012184801,0.99384403,0.23880005,-0.21487427,9.804596,2.9342651,-15.893555,-38.041687,0.23907423,-0.2140416,9.801398,-0.0005323887,-8.9243054e-05,-0.0032701492,-4.5776367e-05,-0.00018310547,0.00019836426
0.010919909,-0.01221454,0.9938449,0.23713684,-0.21487427,9.8029175,3.262329,-15.724182,-38.323975,0.23910467,-0.21462737,9.801385,-0.00036156178,4.836917e-05,0.0011053085,-4.5776367e-05,-0.00022888184,0.00038146973
0.010892764,-0.012226667,0.9938522,0.2368927,-0.21391296,9.804108,2.8182983,-15.032959,-37.182617,0.2385876,-0.21493772,9.801391,-0.0017352551,-0.00037321448,-0.0013208389,-0.00010681152,-0.00012207031,0.00050354004
0.010872104,-0.012209026,0.9938573,0.24023438,-0.21536255,9.802429,1.8844604,-16.036987,-37.878418,0.23813796,-0.21464846,9.801408,-0.0012974292,0.001255542,0.0010404587,-0.00010681152,-6.1035156e-05,0.00044250488
0.010899007,-0.012240227,0.9938508,0.23904419,-0.21583557,9.804108,2.281189,-16.004944,-38.793945,0.23874071,-0.21518601,9.801382,0.0012209713,-0.0010830909,-0.00075149536,1.5258789e-05,-6.1035156e-05,0.00032043457
0.010912854,-0.01225483,0.9938474,0.2400055,-0.21511841,9.8022,2.2369385,-15.359497,-37.904358,0.2390479,-0.2154342,9.801369,0.00018295646,0.0001386851,0.0011148453,-0.00022888184,-0.00012207031,6.1035156e-05
0.010928809,-0.012250762,0.9938432,0.23857117,-0.21343994,9.802673,2.684021,-16.204834,-37.719727,0.23935822,-0.2153116,9.801364,0.00012168288,0.0004708916,-0.0016527176,1.5258789e-05,-0.000289917,0.00032043457
0.01093556,-0.012227014,0.99384105,0.23951721,-0.2141571,9.801727,3.1600952,-16.317749,-37.835693,0.23944348,-0.21482903,9.801373,-0.00068055093,0.0011782497,2.5749207e-05,-0.00010681152,-0.00012207031,6.1035156e-05
0.010955329,-0.012225086,0.9938358,0.2349701,-0.21200562,9.802673,2.3880005,-15.415955,-38.528442,0.23983446,-0.21473794,9.801365,-0.00010459125,0.00060902536,-0.00045108795,-4.5776367e-05,-0.00018310547,0.0002593994
0.010876617,-0.012154275,0.99385524,0.237854,-0.21343994,9.801712,2.5375366,-15.696716,-38.742065,0.2381138,-0.21356577,9.801432,-0.00364843,0.0025498867,0.00018024445,-4.5776367e-05,-6.1035156e-05,0.0001373291
0.010886904,-0.012169617,0.9938528,0.23832703,-0.2141571,9.800049,3.2318115,-16.38031,-38.456726,0.23835139,-0.21383806,9.801421,-3.2559037e-05,-0.00078471005,-0.001953125,0.00019836426,-0.00022888184,0.00050354004
0.010902828,-0.012148918,0.9938483,0.23857117,-0.21391296,9.802444,1.7379761,-15.756226,-37.66327,0.23862629,-0.21339038,9.801424,-0.00030124187,0.00042521954,-0.00049495697,-0.00010681152,0.0,0.00019836426
0.010883785,-0.012198631,0.9938541,0.23928833,-0.21583557,9.804825,3.5354614,-15.054321,-37.820435,0.23834966,-0.21441375,9.801409,-0.00028051436,-0.001409471,0.0009441376,-0.00010681152,0.0,0.00019836426
0.010900498,-0.012210848,0.99384993,0.23904419,-0.21440125,9.8022,2.5146484,-16.131592,-38.980103,0.23870912,-0.21460755,9.801395,0.0007747859,7.3611736e-06,0.0015888214,-4.5776367e-05,0.0,0.00050354004
0.010901019,-0.012214889,0.9938499,0.23809814,-0.21511841,9.802673,3.1082153,-15.739441,-37.641907,0.23872796,-0.21468514,9.801393,4.914403e-05,7.5638294e-05,-0.00085163116,1.5258789e-05,-0.00012207031,0.00019836426
0.010911174,-0.012230129,0.9938474,0.24047852,-0.2163086,9.8022,3.0059814,-16.105652,-38.316345,0.23896271,-0.21495575,9.801381,-0.00018493831,-0.0006019175,0.0011873245,-4.5776367e-05,-0.00022888184,0.00032043457
0.0109437015,-0.012289653,0.9938399,0.23951721,-0.21440125,9.800278,2.2369385,-15.359497,-37.82959,0.23973711,-0.2160318,9.801339,1.4603138e-06,-0.0014617145,-0.0012598038,-4.5776367e-05,0.0,0.00038146973
0.01094308,-0.0122531755,0.9938395,0.23904419,-0.21678162,9.801483,2.6489258,-15.264893,-37.223816,0.23964846,-0.21532026,9.801357,-0.00014913082,0.0016522408,-0.0003604889,-0.00010681152,-6.1035156e-05,0.0004272461
0.010949827,-0.012282993,0.9938382,0.23808289,-0.21343994,9.802673,2.6641846,-14.744568,-38.17444,0.23984557,-0.21588503,9.801339,-0.00032790005,-0.0008970052,-0.0015153885,0.0001373291,-0.00018310547,0.0
0.0109243,-0.012236491,0.99384415,0.24047852,-0.21487427,9.801727,2.1469116,-15.660095,-37.35962,0.23923829,-0.21504472,9.801373,-0.0014018714,0.0011322945,0.0015411377,1.5258789e-05,-0.00012207031,0.00044250488
0.010972084,-0.012222999,0.9938314,0.23904419,-0.2131958,9.804825,2.5558472,-15.333557,-38.441467,0.24016489,-0.21465187,9.801359,0.0010100901,0.0007574111,0.0002412796,-4.5776367e-05,-0.00018310547,0.00038146973
0.010961181,-0.012203545,0.99383396,0.24119568,-0.21511841,9.803162,2.2094727,-15.864563,-38.461304,0.23990633,-0.21430096,9.801373,-0.001143977,0.0008946955,0.0014390945,0.0001373291,-0.00012207031,0.00062561035
0.010987663,-0.012220392,0.9938273,0.23928833,-0.21606445,9.803879,3.451538,-15.054321,-38.42163,0.2404707,-0.21455878,9.801353,0.00044848025,-0.0007596463,-0.0004711151,-0.00010681152,-0.000289917,0.00018310547
0.010963329,-0.012249181,0.99383414,0.23736572,-0.2182312,9.802429,0.8255005,-16.021729,-39.567566,0.24004471,-0.21518745,9.80135,-0.0015155673,-0.0008393377,0.0008134842,-0.00010681152,-0.00012207031,0.00050354004
0.010919292,-0.012306236,0.9938466,0.23880005,-0.21749878,9.804108,3.5446167,-16.729736,-37.861633,0.23928393,-0.21642192,9.801341,-0.0017149001,-0.0022453964,-9.536743e-05,1.5258789e-05,0.0,0.0002593994
0.010916559,-0.012318759,0.9938475,0.23951721,-0.21391296,9.804352,2.7954102,-15.391541,-38.16223,0.23925547,-0.21667416,9.801336,-1.5079975e-05,-0.00030817091,0.0005788803,-4.5776367e-05,6.1035156e-05,0.00019836426
0.010915224,-0.012282026,0.99384725,0.23808289,-0.21607971,9.8029175,2.3849487,-15.715027,-37.68158,0.23915209,-0.21595956,9.801355,-0.00016587973,0.0016106814,0.0008649826,-4.5776367e-05,-0.00012207031,0.00018310547
0.010904304,-0.012284998,0.9938502,0.23857117,-0.21343994,9.802673,2.7999878,-15.319824,-37.994385,0.23894005,-0.21604712,9.801358,-0.0009082705,1.3619661e-05,-0.00053691864,-4.5776367e-05,-0.00012207031,0.00012207031
0.010914358,-0.012232378,0.99384665,0.23880005,-0.21511841,9.802429,2.230835,-15.4296875,-37.99591,0.23903106,-0.21499114,9.801379,-0.00027911365,0.0023116022,-0.00018978119,7.6293945e-05,-0.00012207031,0.0001373291
0.010926405,-0.012227023,0.99384344,0.24143982,-0.21559143,9.801727,2.4978638,-15.057373,-37.0224,0.23926057,-0.21485393,9.801376,0.00021770597,-0.00045838952,-0.0007715225,7.6293945e-05,-0.00012207031,0.00038146973
0.01094456,-0.01224199,0.9938389,0.237854,-0.2131958,9.8029175,3.09906,-15.885925,-37.594604,0.23965463,-0.21509755,9.801361,8.34465e-05,-0.0007171333,-0.0013036728,1.5258789e-05,-6.1035156e-05,0.00038146973
0.010935656,-0.0122150425,0.9938408,0.23928833,-0.21534729,9.8029175,2.632141,-15.400696,-38.458252,0.23942038,-0.2145947,9.801378,-0.00041173398,0.0014307648,0.0010461807,-4.5776367e-05,-6.1035156e-05,0.00044250488
0.010942091,-0.012232323,0.9938394,0.24095154,-0.2141571,9.801727,3.2470703,-15.937805,-39.12201,0.23958509,-0.2149152,9.801367,-0.00010047853,-0.0006469935,-0.00025558472,-4.5776367e-05,-0.00012207031,0.00050354004
0.010970922,-0.012206619,0.99383146,0.23904419,-0.21343994,9.802429,2.6000977,-16.207886,-38.168335,0.24010739,-0.21433471,9.801367,0.00059072673,0.0016338527,-0.0006418228,1.5258789e-05,0.0,0.00032043457
0.010940657,-0.012202467,0.99383926,0.23928833,-0.21487427,9.8022,3.0822754,-16.020203,-39.283752,0.23949401,-0.21433531,9.801382,-0.00095143914,0.00020378828,0.00036525726,-0.00016784668,-0.00022888184,0.00050354004
0.010956811,-0.012221733,0.9938354,0.24023438,-0.21487427,9.801239,2.6947021,-15.759277,-38.685608,0.23985706,-0.21466838,9.801366,-0.0003618151,-0.00043039024,-0.0005502701,1.5258789e-05,-0.00018310547,0.00038146973
0.010969036,-0.012226302,0.99383223,0.23617554,-0.21463013,9.803879,1.6616821,-15.539551,-38.220215,0.24011092,-0.2147247,9.801359,-0.00036516786,-0.00013561547,-0.0005121231,-4.5776367e-05,-0.00018310547,0.00012207031
0.010927916,-0.012229595,0.9938431,0.24168396,-0.21583557,9.804352,2.4490356,-15.925598,-38.25531,0.23929612,-0.21490015,9.801374,-0.002439484,5.827844e-05,0.0017442703,-0.00010681152,-0.00018310547,0.0005493164
0.010951917,-0.012247052,0.99383706,0.23664856,-0.2131958,9.804596,3.0944824,-15.957642,-37.835693,0.23981221,-0.21517664,9.801355,0.00086171925,-0.00012694299,0.0010051727,1.5258789e-05,-0.00022888184,0.00032043457
0.010931715,-0.0122170495,0.9938419,0.23568726,-0.21679688,9.8022,2.407837,-15.054321,-38.076782,0.23934585,-0.21464458,9.801379,-0.0022649914,0.0010107011,0.00068092346,-4.5776367e-05,-0.00018310547,0.0
0.0108736,-0.0122241415,0.9938572,0.23857117,-0.21343994,9.804352,2.871704,-15.534973,-37.96692,0.23819941,-0.21493998,9.8014,8.3208084e-05,0.00082294643,0.0008802414,0.0001373291,0.0,0.0002593994
0.010870451,-0.012188797,0.99385744,0.237854,-0.21463013,9.800766,3.199768,-15.365601,-38.02185,0.2380627,-0.21425737,9.801418,-2.5257468e-05,0.00061418116,0.00010108948,7.6293945e-05,0.0,-6.1035156e-05
0.010881649,-0.01220007,0.9938547,0.2400055,-0.2141571,9.801483,2.6687622,-16.419983,-38.29193,0.23830996,-0.2144476,9.801408,0.00023414195,-0.00015816092,-0.0015268326,1.5258789e-05,-0.00022888184,0.00044250488
0.01092877,-0.012188924,0.9938422,0.23832703,-0.21296692,9.800278,3.4240723,-15.711975,-38.479614,0.23922819,-0.2141026,9.8013935,0.0009833127,0.00021009147,-0.00037384033,-4.5776367e-05,-0.00018310547,0.00032043457
0.010914542,-0.012175012,0.99384564,0.23928833,-0.21391296,9.8033905,3.4118652,-16.00647,-38.238525,0.23891486,-0.213869,9.801407,-0.0013204813,0.00068706274,-0.0005578995,7.6293945e-05,-0.00012207031,0.00032043457
0.0109356055,-0.012177979,0.9938402,0.23736572,-0.21702576,9.800766,2.178955,-14.701843,-38.449097,0.2393419,-0.21387015,9.801396,0.00040450692,0.00019943714,-5.1498413e-05,-4.5776367e-05,-6.1035156e-05,0.0001373291
0.010904459,-0.012239037,0.99384934,0.23904419,-0.21487427,9.802429,2.8839111,-15.318298,-37.69684,0.23884715,-0.21514805,9.80138,-0.0010001808,-0.0023596436,-0.00067424774,-0.00010681152,0.0,0.0002593994
0.010905453,-0.012209075,0.9938486,0.23880005,-0.21247864,9.802673,2.1865845,-16.377258,-38.487244,0.23880441,-0.21455951,9.8013935,-0.0007402748,0.00089228153,0.000998497,0.00038146973,-0.000289917,0.0002593994
0.010923645,-0.012175469,0.9938433,0.23664856,-0.21559143,9.802429,1.9683838,-15.808105,-38.66577,0.23909767,-0.21385334,9.801402,0.00016589463,0.00067968667,0.000500679,-0.00010681152,6.1035156e-05,0.0004272461
0.010883336,-0.012202379,0.9938543,0.23760986,-0.2141571,9.800766,2.206421,-15.939331,-38.323975,0.23834851,-0.21448824,9.801407,-0.0017245412,-0.0010810643,1.1444092e-05,1.5258789e-05,-0.00012207031,6.1035156e-05
0.010880432,-0.012187933,0.9938548,0.23568726,-0.21487427,9.801956,2.3010254,-15.641785,-38.267517,0.23826031,-0.2142136,9.8014145,-0.00041727722,0.00053934753,-0.0010995865,1.5258789e-05,-0.00018310547,0.00032043457
0.010838787,-0.012209249,0.993866,0.23760986,-0.21536255,9.802673,3.1829834,-15.881348,-37.44507,0.2374727,-0.21474253,9.801422,-0.0022660047,-0.00108625,-0.00024986267,1.5258789e-05,-0.00012207031,0.00032043457
0.01084482,-0.012203745,0.99386436,0.23641968,-0.2163086,9.804352,2.2216797,-15.57312,-38.476562,0.23758176,-0.21461867,9.801422,-0.0004541576,-1.835823e-05,0.00015258789,1.5258789e-05,-0.00022888184,0.00032043457
0.01085465,-0.012248213,0.9938625,0.23857117,-0.21534729,9.800049,2.2216797,-15.724182,-37.677002,0.23787099,-0.21546169,9.801397,-5.108118e-05,-0.0012890399,0.0020227432,1.5258789e-05,-0.00022888184,0.00024414062
0.010874389,-0.012244793,0.9938573,0.237854,-0.21534729,9.804596,1.8844604,-15.962219,-38.087463,0.23825829,-0.21534164,9.801391,5.300343e-05,0.0002374649,-0.0015153885,7.6293945e-05,-6.1035156e-05,0.00018310547
0.010867641,-0.012230027,0.9938588,0.23880005,-0.21368408,9.803879,2.8457642,-16.041565,-38.523865,0.23809263,-0.2150711,9.8014,-0.0009879023,0.00046996772,0.0013856888,-0.00010681152,-0.00018310547,0.00032043457
0.010885511,-0.012231796,0.9938542,0.23976135,-0.21606445,9.799805,2.0248413,-16.386414,-38.710022,0.23845339,-0.21505755,9.801392,0.00030502677,0.00022083521,0.0007762909,-0.00010681152,-0.00018310547,0.00038146973
0.010917627,-0.0122496225,0.9938461,0.23760986,-0.2172699,9.802444,2.1697998,-15.30304,-36.38153,0.23913237,-0.21531947,9.801369,0.0006175637,-1.7523766e-05,-0.0025053024,7.6293945e-05,-0.00012207031,0.00038146973
0.010896217,-0.012274971,0.9938521,0.23713684,-0.21391296,9.802429,2.1530151,-15.666199,-36.605835,0.2387575,-0.21587288,9.801367,-0.00092582405,-0.00184986,0.0008792877,1.5258789e-05,-0.00012207031,0.0005645752
0.010879471,-0.0122426255,0.99385595,0.23904419,-0.21751404,9.7986145,3.022766,-15.9713745,-36.779785,0.23835531,-0.21528555,9.801389,-0.0012393296,0.0018644482,-4.673004e-05,-4.5776367e-05,-6.1035156e-05,0.00032043457
0.010899511,-0.012280003,0.9938513,0.23832703,-0.21798706,9.803635,1.8417358,-16.90979,-38.58185,0.23883384,-0.21596238,9.801363,0.00046250224,-0.0015589148,-0.0024194717,-4.5776367e-05,-0.000289917,0.0002593994
0.010917053,-0.012311159,0.99384725,0.23928833,-0.21464539,9.804352,1.8066406,-16.046143,-37.423706,0.23924947,-0.21652424,9.80134,-0.00046275556,-0.00073359907,0.001748085,-4.5776367e-05,-0.00018310547,0.0002593994
0.010904323,-0.012308335,0.9938505,0.23880005,-0.21559143,9.8033905,3.401184,-16.226196,-38.282776,0.23898917,-0.21650335,9.801347,-0.0006932467,0.0004518181,0.0014858246,-0.00016784668,-6.1035156e-05,0.0002593994
0.010914275,-0.0122847,0.99384755,0.2368927,-0.21247864,9.802673,3.15094,-14.79187,-37.298584,0.23913868,-0.21601437,9.801353,-0.00013153255,0.0011735708,0.00051784515,-4.5776367e-05,-0.00012207031,0.00038146973
0.01087953,-0.0122326715,0.9938558,0.23760986,-0.21440125,9.804108,2.696228,-15.911865,-37.660217,0.23833573,-0.2150908,9.801394,-0.00079515576,0.0009962171,0.0027484894,-0.00010681152,0.0,0.00030517578
0.01087438,-0.0122271925,0.993857,0.23927307,-0.21511841,9.801727,3.1204224,-15.524292,-37.068176,0.23822139,-0.21499754,9.801399,-0.00043146312,0.0006541312,-0.0004005432,7.6293945e-05,-0.00018310547,0.0002593994
0.0109032225,-0.012228446,0.9938495,0.23783875,-0.21536255,9.804825,2.7755737,-15.67688,-39.123535,0.23880033,-0.2149443,9.801386,0.0009152591,0.00011123717,-0.001537323,-0.00010681152,-6.1035156e-05,0.00032043457
0.010895954,-0.012244856,0.99385166,0.23664856,-0.2131958,9.804352,2.859497,-15.675354,-38.75122,0.23868936,-0.21528475,9.801381,-0.0009030998,-0.0002593398,0.0005712509,-0.00010681152,-0.00018310547,0.00038146973
0.010862908,-0.012220017,0.9938599,0.23904419,-0.21679688,9.8029175,2.3529053,-16.220093,-38.690186,0.23797716,-0.21488813,9.801407,-0.0018559694,0.0010089576,0.00023365021,-4.5776367e-05,0.0,0.0002593994
0.010882,-0.012236969,0.9938552,0.23951721,-0.21534729,9.8033905,3.2684326,-15.72876,-37.646484,0.23839407,-0.21516816,9.801392,0.0010703653,-0.00037562847,-0.0001707077,-4.5776367e-05,-0.00018310547,0.0001373291
0.010899567,-0.012256841,0.99385095,0.23855591,-0.21559143,9.802444,2.9144287,-16.482544,-37.63275,0.23878658,-0.21550936,9.8013735,-4.801154e-05,-0.00049960613,0.0006980896,-0.00010681152,-0.00018310547,0.0001373291
0.010902289,-0.012260548,0.9938503,0.23976135,-0.21583557,9.804108,3.640747,-16.358948,-37.939453,0.23884875,-0.2155745,9.801372,-0.0005829185,0.0002824515,-3.8146973e-06,-0.00016784668,-0.00012207031,0.00012207031
0.010938862,-0.012277345,0.993841,0.23928833,-0.21583557,9.806503,3.3493042,-15.647888,-37.93335,0.23961468,-0.21580422,9.801347,0.0012907386,0.00025433302,-0.0012769699,1.5258789e-05,-6.1035156e-05,0.0002593994
0.0109381145,-0.012292141,0.9938414,0.23880005,-0.21487427,9.800049,2.670288,-16.270447,-38.789368,0.23963065,-0.21609555,9.80134,-0.00039963424,-0.00087851286,0.000910759,7.6293945e-05,-0.00012207031,0.00019836426
0.010931312,-0.012252849,0.99384254,0.23808289,-0.21702576,9.804352,3.237915,-16.384888,-37.779236,0.2394126,-0.21534564,9.801362,-0.00066301227,0.0014780611,-0.00051021576,-0.00010681152,-0.00022888184,6.1035156e-05
0.010915026,-0.012289332,0.9938474,0.23951721,-0.21440125,9.803879,2.6565552,-16.560364,-39.14795,0.23916335,-0.21610291,9.801351,-0.0016094744,-0.0015894324,0.00046253204,7.6293945e-05,0.0,0.0002593994
0.01093536,-0.012253479,0.9938415,0.23928833,-0.21534729,9.804596,2.9586792,-15.307617,-38.22632,0.2394948,-0.21534704,9.80136,0.00045497715,0.0014841557,-5.722046e-06,-0.000289917,-0.00012207031,0.0001373291
0.010928246,-0.012270685,0.9938437,0.23904419,-0.21368408,9.803635,2.5894165,-14.680481,-37.78076,0.23938863,-0.21570268,9.801355,-0.0008825362,0.0006429106,0.0008058548,-0.00016784668,-0.00018310547,0.0002593994
0.010928058,-0.012246953,0.9938433,0.23880005,-0.21846008,9.805313,3.6010742,-15.490723,-37.309265,0.23933525,-0.21523914,9.801366,-0.00010462105,0.0016069561,-0.0005674362,-0.00010681152,-0.00012207031,0.00024414062
0.010922719,-0.012311483,0.99384576,0.23880005,-0.21464539,9.802429,2.9586792,-15.382385,-37.789917,0.23936337,-0.21651527,9.801337,-0.000626564,-0.0021317303,0.00042438507,-0.00010681152,-0.00018310547,0.00018310547
0.0109356735,-0.012304247,0.99384224,0.23951721,-0.21655273,9.804596,2.6184082,-15.843201,-37.869263,0.23960717,-0.21633884,9.801335,-0.0006196946,0.00079862773,-0.0005083084,-4.5776367e-05,-0.00035095215,6.1035156e-05
0.01094277,-0.012286311,0.9938401,0.23976135,-0.21678162,9.804352,3.4301758,-15.718079,-37.651062,0.2397115,-0.21596895,9.80134,-0.00048527122,0.00090649724,0.0004720688,-0.00010681152,-0.00018310547,0.0002593994
0.010955714,-0.012304288,0.99383706,0.23832703,-0.21655273,9.802444,2.255249,-14.918518,-38.043213,0.24000773,-0.2162855,9.801326,-7.224083e-05,-0.00020414591,0.0006389618,-0.00016784668,0.0,0.00032043457
0.010928347,-0.012324384,0.9938445,0.23951721,-0.21679688,9.800522,3.0761719,-14.578247,-37.480164,0.2395028,-0.21675235,9.801329,-0.0012331009,-0.00022152066,-0.001001358,-4.5776367e-05,-6.1035156e-05,0.00032043457
0.010927673,-0.012337172,0.9938449,0.23857117,-0.21606445,9.799805,3.1936646,-15.663147,-37.400818,0.23951605,-0.2170042,9.801322,-0.00025174022,-0.00024394691,-0.002729416,1.5258789e-05,-0.00012207031,0.0001373291
0.010910263,-0.012314175,0.9938491,0.2368927,-0.2163086,9.804352,2.7801514,-15.52887,-39.3219,0.23912007,-0.21660152,9.801341,-0.0010481626,0.00077588856,-0.0010251999,-4.5776367e-05,0.0,0.0002593994
0.010890704,-0.012321284,0.9938543,0.23832703,-0.21559143,9.8033905,2.7923584,-15.539551,-37.81433,0.238744,-0.21679328,9.801347,-0.0011617988,-0.00020736456,0.0013971329,-0.00010681152,-0.00018310547,0.00019836426
0.010890419,-0.012287149,0.9938538,0.23904419,-0.2172699,9.8033905,3.5568237,-16.210938,-38.964844,0.23866706,-0.21612662,9.801363,-0.0008416027,0.001995355,0.00013828278,-0.00016784668,-0.0004119873,0.00032043457
0.010913369,-0.012328201,0.9938485,0.24119568,-0.21559143,9.802444,2.5863647,-16.499329,-38.227844,0.23921144,-0.21686739,9.801333,3.1098723e-05,-0.0010781437,0.0013856888,-0.00010681152,-0.00012207031,0.00044250488
0.010962811,-0.012317135,0.9938354,0.23760986,-0.21559143,9.803162,2.3406982,-16.511536,-38.598633,0.24017642,-0.21651751,9.801316,0.0012332648,0.0009532422,-0.0013074875,-4.5776367e-05,0.0,0.00032043457
0.010917447,-0.012288796,0.9938468,0.23904419,-0.21606445,9.803162,2.2842407,-15.931702,-38.702393,0.23921064,-0.21608593,9.801351,-0.0021214038,0.0012546331,0.0015239716,-4.5776367e-05,-0.00012207031,0.0
0.010920783,-0.012299988,0.9938461,0.23832703,-0.21583557,9.8029175,2.481079,-17.09137,-38.041687,0.23930068,-0.21629576,9.801344,-5.312264e-05,-0.0004489869,-0.00056934357,1.5258789e-05,-0.00012207031,0.00032043457
0.01090835,-0.012289364,0.99384916,0.24119568,-0.21511841,9.806992,3.0029297,-16.409302,-36.868286,0.23903003,-0.21612157,9.801354,-0.0009867698,0.00032182038,-6.1035156e-05,7.6293945e-05,-6.1035156e-05,0.00032043457
0.010947504,-0.01227995,0.9938388,0.2368927,-0.2141571,9.801239,2.1011353,-16.607666,-37.927246,0.23979281,-0.21583182,9.801342,0.0013496727,0.0005324036,0.0010795593,-0.00010681152,-0.00018310547,0.00032043457
0.010960361,-0.012234606,0.9938347,0.23880005,-0.2141571,9.804352,2.9144287,-16.255188,-38.56964,0.23995492,-0.21491049,9.801358,0.0004811883,0.00079137087,-0.00088977814,-0.00010681152,-0.00012207031,0.00038146973
0.010965172,-0.012253411,0.9938337,0.23976135,-0.21440125,9.802673,2.9388428,-15.821838,-37.727356,0.24009037,-0.21526517,9.801347,-0.0003798008,-0.00028073788,0.0006875992,7.6293945e-05,-0.00022888184,0.00024414062
0.010958158,-0.012224908,0.9938351,0.2368927,-0.21536255,9.803635,2.973938,-16.688538,-38.735962,0.23989064,-0.21472682,9.801364,-0.00088097155,0.0006006211,-0.001291275,1.5258789e-05,-0.00012207031,0.0002593994
0.010933675,-0.012234714,0.99384165,0.24119568,-0.2163086,9.801483,2.3086548,-15.574646,-37.649536,0.23942192,-0.21498469,9.80137,-0.0016129315,-0.0003374517,0.0008955002,-0.00010681152,-0.00012207031,0.0002593994
0.010953312,-0.012247281,0.9938367,0.23951721,-0.21583557,9.801956,2.8564453,-15.82489,-38.17749,0.23984057,-0.21517737,9.801355,0.0006067455,8.696318e-05,-0.0011472702,1.5258789e-05,0.0,0.00038146973
0.010954608,-0.012253859,0.99383646,0.23736572,-0.21272278,9.80101,3.6209106,-16.490173,-39.77661,0.23988023,-0.21530248,9.801352,-0.00014467537,-0.00050993264,-0.0004491806,7.6293945e-05,-6.1035156e-05,0.0004272461
0.010902648,-0.01223144,0.9938497,0.23713684,-0.21679688,9.800995,2.6107788,-15.837097,-38.77411,0.23879509,-0.21500438,9.801384,-0.0021561533,0.00038294494,-0.0012578964,1.5258789e-05,0.0,0.00032043457
0.010897529,-0.012239841,0.9938512,0.24143982,-0.21679688,9.8022,3.3294678,-16.087341,-38.09662,0.23871036,-0.21518245,9.801383,-0.00086534023,-0.00040088594,-4.005432e-05,0.0001373291,-0.00022888184,6.1035156e-05
0.01093973,-0.012264423,0.9938406,0.23904419,-0.21534729,9.801956,2.6229858,-15.69519,-38.215637,0.23960501,-0.21554922,9.8013525,0.001338914,-0.0014696866,-0.00018119812,0.0001373291,-0.00022888184,0.00032043457
0.010960511,-0.012262852,0.9938351,0.2400055,-0.21534729,9.804825,1.7379761,-15.756226,-37.81433,0.24001697,-0.21546236,9.801344,-0.0002656281,0.00012405217,0.00020313263,-4.5776367e-05,-0.00035095215,0.0001373291