rotationVector_x,rotationVector_y,rotationVector_z,accelerometer_x,accelerometer_y,accelerometer_z,magneticField_x,magneticField_y,magneticField_z,gravity_x,gravity_y,gravity_z,linearAcceleration_x,linearAcceleration_y,linearAcceleration_z,gyroscope_x,gyroscope_y,gyroscope_z
0.01088534,-0.012230569,0.9938542,0.2416687,-0.21774292,9.812973,2.708435,-15.77301,-36.875916,0.23844743,-0.21503401,9.801393,-0.000119134784,0.00087578595,-0.0012922287,7.6293945e-05,-0.00010681152,1.5258789e-05
0.010839417,-0.012229176,0.9938662,0.2416687,-0.21534729,9.796219,2.6351929,-15.403748,-38.157654,0.23752685,-0.21513046,9.801413,-0.0018332303,-0.00022257864,-0.00038433075,7.6293945e-05,6.1035156e-05,0.00021362305
0.010835625,-0.012253188,0.9938676,0.23449707,-0.21534729,9.793823,3.2165527,-15.075684,-37.73651,0.23750119,-0.21561016,9.801403,0.00038327277,-0.0007260889,-0.0020189285,-0.00016784668,0.00012207031,7.6293945e-05
0.0108577935,-0.012243164,0.9938616,0.23449707,-0.21774292,9.810577,3.225708,-14.855957,-37.841797,0.23792325,-0.21535447,9.801397,0.00019295514,0.0006941855,-0.00022029877,7.6293945e-05,-0.00010681152,0.0001373291
0.0108375335,-0.012227864,0.9938667,0.2368927,-0.21774292,9.800995,3.0471802,-15.232849,-37.763977,0.23748647,-0.21510987,9.801414,-0.0010332912,0.00044940412,1.7166138e-05,-0.00010681152,-4.5776367e-05,0.00019836426
0.010862392,-0.012243271,0.9938604,0.2368927,-0.21296692,9.800995,1.8188477,-15.67688,-37.878418,0.2380154,-0.2153442,9.801396,0.0013079494,-3.476441e-05,-0.00014972687,1.5258789e-05,0.0,0.0001373291
0.010830687,-0.012249797,0.9938688,0.23210144,-0.22013855,9.8033905,2.7435303,-16.48407,-38.75885,0.23739544,-0.21555714,9.801407,-0.00097194314,0.0001925528,0.0013370514,-0.00016784668,0.00012207031,1.5258789e-05
0.010837114,-0.012246379,0.9938671,0.2368927,-0.22013855,9.796219,2.3666382,-15.852356,-38.768005,0.23751675,-0.21547303,9.801406,-0.00037153065,0.000102862716,0.00089645386,-4.5776367e-05,-0.00010681152,7.6293945e-05
0.010851142,-0.0122450655,0.9938634,0.23449707,-0.21296692,9.8033905,2.3605347,-16.149902,-37.99591,0.23779431,-0.21540959,9.8014,0.0012566298,0.00052919984,0.00011730194,-4.5776367e-05,0.0,7.6293945e-05
0.010804119,-0.012232182,0.99387544,0.23449707,-0.21057129,9.7986145,4.536438,-15.620422,-40.846252,0.23682776,-0.21528417,9.801426,-0.0020896941,0.0008857846,0.0008878708,-0.00010681152,0.0,1.5258789e-05
0.01084114,-0.012228404,0.9938657,0.23449707,-0.21057129,9.810577,3.8085938,-15.821838,-39.801025,0.23755966,-0.21511072,9.801412,0.0019430369,0.0007226169,0.0009069443,-0.00010681152,0.00018310547,-0.00010681152
0.010845551,-0.012236842,0.9938647,0.23928833,-0.21296692,9.796219,3.8101196,-15.975952,-38.775635,0.23766541,-0.21526383,9.801406,0.0006607771,-9.7975135e-05,-0.0011472702,-0.00016784668,6.1035156e-05,1.5258789e-05
0.010868674,-0.012255413,0.993859,0.23449707,-0.21534729,9.789032,2.6046753,-15.983582,-38.8031,0.23816626,-0.2155647,9.801388,-0.00029286742,-0.00076143444,-0.0017461777,1.5258789e-05,0.00012207031,7.6293945e-05
0.010853877,-0.012233479,0.9938625,0.2368927,-0.22013855,9.7986145,2.055359,-15.730286,-38.57727,0.23782481,-0.21517569,9.801405,-0.00066386163,0.0005237609,-0.00036239624,7.6293945e-05,6.1035156e-05,0.00019836426
0.010889322,-0.012237147,0.9938533,0.23928833,-0.20817566,9.796219,2.407837,-16.723633,-39.24713,0.23854071,-0.21515189,9.801387,0.0010111481,0.0004905164,-0.0008764267,-4.5776367e-05,-4.5776367e-05,0.0001373291
0.010881221,-0.012235659,0.99385536,0.23449707,-0.20817566,9.796219,2.4978638,-16.571045,-38.842773,0.23837574,-0.21514465,9.801392,-0.00096416473,0.00047314167,-0.0008916855,-0.00016784668,-0.00035095215,0.00045776367
0.0108705405,-0.012209635,0.99385774,0.24406433,-0.21774292,9.800995,2.470398,-15.412903,-38.302612,0.238108,-0.2146646,9.801409,-0.0006907135,0.0014223009,-0.0004272461,-4.5776367e-05,0.0,0.0002746582
0.0108487895,-0.012226422,0.9938637,0.24406433,-0.21296692,9.800995,3.4210205,-15.863037,-37.82959,0.23770839,-0.2150514,9.80141,-0.00029733777,-0.00035214424,0.0005083084,-0.00010681152,6.1035156e-05,0.00021362305
0.010865372,-0.0122136315,0.9938592,0.23449707,-0.20817566,9.793823,1.7547607,-17.06543,-38.459778,0.23801304,-0.21475665,9.801409,0.0013241619,0.0005554408,-0.0003080368,-0.00010681152,0.00018310547,0.00033569336
0.010894879,-0.012175141,0.9938508,0.2368927,-0.21534729,9.800995,2.3773193,-15.786743,-37.997437,0.23852228,-0.21392456,9.801415,0.00058330595,0.001863867,-0.0009946823,7.6293945e-05,0.0,-4.5776367e-05
0.0108406795,-0.012203562,0.99386543,0.23928833,-0.22013855,9.793823,2.7114868,-15.394592,-38.461304,0.23749864,-0.21462624,9.801424,-0.0019978285,-0.0012476593,0.0015659332,-4.5776367e-05,0.0,0.0002746582
0.010844328,-0.012219721,0.9938648,0.23928833,-0.21774292,9.8033905,2.9525757,-15.5303955,-37.667847,0.23760527,-0.21493237,9.8014145,0.00027249753,-0.00068053603,0.0015211105,-0.00010681152,0.0,0.0001373291
0.010857999,-0.012235338,0.99386144,0.2368927,-0.21296692,9.8033905,3.2348633,-14.71405,-37.36267,0.23791106,-0.21520093,9.801402,0.0006636083,7.934868e-05,0.0016593933,-4.5776367e-05,-4.5776367e-05,0.00021362305
0.010827665,-0.012213168,0.993869,0.23449707,-0.21534729,9.800995,2.2033691,-16.012573,-38.414,0.23725861,-0.21484905,9.801424,-0.0013114363,0.00092180073,-0.00096797943,-4.5776367e-05,6.1035156e-05,0.0001373291
0.010885101,-0.012204269,0.99385387,0.2368927,-0.21774292,9.805786,2.3086548,-15.647888,-37.36267,0.23838772,-0.21452042,9.801405,0.0018563718,0.0008275956,0.00047779083,-0.00010681152,-0.00010681152,-3.0517578e-05
0.010870452,-0.012216135,0.99385786,0.23928833,-0.21296692,9.812973,2.7145386,-15.32135,-38.597107,0.23811981,-0.21479192,9.801406,-0.0002580285,-0.0005623847,0.00015354156,-0.00010681152,0.0,0.00045776367
0.010857216,-0.0122063765,0.9938612,0.2536316,-0.21534729,9.805786,2.1377563,-15.499878,-39.289856,0.23783495,-0.21463674,9.801415,-0.0007028729,0.000483945,0.0010614395,0.0001373291,0.0,0.0002746582
0.010880535,-0.012176002,0.9938546,0.23928833,-0.21057129,9.7986145,2.9785156,-14.793396,-38.65204,0.23823746,-0.21398005,9.80142,0.00080512464,0.0015028417,-0.00024700165,-0.00010681152,-0.00010681152,0.0001373291
0.010884184,-0.01217862,0.9938537,0.2368927,-0.21057129,9.796219,2.7038574,-15.766907,-37.631226,0.23831584,-0.2140214,9.801417,5.826354e-06,0.00034214556,0.00031757355,-0.00010681152,0.0,0.00021362305
0.010863486,-0.012226493,0.9938599,0.23928833,-0.21774292,9.805786,2.9510498,-15.67688,-37.620544,0.2380022,-0.21501319,9.801403,8.197129e-05,-0.0015406758,-0.00058460236,-4.5776367e-05,0.00012207031,0.00021362305
0.010844435,-0.012197664,0.99386436,0.23449707,-0.20817566,9.800995,2.7313232,-14.955139,-38.523865,0.23756136,-0.21450081,9.801425,-0.0008908212,0.00056801736,-0.0016756058,7.6293945e-05,6.1035156e-05,0.0001373291
0.010809535,-0.012190032,0.99387336,0.24406433,-0.21774292,9.7986145,2.4291992,-16.210938,-39.3692,0.23684812,-0.21444547,9.801444,-0.0011406839,3.9756298e-05,0.0014333725,1.5258789e-05,6.1035156e-05,0.00050354004
0.010831098,-0.012235768,0.99386847,0.2368927,-0.21296692,9.800995,3.036499,-15.45105,-37.956238,0.23737437,-0.21528174,9.801413,0.00094148517,-0.0010167062,0.0012874603,-0.00010681152,0.0,0.00021362305
0.010810254,-0.012200181,0.99387336,0.23210144,-0.22253418,9.805786,2.1072388,-16.31012,-38.697815,0.23688363,-0.21464197,9.801438,-0.00048297644,0.0012192726,0.0006914139,-4.5776367e-05,6.1035156e-05,0.00033569336
0.010809753,-0.012239425,0.99387413,0.23928833,-0.21534729,9.7986145,3.529358,-15.197754,-38.302612,0.23695543,-0.21541063,9.801419,0.00038917363,-0.0011229217,0.00013637543,-4.5776367e-05,6.1035156e-05,-4.5776367e-05
0.010847354,-0.012237228,0.99386424,0.24406433,-0.21534729,9.805786,3.3660889,-15.132141,-38.661194,0.23770227,-0.21526654,9.801405,0.0020170659,0.00067445636,0.0016870499,-0.00016784668,0.00012207031,0.00021362305
0.010844094,-0.0122171445,0.9938648,0.23928833,-0.21057129,9.793823,2.5299072,-15.766907,-39.208984,0.23759522,-0.21488263,9.801416,0.00046306849,0.00074775517,-0.0014352798,7.6293945e-05,0.00012207031,1.5258789e-05
0.010865492,-0.0122210095,0.99385923,0.2416687,-0.21296692,9.800995,2.5222778,-15.986633,-38.95111,0.23803087,-0.2149006,9.801406,0.0012749285,-0.0002335906,-0.0035057068,-4.5776367e-05,0.00018310547,0.00021362305
0.010861143,-0.012203537,0.9938601,0.2416687,-0.22492981,9.796219,2.5222778,-15.986633,-39.102173,0.23790748,-0.21457066,9.801415,0.00044827163,0.0011048019,-0.00091552734,1.5258789e-05,0.00012207031,0.0001373291
0.010858346,-0.012224552,0.9938612,0.2416687,-0.20578003,9.7986145,2.6779175,-16.200256,-38.397217,0.23789544,-0.21498908,9.801406,0.00046144426,-0.00087347627,-0.00012683868,-4.5776367e-05,0.00018310547,0.00021362305
0.0108496435,-0.012205189,0.9938631,0.2416687,-0.21296692,9.810577,2.6916504,-15.908813,-38.18817,0.23768117,-0.21463394,9.80142,-0.00053055584,-0.0002527684,0.00014305115,0.00019836426,0.0,7.6293945e-05
0.010874183,-0.012220107,0.99385697,0.23928833,-0.21296692,9.8033905,2.0690918,-15.591431,-37.49237,0.23820265,-0.21485953,9.801402,0.0008595437,-3.0979514e-05,-0.0003681183,-0.00010681152,-0.00010681152,7.6293945e-05
0.010902471,-0.012230955,0.99384975,0.23928833,-0.21296692,9.805786,2.3742676,-16.011047,-37.062073,0.23879054,-0.21499538,9.801385,0.0012181997,0.00036233664,0.0011930466,-0.00016784668,6.1035156e-05,1.5258789e-05
0.010909954,-0.012237258,0.9938479,0.23928833,-0.21774292,9.8033905,2.7755737,-15.829468,-38.09967,0.23895325,-0.21509846,9.801379,0.0003361702,-0.00096696615,0.0001487732,0.00019836426,6.1035156e-05,0.00021362305
0.010917503,-0.012254353,0.9938462,0.24406433,-0.21534729,9.7986145,1.9760132,-15.814209,-37.911987,0.23913983,-0.21541233,9.801368,0.00016576052,4.9486756e-05,-0.0013284683,-0.00016784668,-0.00016784668,-4.5776367e-05
0.010919006,-0.0122649735,0.993846,0.2368927,-0.21057129,9.796219,3.6361694,-14.608765,-38.03711,0.23919201,-0.21561591,9.801361,0.00011266768,9.775162e-06,7.343292e-05,-0.00010681152,0.00018310547,7.6293945e-05
0.010891459,-0.012239731,0.9938528,0.23210144,-0.21774292,9.800995,1.8371582,-15.313721,-37.652588,0.23858882,-0.21519665,9.801385,-0.00141415,0.0014784485,-0.0017051697,-0.00021362305,-4.5776367e-05,1.5258789e-05
0.01087742,-0.012247147,0.99385655,0.23449707,-0.21534729,9.7986145,2.2766113,-16.307068,-37.57019,0.23832378,-0.2153795,9.801388,-0.0013948083,-0.00024470687,0.00015258789,9.1552734e-05,-0.000289917,7.6293945e-05
0.010883241,-0.012290635,0.9938558,0.2368927,-0.21774292,9.796219,3.6499023,-15.757751,-40.008545,0.23853086,-0.2162141,9.801364,-0.000424847,-0.0010767579,0.0010690689,-0.00021362305,-0.00022888184,0.0002593994
0.010886179,-0.012270387,0.99385464,0.24645996,-0.21774292,9.7986145,2.4765015,-15.415955,-37.776184,0.23854735,-0.21581031,9.8013735,4.4450164e-05,0.0016345233,0.0002412796,-0.00015258789,-0.00010681152,0.0001373291
0.0109065315,-0.012259731,0.99384916,0.23928833,-0.20817566,9.796219,2.7114868,-15.620422,-37.374878,0.23893178,-0.21554707,9.801369,-0.00010699034,0.0011235178,-0.00030612946,-0.00021362305,-0.00016784668,7.6293945e-05
0.010909121,-0.012250794,0.9938483,0.23928833,-0.21296692,9.808182,2.4475098,-15.846252,-38.993835,0.23896487,-0.21536535,9.801373,-0.00036421418,0.0011816621,-0.00035762787,-0.00015258789,-6.1035156e-05,-0.00018310547
0.010907383,-0.0122277625,0.9938484,0.2416687,-0.21774292,9.805786,1.651001,-15.834045,-38.130188,0.23888202,-0.2149197,9.801384,-0.0005417317,0.0007506609,0.0013608932,-0.00015258789,-0.00022888184,0.0001373291
0.010902713,-0.012244713,0.99384993,0.23928833,-0.21296692,9.796219,3.4301758,-15.718079,-37.651062,0.23882411,-0.21526372,9.801378,-0.00096581876,-0.00033156574,0.0007543564,3.0517578e-05,-0.00016784668,7.6293945e-05
0.010896491,-0.012240201,0.9938515,0.23449707,-0.21774292,9.796219,3.352356,-15.499878,-38.356018,0.23869033,-0.21519227,9.801382,-0.00057409704,0.0007609427,-0.0023593903,-0.00015258789,0.0,-6.1035156e-05
0.010891403,-0.012292845,0.9938537,0.2368927,-0.20578003,9.800995,3.1692505,-16.096497,-38.017273,0.23869862,-0.21623534,9.80136,-0.00035639107,-0.0017654747,0.0014638901,-9.1552734e-05,-0.00010681152,-6.1035156e-05
0.010918148,-0.012252832,0.993846,0.2368927,-0.22013855,9.7986145,3.2745361,-15.583801,-37.5412,0.23914951,-0.21538085,9.801368,0.00018711388,0.0011802465,-0.0026960373,3.0517578e-05,-0.00016784668,0.0001373291
0.010902655,-0.012230968,0.9938497,0.2416687,-0.21296692,9.800995,2.5985718,-15.977478,-39.556885,0.23879424,-0.21499512,9.801384,-0.0006875247,0.00081655383,0.002038002,9.1552734e-05,-6.1035156e-05,-0.00018310547
0.010895765,-0.012253138,0.99385184,0.23210144,-0.21296692,9.7986145,3.048706,-15.234375,-37.538147,0.2387029,-0.2154472,9.801377,0.0005789697,-0.00061140954,0.0024642944,-0.00015258789,0.00012207031,-0.00018310547
0.010875896,-0.012230456,0.99385667,0.23210144,-0.22013855,9.808182,3.3813477,-14.994812,-37.347412,0.23825847,-0.21505725,9.801396,-0.00089748204,0.00066027045,-0.0001077652,3.0517578e-05,6.1035156e-05,1.5258789e-05
0.010873697,-0.012242129,0.99385744,0.23928833,-0.21057129,9.789032,2.7145386,-15.397644,-38.008118,0.23823889,-0.21529143,9.801392,-0.00012882054,0.00014844537,-0.002620697,-9.1552734e-05,6.1035156e-05,-0.00018310547
0.010878218,-0.012221527,0.99385595,0.23928833,-0.21534729,9.789032,3.5766602,-15.922546,-38.302612,0.23828623,-0.21487641,9.801399,6.9990754e-05,0.0006930083,-0.00015068054,-9.1552734e-05,0.0,-0.00036621094
0.010876662,-0.012227236,0.99385643,0.23449707,-0.21774292,9.805786,2.619934,-15.693665,-38.591003,0.23826705,-0.21499224,9.801397,-0.00040630996,-0.0008494109,0.0013246536,3.0517578e-05,-6.1035156e-05,-6.1035156e-05
0.0108985705,-0.012205544,0.99385035,0.23928833,-0.22253418,9.808182,3.111267,-15.667725,-37.55188,0.23865955,-0.21450906,9.801399,0.00014066696,0.0010689795,0.0005636215,3.0517578e-05,-0.00016784668,1.5258789e-05
0.010892844,-0.012241417,0.99385244,0.24885559,-0.21296692,9.793823,3.5629272,-15.679932,-41.497803,0.23862001,-0.21522589,9.801384,-0.00030191243,-0.0027531087,0.0006933212,0.00015258789,-0.00016784668,-6.1035156e-05
0.010882938,-0.012256031,0.99385524,0.2416687,-0.20817566,9.808182,3.5186768,-15.113831,-39.720154,0.23845258,-0.21553834,9.801381,0.000109642744,-0.0010063052,-2.193451e-05,0.0002746582,0.00012207031,-0.00018310547
0.010896318,-0.012260606,0.99385184,0.23928833,-0.21534729,9.793823,2.381897,-15.562439,-38.557434,0.23872949,-0.2155917,9.801373,0.0007787943,-0.00023581088,-2.7656555e-05,3.0517578e-05,0.00012207031,-0.00030517578
0.010865021,-0.012233916,0.9938596,0.23928833,-0.20817566,9.800995,2.684021,-15.748596,-40.26947,0.23804837,-0.2151542,9.801399,-0.00115408,0.0012398064,-0.00081157684,-0.00015258789,6.1035156e-05,1.5258789e-05
0.010876005,-0.012220606,0.9938565,0.24645996,-0.21534729,9.810577,2.9632568,-15.235901,-37.98523,0.23824006,-0.21486436,9.8014,0.0005719662,0.00045230985,-0.00085926056,9.1552734e-05,6.1035156e-05,-0.00024414062
0.010911194,-0.0122034885,0.993847,0.22732544,-0.21534729,9.8033905,2.871704,-15.307617,-39.204407,0.23890744,-0.2144348,9.8013935,0.0013379604,0.00074084103,6.771088e-05,-3.0517578e-05,0.0,1.5258789e-05
0.010873789,-0.012204583,0.9938568,0.23210144,-0.21057129,9.7986145,2.9388428,-15.516663,-39.476013,0.23816235,-0.21455705,9.80141,-0.0021986514,-0.0003463179,-0.001709938,3.0517578e-05,-0.00010681152,-0.00036621094
0.010885047,-0.012200842,0.9938538,0.23928833,-0.21534729,9.800995,4.0542603,-16.038513,-38.116455,0.23837946,-0.21445355,9.801406,0.0004415214,0.00052174926,0.00093746185,-3.0517578e-05,0.0,-6.1035156e-05
0.010930823,-0.012207882,0.99384195,0.2416687,-0.21774292,9.8033905,3.8284302,-15.689087,-38.111877,0.23930885,-0.21446773,9.801384,0.0018918663,6.198883e-05,0.0012664795,-3.0517578e-05,-6.1035156e-05,7.6293945e-05
0.010907445,-0.012242502,0.9938486,0.23449707,-0.20578003,9.800995,2.1194458,-16.015625,-38.7146,0.23891406,-0.21520773,9.801377,-0.00081910193,-0.0020730197,-0.0006046295,0.00015258789,-6.1035156e-05,-0.00024414062
0.010914506,-0.012228132,0.99384654,0.23210144,-0.21774292,9.808182,3.453064,-15.057373,-38.1958,0.23902513,-0.21490772,9.801381,-0.000679031,0.00048930943,-0.0005493164,3.0517578e-05,-6.1035156e-05,-6.1035156e-05
0.010866712,-0.012214428,0.9938588,0.2368927,-0.21534729,9.791428,2.960205,-15.155029,-38.80005,0.23804149,-0.2147686,9.801408,-0.0023492575,0.0006069988,0.0012264252,-0.00015258789,-0.00016784668,1.5258789e-05
0.010864893,-0.012234375,0.99385965,0.23210144,-0.21534729,9.8033905,0.72631836,-14.950562,-37.68463,0.2380468,-0.21516353,9.801399,3.477931e-05,-0.0006708354,0.00050258636,3.0517578e-05,0.0,1.5258789e-05
0.010856069,-0.012209943,0.99386156,0.23928833,-0.21534729,9.8033905,3.125,-15.374756,-37.34131,0.23781946,-0.21470958,9.8014145,-0.0006837845,0.00079767406,2.0980835e-05,-0.00015258789,-0.00010681152,0.0001373291
0.010865401,-0.012232743,0.99385947,0.23928833,-0.21534729,9.800995,2.5604248,-15.339661,-37.687683,0.23805353,-0.21513025,9.8014,3.941357e-05,-0.00047028065,-0.0009365082,9.1552734e-05,-6.1035156e-05,-6.1035156e-05
0.0108450735,-0.012235808,0.99386483,0.2368927,-0.21296692,9.796219,2.2445679,-15.138245,-37.934875,0.2376537,-0.21524489,9.801406,-0.001221925,-0.00011333823,-0.00014209747,-3.0517578e-05,-0.00010681152,-6.1035156e-05
0.01087369,-0.012223242,0.99385715,0.2368927,-0.21534729,9.793823,2.1972656,-14.718628,-36.112976,0.23819935,-0.21492215,9.801401,0.0008562207,0.0009989142,6.198883e-05,-9.1552734e-05,-0.00010681152,0.0001373291
0.010857775,-0.012210501,0.9938611,0.23928833,-0.21057129,9.8033905,1.6464233,-15.829468,-38.656616,0.23785472,-0.21471591,9.801414,-0.00022807717,7.0631504e-05,-0.00044345856,-9.1552734e-05,6.1035156e-05,-6.1035156e-05
0.010873417,-0.012261283,0.99385786,0.23928833,-0.22253418,9.808182,2.394104,-15.419006,-38.15155,0.2382733,-0.21566668,9.801383,0.00027886033,-0.0018301457,0.002904892,9.1552734e-05,-6.1035156e-05,0.00019836426
0.010876261,-0.012274322,0.9938573,0.2368927,-0.21534729,9.7986145,2.0202637,-14.866638,-37.420654,0.23835734,-0.21591398,9.801375,-0.00028197467,0.0008023977,-0.00091934204,-0.00021362305,-0.00016784668,-0.00018310547
0.010887825,-0.012285589,0.99385446,0.2368927,-0.21774292,9.784256,3.3554077,-15.655518,-37.179565,0.23861194,-0.21610309,9.801364,0.00044943392,7.82311e-06,-0.0020446777,-0.00021362305,0.0,1.5258789e-05
0.010862143,-0.012262818,0.99386084,0.23928833,-0.21774292,9.796219,2.2232056,-15.574646,-38.3255,0.23805118,-0.21572706,9.801386,-0.0011416227,0.0010816753,7.343292e-05,-9.1552734e-05,0.0,-0.00030517578
0.010866444,-0.012266703,0.99385977,0.2416687,-0.21296692,9.805786,2.9754639,-15.170288,-36.91559,0.23814525,-0.21579145,9.801383,0.00018824637,-0.00052301586,0.0008401871,3.0517578e-05,0.00012207031,-0.00024414062
0.01088962,-0.012288422,0.99385405,0.23210144,-0.22013855,9.796219,3.340149,-15.792847,-38.113403,0.23865375,-0.21615367,9.801363,0.00038583577,-0.0006390214,0.0008916855,3.0517578e-05,-0.00022888184,-6.1035156e-05
0.010883384,-0.012296886,0.99385583,0.23928833,-0.20817566,9.8033905,1.8737793,-14.511108,-37.490845,0.2385468,-0.21633598,9.801362,-0.00091937184,0.00025559962,-0.0017967224,-9.1552734e-05,-0.00022888184,-0.00012207031
0.010886179,-0.012274189,0.9938547,0.2368927,-0.21296692,9.793823,2.5665283,-15.267944,-37.44812,0.23855528,-0.21588464,9.801372,-0.00021521747,0.0012427121,0.00040340424,-3.0517578e-05,0.0,-0.00018310547
0.010843719,-0.012261122,0.9938656,0.23928833,-0.22253418,9.800995,1.638794,-14.305115,-37.89215,0.23767948,-0.21574351,9.801395,-0.001497522,0.000863418,0.0005970001,-0.00021362305,0.0,1.5258789e-05
0.010851494,-0.0122574875,0.9938635,0.2368927,-0.22253418,9.812973,2.9678345,-15.087891,-38.256836,0.23782729,-0.21565153,9.801394,0.0005091131,0.0005246252,-0.00024223328,-9.1552734e-05,0.00012207031,-6.1035156e-05
0.010880021,-0.012281866,0.99385643,0.22970581,-0.21774292,9.805786,3.5858154,-15.551758,-39.057922,0.23844823,-0.21605133,9.80137,0.0005914122,-0.0007414371,0.0011167526,-3.0517578e-05,-0.00010681152,-0.00030517578
0.010826215,-0.012280606,0.9938705,0.2368927,-0.22732544,9.810577,2.8182983,-15.032959,-37.182617,0.2373703,-0.21617156,9.8013935,-0.0024053901,-0.00037646294,0.000104904175,3.0517578e-05,-0.00016784668,-0.00024414062
0.010857549,-0.012318525,0.9938629,0.23449707,-0.20817566,9.796219,2.9418945,-15.670776,-38.450623,0.2380756,-0.21682866,9.801362,0.0007352233,-0.0011681914,-0.0013580322,-3.0517578e-05,-0.00010681152,-6.1035156e-05
0.010849882,-0.012285033,0.99386436,0.2368927,-0.21296692,9.800995,2.1759033,-14.851379,-38.102722,0.2378525,-0.21619444,9.801381,-0.0006905049,0.00080902874,-6.67572e-05,3.0517578e-05,-0.00010681152,-6.1035156e-05
0.01085942,-0.012264655,0.99386156,0.22970581,-0.21296692,9.8033905,3.1066895,-15.661621,-38.07831,0.2380006,-0.2157703,9.801387,8.490682e-05,0.0011377931,0.0018825531,-0.00015258789,-0.00016784668,-0.00030517578
0.010843974,-0.012277271,0.9938658,0.22970581,-0.22253418,9.812973,1.4694214,-14.839172,-36.183167,0.23771825,-0.21605857,9.801388,-0.0008224398,-8.717179e-06,-2.002716e-05,-3.0517578e-05,6.1035156e-05,-0.00018310547
0.010829974,-0.012248397,0.99386895,0.23449707,-0.21534729,9.805786,3.8009644,-16.197205,-38.67035,0.23737825,-0.21553169,9.801408,-0.00023972988,0.00090003014,0.0001449585,-3.0517578e-05,6.1035156e-05,-0.0004272461
0.010835847,-0.0122722965,0.9938678,0.24406433,-0.21296692,9.796219,2.7893066,-15.538025,-38.191223,0.23754546,-0.21598318,9.8013935,0.0007815957,-0.0012867302,9.059906e-05,3.0517578e-05,0.00012207031,-0.00024414062
0.010855446,-0.012278428,0.9938628,0.24885559,-0.21774292,9.7986145,1.9439697,-14.570618,-38.48877,0.23794992,-0.21605031,9.801382,0.00038217008,0.00092731416,-0.00040721893,-0.00015258789,0.0,-0.00024414062
0.010863771,-0.012253672,0.99386024,0.22970581,-0.20578003,9.796219,3.0456543,-15.232849,-37.913513,0.23806465,-0.21554385,9.801391,1.9207597e-05,0.001141727,0.00036144257,-9.1552734e-05,-0.00010681152,0.00019836426
0.010872481,-0.012221541,0.99385744,0.23928833,-0.22013855,9.793823,3.2821655,-15.437317,-37.35962,0.2381716,-0.21489213,9.801401,-6.903708e-05,0.0016785562,-0.0015039444,-9.1552734e-05,-0.00016784668,-6.1035156e-05
0.01086964,-0.012226543,0.9938583,0.23928833,-0.21057129,9.805786,2.1652222,-15.374756,-36.62262,0.2381253,-0.21499762,9.801401,-0.00097578764,0.00011190772,0.00060367584,-3.0517578e-05,-0.00016784668,-6.1035156e-05
0.010885344,-0.012223923,0.9938541,0.23928833,-0.20817566,9.810577,2.1774292,-14.852905,-37.953186,0.23843363,-0.21490405,9.801395,0.00085656345,0.00050112605,0.00088119507,-0.00021362305,6.1035156e-05,-0.00018310547
0.010871893,-0.012187051,0.993857,0.2368927,-0.22492981,9.7986145,3.1921387,-15.510559,-38.35144,0.23808788,-0.21421936,9.801419,-0.00047114491,0.0014904141,-0.00037002563,3.0517578e-05,6.1035156e-05,-0.00018310547
0.01086078,-0.012182348,0.9938598,0.24406433,-0.20817566,9.8033905,2.1987915,-16.159058,-38.293457,0.23785602,-0.21415736,9.801426,-0.00048026443,0.00023534894,-0.00024604797,-9.1552734e-05,0.0,-0.00012207031
0.010886643,-0.012204833,0.99385345,0.24885559,-0.22013855,9.800995,3.3660889,-15.359497,-37.347412,0.23841973,-0.21452731,9.801404,0.00087071955,-0.0008508712,-0.00064086914,3.0517578e-05,-6.1035156e-05,-6.1035156e-05
0.010919215,-0.012209262,0.993845,0.24885559,-0.21057129,9.7986145,2.9006958,-14.952087,-37.623596,0.23907982,-0.21452606,9.801389,0.00093632936,-0.000113636255,0.0005311966,-9.1552734e-05,-0.00010681152,0.0001373291
0.010945007,-0.012204386,0.9938382,0.23210144,-0.20817566,9.805786,4.5043945,-14.990234,-37.92267,0.23958494,-0.21436109,9.801379,-6.721914e-05,0.00044766068,0.0008420944,0.00015258789,-0.00016784668,0.0002593994
0.010949073,-0.0121874185,0.9938368,0.23449707,-0.22013855,9.805786,2.632141,-15.553284,-37.65869,0.23963071,-0.21401834,9.801386,-0.0010498315,0.0008138567,-0.00071048737,-3.0517578e-05,-0.00035095215,-0.00012207031
0.010889405,-0.012208213,0.9938528,0.23449707,-0.21774292,9.808182,2.217102,-15.7196045,-38.354492,0.23848197,-0.21458595,9.801401,-0.0022965372,-0.0010143667,1.5258789e-05,-0.00015258789,-6.1035156e-05,-6.1035156e-05
0.010896998,-0.01225323,0.99385154,0.25125122,-0.21534729,9.791428,3.4591675,-15.061951,-37.51831,0.23872772,-0.21544567,9.801376,-0.00014513731,-0.00087322295,-0.0001411438,-3.0517578e-05,-0.00022888184,0.0001373291
0.0109515535,-0.012237601,0.993837,0.24406433,-0.21057129,9.8033905,2.9525757,-15.52887,-37.81891,0.23978518,-0.21499284,9.80136,0.0016806871,0.0010565072,-0.0012083054,-9.1552734e-05,-6.1035156e-05,0.00019836426
0.010912257,-0.012265049,0.9938477,0.2368927,-0.21057129,9.796219,2.3849487,-15.718079,-37.304688,0.2390573,-0.2156356,9.801364,-0.0014289916,-0.00093378127,0.0006313324,-9.1552734e-05,0.0,0.0001373291
0.010912081,-0.012208468,0.99384683,0.25125122,-0.22253418,9.800995,2.8060913,-15.171814,-38.043213,0.23893559,-0.21452978,9.801392,-0.00085423887,0.0020525157,0.001707077,-9.1552734e-05,-0.00016784668,7.6293945e-05
0.010937825,-0.012203964,0.99384004,0.2416687,-0.21057129,9.800995,1.7486572,-15.615845,-37.106323,0.23944058,-0.21437225,9.801383,0.00033056736,0.00020636618,-0.0009326935,9.1552734e-05,-0.00010681152,-0.00018310547
0.010959649,-0.0122055,0.9938344,0.2368927,-0.21534729,9.805786,2.0599365,-15.811157,-37.460327,0.23987983,-0.21434332,9.801373,0.00061400235,-7.161498e-05,-0.0004682541,3.0517578e-05,-0.00010681152,-0.00024414062
0.010899325,-0.012220202,0.9938504,0.24885559,-0.20817566,9.796219,3.9169312,-15.309143,-39.097595,0.23870522,-0.21479362,9.801392,-0.002764061,-0.0012796074,0.00049209595,3.0517578e-05,0.0,-0.00018310547
0.010941159,-0.012238756,0.99383974,0.23928833,-0.20817566,9.800995,3.0212402,-15.437317,-39.691162,0.23957992,-0.21504351,9.801365,-0.00052529573,-0.0005572736,0.0005455017,9.1552734e-05,-0.00010681152,0.0
0.0109067485,-0.012245132,0.99384886,0.2368927,-0.21534729,9.800995,3.6819458,-15.101624,-39.649963,0.23890564,-0.21526103,9.801376,-0.0017624348,-0.0003361404,0.0003681183,-3.0517578e-05,-0.00016784668,-6.1035156e-05
0.010952234,-0.01227485,0.9938375,0.23449707,-0.21534729,9.800995,3.3966064,-15.838623,-41.070557,0.23987667,-0.21571933,9.801342,0.0013139397,-0.00035582483,0.0008955002,-0.00015258789,-0.00010681152,-6.1035156e-05
0.010942667,-0.0122683225,0.99383986,0.2416687,-0.22253418,9.800995,3.2348633,-16.2323,-38.804626,0.23967181,-0.21561751,9.801349,-0.00064356625,0.0005134493,0.000916481,-3.0517578e-05,-0.00016784668,-0.00024414062
0.010961418,-0.012251722,0.9938347,0.2368927,-0.22013855,9.7986145,3.3309937,-15.785217,-39.320374,0.24001184,-0.2152423,9.80135,0.00044707954,0.00038559735,0.00029468536,3.0517578e-05,0.0,-6.1035156e-05
0.010953209,-0.012251458,0.9938368,0.23928833,-0.20817566,9.8033905,2.3239136,-15.055847,-38.52539,0.23984727,-0.21525933,9.801353,-0.00079359114,0.00037655234,-0.0023508072,-3.0517578e-05,-6.1035156e-05,0.0001373291
0.010940629,-0.01220487,0.9938393,0.24406433,-0.21774292,9.800995,2.935791,-15.664673,-39.12964,0.23949845,-0.21438235,9.80138,-0.0011477768,0.0023555756,-0.0010814667,-0.00021362305,-0.00016784668,-0.00012207031
0.010952104,-0.012236918,0.9938369,0.24645996,-0.21057129,9.800995,2.6275635,-15.550232,-38.33618,0.23979476,-0.214978,9.80136,-2.2664666e-05,-0.0010960996,0.0010347366,-0.00015258789,-0.00016784668,-6.1035156e-05
0.010945434,-0.012224051,0.99383837,0.23449707,-0.21534729,9.7986145,3.3569336,-15.275574,-39.067078,0.23963459,-0.21474443,9.80137,-0.00033392012,0.0010492951,-9.918213e-05,-3.0517578e-05,-6.1035156e-05,-0.00012207031
0.01089403,-0.012238044,0.9938521,0.2368927,-0.21774292,9.8033905,3.3752441,-14.9887085,-38.25226,0.23863669,-0.21515675,9.801385,-0.0012614727,-0.00068737566,0.00024414062,-3.0517578e-05,0.00018310547,0.0001373291
0.010890981,-0.012250537,0.9938531,0.23928833,-0.21534729,9.812973,1.6952515,-16.55426,-38.65509,0.23860185,-0.21540923,9.80138,-3.6925077e-05,-0.0006495863,0.0012807846,3.0517578e-05,6.1035156e-05,0.00019836426
0.010874699,-0.01227325,0.9938577,0.24406433,-0.21774292,9.810577,1.7364502,-15.678406,-38.25226,0.2383239,-0.21589725,9.801377,-0.0011998266,-0.0011169463,0.0005426407,-9.1552734e-05,-0.00016784668,-0.00018310547
0.010896128,-0.012260477,0.9938519,0.23928833,-0.20578003,9.800995,2.6779175,-16.278076,-37.88452,0.23872545,-0.21558972,9.8013735,0.0010264516,0.00096812844,-0.0002784729,-3.0517578e-05,6.1035156e-05,-6.1035156e-05
0.010942292,-0.012220848,0.99383914,0.2368927,-0.21774292,9.8033905,2.871704,-15.609741,-37.530518,0.2395651,-0.21469028,9.801372,0.0014140755,0.0022005588,-0.0017786026,-3.0517578e-05,0.0,7.6293945e-05
0.0109385485,-0.01219252,0.9938397,0.24406433,-0.21534729,9.796219,2.82135,-14.881897,-37.831116,0.2394311,-0.21414652,9.801388,-0.00086569786,0.0014288872,0.0015382767,-9.1552734e-05,-0.00010681152,0.0001373291
0.010929605,-0.012214371,0.99384236,0.24645996,-0.21057129,9.7986145,1.763916,-15.097046,-38.05847,0.23929808,-0.21459791,9.801381,-0.0004968792,-0.00052152574,-0.0005674362,-9.1552734e-05,-0.00016784668,0.00019836426
0.010930082,-0.012242161,0.9938427,0.23928833,-0.22013855,9.800995,2.1133423,-16.316223,-37.869263,0.23936568,-0.21513999,9.801368,-7.554889e-05,-0.00022420287,-5.4359436e-05,-0.00021362305,-0.00010681152,0.00032043457
0.0109397415,-0.012277446,0.99384075,0.23449707,-0.21057129,9.800995,3.578186,-15.925598,-37.849426,0.23963246,-0.21580383,9.801347,-0.00011737645,-0.0014641732,0.0002937317,3.0517578e-05,-6.1035156e-05,7.6293945e-05
0.010925539,-0.0122330105,0.99384373,0.2368927,-0.22253418,9.7986145,3.225708,-14.855957,-37.76703,0.23925577,-0.21497332,9.8013735,-0.001645565,0.0017772317,-0.00012111664,-3.0517578e-05,-0.000289917,-0.00018310547
0.010891643,-0.012203888,0.99385214,0.24406433,-0.21057129,9.8033905,2.3971558,-15.348816,-37.834167,0.23851766,-0.21449535,9.801402,-0.0018768013,0.00081819296,0.00072574615,-3.0517578e-05,-0.00016784668,1.5258789e-05
0.010920132,-0.012236197,0.9938452,0.23210144,-0.22253418,9.7986145,2.6901245,-15.830994,-38.700867,0.23915441,-0.21505024,9.801375,0.0013059676,-0.0009979308,0.00080013275,-9.1552734e-05,6.1035156e-05,7.6293945e-05
0.010889187,-0.012234773,0.9938533,0.2368927,-0.21774292,9.793823,3.1082153,-15.585327,-38.441467,0.23853311,-0.21510586,9.80139,-0.0016566962,0.0002462715,-0.00010204315,-9.1552734e-05,-0.00010681152,7.6293945e-05
0.010887857,-0.012241623,0.99385375,0.2368927,-0.21296692,9.805786,3.9382935,-15.100098,-37.771606,0.2385208,-0.21524337,9.801386,-0.0006685555,-0.000102326274,-0.0011806488,-3.0517578e-05,-0.00010681152,0.0002593994
0.010894249,-0.01224,0.993852,0.2368927,-0.21296692,9.796219,2.7893066,-15.538025,-38.191223,0.23864515,-0.2151944,9.801384,0.0010686666,-0.00018572807,0.00033473969,9.1552734e-05,-0.00010681152,0.0001373291
0.0108971065,-0.01223699,0.99385124,0.23210144,-0.21057129,9.793823,2.1255493,-15.792847,-39.424133,0.23869595,-0.21512784,9.801384,-0.00012680888,-0.00046175718,0.0002603531,-9.1552734e-05,0.0,7.6293945e-05
0.010906718,-0.012210791,0.9938483,0.23210144,-0.22253418,9.808182,2.696228,-15.760803,-38.53607,0.23883328,-0.21458967,9.801393,-0.00029106438,0.0011757165,0.0022449493,0.00015258789,-0.00010681152,0.00019836426
0.010897535,-0.012244707,0.99385124,0.22732544,-0.21534729,9.805786,2.9388428,-15.974426,-37.002563,0.23872063,-0.21527757,9.80138,-0.0013750643,-0.0017300248,-0.0007247925,-3.0517578e-05,-0.00022888184,-0.00012207031
0.0108408425,-0.012263967,0.9938664,0.23928833,-0.22013855,9.791428,2.6748657,-16.275024,-38.18512,0.2376279,-0.21580686,9.801394,-0.0017199814,-0.00072452426,0.00030899048,-9.1552734e-05,-6.1035156e-05,-6.1035156e-05
0.010850284,-0.012252366,0.99386376,0.23928833,-0.20578003,9.800995,1.8493652,-15.020752,-37.745667,0.23779242,-0.21555465,9.801397,0.00029155612,0.00067940354,-0.0020208359,3.0517578e-05,6.1035156e-05,1.5258789e-05
0.010886968,-0.012271513,0.99385446,0.2368927,-0.21774292,9.8033905,2.1606445,-15.292358,-37.739563,0.23856543,-0.21583018,9.801372,0.00046293437,-0.00046409667,0.0013685226,-9.1552734e-05,-0.00022888184,-6.1035156e-05
0.010875733,-0.012259701,0.9938572,0.2416687,-0.21296692,9.812973,3.3569336,-15.50293,-37.82959,0.23831627,-0.21562953,9.801383,-0.00047922134,0.00077059865,0.00012111664,-9.1552734e-05,-0.00010681152,0.0002593994
0.01090428,-0.012256757,0.9938497,0.2368927,-0.22013855,9.8033905,3.465271,-16.357422,-39.518738,0.23888057,-0.215495,9.801372,0.00086832047,-0.00032933056,-0.00039958954,3.0517578e-05,6.1035156e-05,-6.1035156e-05
0.010922551,-0.012241886,0.9938447,0.2416687,-0.21057129,9.789032,3.0075073,-15.879822,-39.25171,0.23921464,-0.21515495,9.801372,5.1036477e-05,0.0012623519,0.0008621216,3.0517578e-05,-0.00016784668,0.0
0.01091016,-0.012262963,0.99384826,0.23449707,-0.21057129,9.805786,2.9556274,-15.457153,-37.727356,0.23901105,-0.21560046,9.801366,-0.00020760298,-0.00023816526,-0.0021390915,-0.00015258789,-6.1035156e-05,0.00032043457
0.010892503,-0.012242472,0.99385256,0.24406433,-0.22013855,9.8033905,1.9058228,-15.600586,-37.638855,0.2386154,-0.21524742,9.801383,-0.0017050207,0.0015474111,-0.0010976791,-0.00021362305,-0.00016784668,-6.1035156e-05
0.010906248,-0.012235424,0.99384886,0.23928833,-0.21774292,9.796219,2.6260376,-15.698242,-37.838745,0.23887536,-0.21507257,9.801381,0.00016440451,0.0006753206,0.00182724,-9.1552734e-05,-6.1035156e-05,1.5258789e-05
0.010896128,-0.012237452,0.99385154,0.23928833,-0.21057129,9.805786,2.1713257,-14.997864,-37.982178,0.23867735,-0.21513951,9.801384,-0.000817284,1.5631318e-05,-0.0008420944,-9.1552734e-05,-0.00016784668,0.0001373291
0.010891275,-0.012214199,0.9938524,0.23928833,-0.21534729,9.805786,2.632141,-15.551758,-37.809753,0.23853181,-0.21469793,9.801397,-0.00067810714,0.00029695034,0.0005464554,0.00015258789,-6.1035156e-05,0.00019836426
0.010893126,-0.012227811,0.99385214,0.23449707,-0.21057129,9.8033905,3.4759521,-16.217041,-38.887024,0.23859726,-0.21495911,9.801391,-0.00051116943,0.00055497885,-0.0002641678,-0.00015258789,-0.00016784668,0.0001373291
0.010870335,-0.01220897,0.9938578,0.2368927,-0.22013855,9.7986145,3.0700684,-16.313171,-39.03961,0.2381025,-0.21465214,9.801409,-0.0009676069,0.0009698123,0.00046730042,-0.00015258789,-0.00010681152,0.0001373291
0.010875464,-0.012231814,0.99385685,0.2368927,-0.21057129,9.7986145,3.4255981,-15.715027,-38.179016,0.2382527,-0.21508498,9.801396,7.618964e-05,0.00020904839,-0.00030994415,-0.0002746582,-6.1035156e-05,0.00019836426
0.010879205,-0.012204056,0.99385536,0.23449707,-0.21774292,9.8033905,2.708435,-15.6188965,-37.75177,0.23826945,-0.21453214,9.801407,-0.0013505071,0.00082443655,-0.0019578934,-3.0517578e-05,-0.00016784668,0.0001373291
0.010862158,-0.012222994,0.9938601,0.2416687,-0.21057129,9.810577,2.381897,-15.711975,-37.83264,0.23796837,-0.21494837,9.801406,-0.0012755841,-0.00020998716,-0.001458168,-3.0517578e-05,-0.000289917,0.00018310547
0.010842748,-0.012224871,0.99386525,0.2416687,-0.22013855,9.793823,2.2964478,-15.715027,-38.50708,0.23758446,-0.21503733,9.801414,-0.00045132637,-0.00033566356,0.0026979446,-3.0517578e-05,0.00012207031,0.00019836426
0.010855677,-0.012226809,0.9938619,0.23928833,-0.21774292,9.7986145,3.3569336,-15.351868,-38.47809,0.23784684,-0.2150404,9.801407,0.0005066246,0.0003863573,-0.0012302399,-3.0517578e-05,-6.1035156e-05,0.0001373291
0.010856121,-0.012246113,0.9938621,0.2368927,-0.21774292,9.7986145,3.187561,-15.658569,-38.154602,0.237896,-0.21541667,9.801397,-0.0002770871,-0.00090011954,0.001420021,3.0517578e-05,-0.00016784668,0.0001373291
0.010885907,-0.012238829,0.9938542,0.2368927,-0.21057129,9.793823,2.5482178,-15.4800415,-38.24463,0.238476,-0.215194,9.801388,-0.00013639033,-0.00040879846,-0.0005931854,-9.1552734e-05,-0.00010681152,7.6293945e-05
0.01088325,-0.012235363,0.9938548,0.23928833,-0.22013855,9.8033905,2.1194458,-16.168213,-37.989807,0.23841567,-0.21513338,9.801391,-0.00032697618,0.00048278272,0.0005750656,-9.1552734e-05,-0.00010681152,0.0001373291
0.010903624,-0.012256558,0.9938499,0.24645996,-0.21057129,9.796219,2.6031494,-15.982056,-38.952637,0.23886707,-0.21549289,9.801373,0.000904873,-0.00010809302,-0.000415802,-0.00015258789,0.0,7.6293945e-05
0.010880557,-0.012234253,0.99385554,0.23449707,-0.21534729,9.8033905,2.9464722,-15.59906,-38.13629,0.23835954,-0.21511893,9.801393,-0.0016789436,0.000932917,-0.0017051697,-0.00015258789,0.0,0.0002593994
0.010925004,-0.012214572,0.99384356,0.2368927,-0.21534729,9.793823,2.8686523,-15.608215,-37.90741,0.23920657,-0.21461426,9.801383,0.0008312613,0.0011453032,-9.536743e-06,-3.0517578e-05,-0.00022888184,0.00044250488
0.0108928885,-0.012229699,0.99385226,0.23449707,-0.22013855,9.810577,4.1625977,-15.371704,-38.43994,0.23859644,-0.21499667,9.80139,-0.0012000948,-0.0008665025,0.00014591217,0.00015258789,-0.00010681152,6.1035156e-05
0.010869332,-0.012218223,0.9938582,0.23449707,-0.22013855,9.824936,2.2705078,-16.223145,-39.0625,0.23810178,-0.21483578,9.801406,-0.00094878674,0.00019107759,0.0012159348,9.1552734e-05,-6.1035156e-05,0.0001373291
0.010874288,-0.012209909,0.9938568,0.24645996,-0.20817566,9.774673,2.0690918,-15.515137,-37.854004,0.23818345,-0.21465984,9.801407,-8.060038e-05,0.00024059415,-0.00030708313,3.0517578e-05,0.0,0.0001373291
0.010901725,-0.0121962,0.9938494,0.23449707,-0.21534729,9.800995,2.2079468,-15.940857,-38.09662,0.23870304,-0.21431784,9.801402,0.0006213933,0.0013185292,-0.0013055801,-0.00021362305,-0.00010681152,0.00019836426
0.010897743,-0.012230782,0.993851,0.23210144,-0.20817566,9.8033905,2.8701782,-15.609741,-37.756348,0.2386957,-0.21500474,9.801387,-0.00083579123,-0.00059199333,0.0024900436,-0.00021362305,-0.00016784668,1.5258789e-05
0.010875908,-0.01218791,0.99385595,0.24406433,-0.22013855,9.796219,2.9464722,-15.751648,-37.409973,0.2381699,-0.21422537,9.801417,-0.0014980435,0.0012374967,-0.00137043,-3.0517578e-05,-0.00010681152,7.6293945e-05
0.010883558,-0.012174704,0.99385375,0.23210144,-0.21534729,9.8033905,2.6123047,-15.914917,-38.1073,0.23829512,-0.2139465,9.801419,-0.00017565489,0.0009467304,-0.0010709763,3.0517578e-05,-0.00010681152,0.0001373291
0.010865333,-0.012222852,0.99385935,0.23210144,-0.21774292,9.796219,3.2821655,-15.286255,-38.235474,0.2380315,-0.21493702,9.801404,-0.0011189729,-0.0016336292,0.0013685226,-9.1552734e-05,-0.00022888184,0.00019836426
0.010834907,-0.012248608,0.9938677,0.23210144,-0.22492981,9.800995,1.6448975,-14.1571045,-38.08899,0.23747729,-0.21552256,9.801406,-0.0017503798,-0.00056402385,-0.00034999847,-0.00015258789,-0.00016784668,0.0001373291
0.010856639,-0.012251197,0.99386203,0.23449707,-0.21534729,9.796219,2.1453857,-15.812683,-36.71112,0.23791695,-0.21551467,9.801394,-2.9936433e-05,0.00013747811,-0.000702858,-3.0517578e-05,-0.00016784668,1.5258789e-05
0.010854142,-0.012259313,0.99386287,0.2368927,-0.21534729,9.8033905,2.0401,-14.886475,-34.706116,0.23788399,-0.21568006,9.801392,-0.00070632994,0.00029574335,-0.00062179565,-0.00021362305,-0.00022888184,0.0001373291
0.01088212,-0.012251776,0.9938554,0.2416687,-0.21296692,9.793823,2.2705078,-16.145325,-39.42566,0.23842734,-0.21545734,9.801383,0.0013602823,0.00031517446,0.0011796951,3.0517578e-05,6.1035156e-05,0.0001373291
0.010893416,-0.012205448,0.9938517,0.23449707,-0.21774292,9.793823,3.2699585,-15.577698,-38.067627,0.23855634,-0.21452108,9.801401,-0.00043280423,0.0024789125,-0.0011167526,-9.1552734e-05,-0.00016784668,0.0
0.010877335,-0.012248432,0.9938566,0.24645996,-0.21534729,9.796219,3.5995483,-15.258789,-39.149475,0.23832478,-0.21540488,9.801388,-0.00020603836,-0.0014091432,0.00036525726,-0.00015258789,6.1035156e-05,7.6293945e-05
0.0109346025,-0.012225301,0.99384123,0.24406433,-0.21534729,9.8033905,3.4301758,-15.565491,-38.29956,0.23942079,-0.21479815,9.801374,0.0015636384,0.0015728474,0.00025081635,-3.0517578e-05,-0.00010681152,0.00019836426
0.010949586,-0.012238903,0.99383754,0.24406433,-0.21296692,9.805786,2.7954102,-15.467834,-37.64801,0.2397486,-0.21502364,9.801361,3.565848e-05,-0.00034420192,0.00081443787,-0.00015258789,-0.00010681152,-6.1035156e-05
0.010907869,-0.012245118,0.99384856,0.2368927,-0.21057129,9.796219,3.1021118,-15.431213,-39.692688,0.238928,-0.21525775,9.801376,-0.0020184964,0.0003683418,0.00055217743,-0.00015258789,-0.00016784668,0.00019836426
0.010886186,-0.012209916,0.9938536,0.2416687,-0.21774292,9.791428,3.0929565,-14.286804,-37.11853,0.23842117,-0.21462789,9.801401,-0.0012557656,0.0021235347,-0.0008955002,-0.00015258789,0.0,0.0002593994
0.010869533,-0.012202708,0.9938579,0.23928833,-0.21296692,9.800995,1.7990112,-16.038513,-38.479614,0.23807341,-0.21453187,9.801413,-0.0011388063,9.286404e-05,-0.0010728836,-3.0517578e-05,-0.00016784668,0.0001373291
0.010856355,-0.012209297,0.99386144,0.2368927,-0.21774292,9.810577,2.9968262,-14.505005,-37.83722,0.23803449,-0.21463194,9.801411,-0.00040473044,0.0004568845,0.0016088486,-3.0517578e-05,-0.00016784668,0.00019836426
0.010865293,-0.012253979,0.9938598,0.24645996,-0.22013855,9.7986145,1.2664795,-15.422058,-37.953186,0.2380957,-0.21554576,9.80139,-0.000481233,-0.0012552887,0.001244545,-0.00015258789,-0.000289917,0.0001373291
0.01089178,-0.012232887,0.99385256,0.23210144,-0.21774292,9.808182,3.2287598,-14.859009,-37.313843,0.23858094,-0.21506196,9.801388,0.00072328746,0.00064638257,-0.00093078613,-9.1552734e-05,-0.00010681152,0.0002593994
0.010892699,-0.012214789,0.993852,0.2416687,-0.22013855,9.808182,4.0512085,-15.577698,-40.968323,0.2385615,-0.21470565,9.801396,6.2435865e-06,0.0015129298,0.0016241074,-3.0517578e-05,0.0,1.5258789e-05
0.0109174,-0.012217728,0.99384564,0.23449707,-0.21534729,9.789032,3.1570435,-16.16211,-39.237976,0.23906122,-0.2146965,9.801385,0.0006658733,0.00057016313,0.002524376,-0.00015258789,0.0,0.00019836426
0.010909966,-0.012169159,0.9938468,0.23449707,-0.21296692,9.800995,3.352356,-15.34729,-39.08081,0.23881118,-0.21376689,9.801411,-0.00096844137,0.0017713606,-0.001824379,3.0517578e-05,-0.00022888184,-0.00012207031
0.010873672,-0.012161238,0.99385613,0.23928833,-0.21296692,9.793823,3.9230347,-15.162659,-39.294434,0.2380695,-0.21370988,9.801431,-0.0021377653,0.0002696216,-0.0008945465,-3.0517578e-05,-0.00010681152,6.1035156e-05
0.010905509,-0.012196245,0.9938484,0.2416687,-0.21296692,9.800995,3.5934448,-15.557861,-38.154602,0.23877871,-0.21430849,9.801399,0.00052055717,-0.0008197576,-0.0009021759,-0.00015258789,-0.00022888184,0.00012207031
0.010873465,-0.012195098,0.9938567,0.23760986,-0.21511841,9.801956,3.1311035,-15.000916,-38.69934,0.23813608,-0.21437249,9.8014145,-0.0010038465,0.00044840574,0.0013132095,-3.0517578e-05,-4.5776367e-05,-0.00024414062
0.010882016,-0.012206141,0.9938547,0.23760986,-0.21440125,9.803635,3.6972046,-14.96582,-38.487244,0.23832999,-0.21456534,9.801405,-0.0004874617,-0.00029858947,0.0005674362,-0.00015258789,-0.00010681152,-6.1035156e-05
0.010867624,-0.012222963,0.9938587,0.23904419,-0.21511841,9.80101,3.2531738,-14.198303,-37.9364,0.23807755,-0.21493305,9.801404,-0.00048947334,-0.00016568601,0.0008611679,-0.00015258789,0.0,7.6293945e-05
0.010892128,-0.012239102,0.9938526,0.237854,-0.21440125,9.803635,2.810669,-15.103149,-37.8006,0.2386009,-0.21518257,9.801386,0.0004182756,0.00033086538,0.0002603531,-0.00021362305,-0.00022888184,0.0002593994
0.010886641,-0.012230897,0.99385387,0.23904419,-0.21440125,9.801712,2.557373,-15.333557,-38.3667,0.2384741,-0.21503693,9.801392,-0.0006430149,0.0009004921,-0.00013446808,-0.00015258789,-6.1035156e-05,0.0001373291
0.010895795,-0.012227019,0.9938514,0.23664856,-0.21440125,9.800278,3.1036377,-15.585327,-38.667297,0.23864894,-0.21493644,9.80139,0.00012749434,0.0008005947,6.9618225e-05,3.0517578e-05,-6.1035156e-05,7.6293945e-05
0.010877524,-0.012201972,0.9938558,0.23664856,-0.21272278,9.7986145,2.0202637,-16.381836,-39.237976,0.23823154,-0.21449596,9.80141,-0.0011103153,0.0008122176,-0.0018644333,-9.1552734e-05,6.1035156e-05,1.5258789e-05
0.0108426595,-0.012182255,0.9938646,0.23904419,-0.21606445,9.799332,2.1087646,-14.561462,-38.342285,0.23749375,-0.21420431,9.801434,-0.0012933761,0.0007419437,-0.002038002,-3.0517578e-05,-6.1035156e-05,0.00012207031
0.010860683,-0.012227233,0.9938606,0.23713684,-0.21343994,9.801956,3.5171509,-15.41748,-38.1958,0.23794775,-0.2150352,9.801404,0.00065645576,-0.0010591149,-0.00071144104,-0.00021362305,-6.1035156e-05,-0.00010681152
0.010864568,-0.012210422,0.9938593,0.2368927,-0.2163086,9.7986145,2.055359,-15.730286,-38.500977,0.23799032,-0.21469608,9.801412,-0.00011841953,0.0012400001,0.0012817383,-0.00015258789,6.1035156e-05,-6.1035156e-05
0.010847562,-0.012246084,0.99386436,0.237854,-0.21463013,9.800278,3.2089233,-15.374756,-36.891174,0.23772487,-0.21543913,9.8014,-8.8363886e-05,-0.00089360774,-0.0007419586,-0.00015258789,0.00018310547,-0.00012207031
0.010835056,-0.012241162,0.9938675,0.237854,-0.2163086,9.797653,2.055359,-15.882874,-37.55188,0.2374647,-0.21537654,9.801408,-6.8202615e-05,0.00047436357,-0.00033283234,3.0517578e-05,-0.00010681152,0.00018310547
0.010847106,-0.012270481,0.99386483,0.23928833,-0.21487427,9.802429,2.067566,-15.589905,-37.794495,0.23776668,-0.2159174,9.80139,0.00036290288,-0.00090664625,-0.0013380051,-0.00015258789,6.1035156e-05,6.1035156e-05
0.010866305,-0.012249133,0.99385947,0.23904419,-0.2131958,9.801483,2.772522,-15.979004,-37.75177,0.23810583,-0.21544829,9.801393,0.0009650439,0.0012670457,0.0016622543,3.0517578e-05,0.00012207031,6.1035156e-05
0.010881015,-0.012218871,0.9938552,0.23713684,-0.21368408,9.801239,2.128601,-15.948486,-37.945557,0.23833658,-0.21481696,9.8014,0.00047887862,0.0011190027,0.00094509125,-9.1552734e-05,-0.00016784668,-0.00018310547
0.010869489,-0.012207521,0.993858,0.23664856,-0.21607971,9.801956,1.5640259,-15.985107,-37.928772,0.23808259,-0.21462609,9.801411,-0.0009357333,0.0009329617,0.00048542023,3.0517578e-05,6.1035156e-05,-6.1035156e-05
0.01084479,-0.01221466,0.99386454,0.23904419,-0.21272278,9.802444,2.1530151,-15.362549,-38.204956,0.23760395,-0.21483217,9.801417,-0.00046285987,-0.00076311827,0.00047016144,-3.0517578e-05,-0.00010681152,0.00019836426
0.010883731,-0.012210556,0.9938543,0.23713684,-0.2163086,9.800049,3.2546997,-15.869141,-38.352966,0.23837349,-0.21464707,9.801403,0.00067289174,0.00073210895,0.0001707077,-0.00021362305,-0.00010681152,1.5258789e-05
0.010864499,-0.012221753,0.9938595,0.23928833,-0.21343994,9.801727,3.0014038,-16.178894,-38.48114,0.23801258,-0.2149178,9.801406,-0.0011225939,0.00027485192,0.0004386902,-9.1552734e-05,-0.00010681152,7.6293945e-05
0.010893299,-0.012219347,0.99385196,0.2368927,-0.21751404,9.800278,2.532959,-15.9210205,-37.956238,0.23858304,-0.21479315,9.801394,0.0007123351,0.00038555264,-0.00081157684,3.0517578e-05,0.0,-6.1035156e-05
0.010850167,-0.012253881,0.9938638,0.23641968,-0.21391296,9.7986145,3.465271,-16.433716,-39.08081,0.23779319,-0.21558456,9.801395,-0.0016020238,-0.0014553666,-0.000702858,3.0517578e-05,-0.00010681152,1.5258789e-05
0.010831124,-0.01222174,0.99386823,0.23641968,-0.21536255,9.800278,2.885437,-15.167236,-38.1958,0.23734562,-0.21500736,9.801419,-0.0011443049,0.00082691014,-0.0007944107,3.0517578e-05,-6.1035156e-05,-0.00018310547
0.010827309,-0.012229508,0.99386936,0.237854,-0.2141571,9.800049,3.2028198,-15.216064,-38.671875,0.23728563,-0.21516953,9.801418,-0.00036652386,-0.00021699071,-4.863739e-05,-9.1552734e-05,0.0,1.5258789e-05
0.010845849,-0.012225258,0.9938645,0.237854,-0.2131958,9.800995,2.7786255,-15.527344,-39.471436,0.23764722,-0.21503654,9.801412,0.0007084459,0.0006093979,-0.0001821518,-9.1552734e-05,-6.1035156e-05,1.5258789e-05
0.010855014,-0.012197543,0.9938616,0.23857117,-0.21751404,9.801483,3.4606934,-16.583252,-38.809204,0.23777251,-0.21446995,9.80142,-0.0001398474,0.0012536049,0.00051403046,-3.0517578e-05,-6.1035156e-05,0.0001373291
0.010869848,-0.012257467,0.9938587,0.23904419,-0.21511841,9.801483,2.8045654,-15.097046,-38.630676,0.23819397,-0.21560167,9.801385,0.0011062622,-0.0019231439,0.000831604,-0.0002746582,-6.1035156e-05,7.6293945e-05
0.010878065,-0.012264514,0.99385667,0.23880005,-0.21463013,9.801956,2.786255,-15.687561,-37.69226,0.2383729,-0.21571735,9.801379,-3.6641955e-05,0.00083473325,0.00023937225,-9.1552734e-05,-0.00022888184,0.0002593994
0.010899414,-0.012263271,0.99385107,0.23857117,-0.21606445,9.8029175,2.6504517,-14.959717,-38.746643,0.23879696,-0.21563548,9.801371,2.6077032e-06,0.0005175024,0.0008096695,-9.1552734e-05,-0.00016784668,0.00019836426
0.010900353,-0.012276551,0.99385107,0.23736572,-0.21559143,9.801239,3.4545898,-15.206909,-37.319946,0.23884346,-0.21589261,9.801364,-0.00052531064,-0.00016380847,0.00069999695,-9.1552734e-05,-6.1035156e-05,-6.1035156e-05
0.010899657,-0.012273083,0.9938512,0.23808289,-0.21368408,9.803879,1.4175415,-15.705872,-37.716675,0.23882231,-0.21582669,9.801366,-0.000747934,0.00048708916,-2.861023e-06,-0.00021362305,-6.1035156e-05,1.5258789e-05
0.010885498,-0.012248186,0.99385446,0.24119568,-0.21487427,9.800766,1.8234253,-15.454102,-38.43689,0.23848736,-0.21537806,9.801384,-0.0006490499,0.001479283,0.00064373016,-0.00021362305,6.1035156e-05,-0.00012207031
0.010918873,-0.01224999,0.99384576,0.2400055,-0.21487427,9.801727,3.1967163,-15.515137,-37.67395,0.23915808,-0.21532333,9.801369,0.001785636,0.00070023537,-0.0006790161,-3.0517578e-05,0.0,-0.00010681152
0.01092403,-0.012252044,0.99384445,0.23832703,-0.21678162,9.8029175,2.8945923,-15.023804,-37.78839,0.2392654,-0.21534954,9.801365,0.0004722923,0.0004965812,0.0012998581,-9.1552734e-05,-6.1035156e-05,-0.00012207031
0.010925667,-0.012265849,0.9938443,0.23976135,-0.2163086,9.8022,2.1469116,-15.432739,-38.446045,0.23932695,-0.21561505,9.801357,-0.0003054142,-0.00042898953,-8.4877014e-05,-0.00015258789,0.0,7.6293945e-05
0.010932119,-0.012309387,0.99384326,0.23857117,-0.21440125,9.803162,3.3706665,-15.136719,-37.982178,0.23954687,-0.21644893,9.801334,0.00019992888,-0.0010519475,-0.0006914139,-0.00015258789,-0.00035095215,0.0001373291
0.010940155,-0.012289768,0.9938409,0.23832703,-0.2141571,9.798126,2.5436401,-15.777588,-37.626648,0.23966646,-0.21604364,9.80134,-0.0011056811,0.001651749,-0.00028133392,-9.1552734e-05,-0.00016784668,7.6293945e-05
0.010917506,-0.012248972,0.9938461,0.24023438,-0.21343994,9.801483,2.7145386,-15.32135,-38.74817,0.23912862,-0.2153071,9.80137,-0.0015142858,0.0018631518,-0.0011377335,-0.00021362305,-0.00022888184,7.6293945e-05
0.010971766,-0.012234448,0.9938317,0.23928833,-0.21702576,9.799805,2.1591187,-15.2908325,-37.812805,0.23971154,-0.21580084,9.801345,0.00077308714,0.0014330447,5.054474e-05,3.0517578e-05,-0.00022888184,-0.00012207031
0.010924934,-0.012292481,0.99384487,0.23736572,-0.21655273,9.804825,3.501892,-14.111328,-37.47711,0.23936796,-0.21613777,9.801346,-0.0010596961,-0.00039802492,0.0024824142,-0.00015258789,-0.00010681152,-0.00012207031
0.010923035,-0.01231696,0.99384576,0.23857117,-0.21607971,9.799805,3.0853271,-16.099548,-38.39264,0.23938116,-0.21662153,9.801335,-0.0008391738,-0.00062197447,0.0008611679,-3.0517578e-05,-6.1035156e-05,0.0002593994
0.010915557,-0.012305667,0.99384755,0.23951721,-0.21272278,9.8022,1.5258789,-15.040588,-37.963867,0.2392081,-0.21642087,9.801343,-0.00040513277,0.0005826801,-0.002609253,-9.1552734e-05,6.1035156e-05,-0.00012207031
0.010917794,-0.012252666,0.9938461,0.23928833,-0.21559143,9.802444,3.3462524,-15.79895,-37.361145,0.23914212,-0.21537857,9.801369,0.0001359731,0.0024208575,0.0011301041,3.0517578e-05,-0.00016784668,0.0001373291
0.010926052,-0.012255065,0.993844,0.23832703,-0.21296692,9.800766,2.2827148,-16.082764,-38.130188,0.23931211,-0.21540317,9.801363,-0.00028538704,-0.00017254055,0.0005950928,-3.0517578e-05,6.1035156e-05,-4.5776367e-05
0.010917319,-0.012222856,0.9938457,0.23951721,-0.2172699,9.80101,2.923584,-16.11023,-38.313293,0.23907031,-0.21479696,9.801382,-0.00050345063,0.0013608932,-0.001036644,-3.0517578e-05,-0.00010681152,0.00032043457
0.010925675,-0.012276602,0.99384445,0.23880005,-0.21440125,9.801712,3.4103394,-15.852356,-39.26239,0.23934957,-0.21582529,9.8013525,0.00016336143,-0.0016848892,-4.4822693e-05,3.0517578e-05,-0.00016784668,1.5258789e-05
0.010924486,-0.012225948,0.9938439,0.23928833,-0.21559143,9.800995,2.87323,-15.460205,-38.02643,0.23921998,-0.21483809,9.801377,-0.00089626014,0.0014011264,-2.9563904e-05,3.0517578e-05,-0.00010681152,0.00019836426
0.010935555,-0.012247194,0.99384135,0.237854,-0.21534729,9.799332,2.6229858,-15.69519,-38.215637,0.23948555,-0.2152236,9.801362,0.00028410554,-0.0006194562,-0.0009737015,-3.0517578e-05,-0.00016784668,0.00019836426
0.010927462,-0.0122426385,0.9938434,0.23664856,-0.21296692,9.801239,1.3336182,-15.632629,-38.45215,0.23931433,-0.2151564,9.801369,-0.0012187064,0.0005148053,-0.00032424927,-3.0517578e-05,-6.1035156e-05,7.6293945e-05
0.010883124,-0.012206056,0.9938544,0.23713684,-0.21296692,9.797653,2.6382446,-15.405273,-37.78076,0.23835197,-0.21456072,9.801406,-0.0019161254,0.0008620769,-0.00021839142,0.0002746582,-0.00010681152,0.00018310547
0.01087465,-0.01217311,0.9938561,0.23880005,-0.2172699,9.799805,3.6376953,-14.836121,-36.64856,0.23811384,-0.21393934,9.801424,-0.0011775345,0.000704363,-0.0022201538,-3.0517578e-05,-6.1035156e-05,7.6293945e-05
0.01088448,-0.012225533,0.99385434,0.237854,-0.2131958,9.801712,2.5131226,-14.842224,-36.45172,0.23841973,-0.21493787,9.801395,0.00041227043,-0.0018878132,0.0009126663,-0.00015258789,-0.00016784668,0.0002593994
0.0109026525,-0.012217525,0.99384946,0.24072266,-0.21583557,9.800766,2.3895264,-15.41748,-38.22632,0.2387661,-0.21473229,9.801391,-0.00016437471,0.0010207146,0.00014209747,-3.0517578e-05,-0.00010681152,1.5258789e-05
0.010924917,-0.01223713,0.993844,0.23928833,-0.21272278,9.799805,2.6031494,-14.31427,-37.860107,0.23925197,-0.21505556,9.801373,0.0009996444,-0.00055137277,0.0010614395,-3.0517578e-05,-0.00010681152,7.6293945e-05
0.01093911,-0.012214035,0.99383986,0.23641968,-0.2163086,9.802444,3.277588,-15.281677,-38.989258,0.23948726,-0.21456565,9.801376,-0.00042037666,0.0015784204,-0.00039958954,-0.00033569336,-0.00016784668,7.6293945e-05
0.010891678,-0.012251385,0.9938529,0.23927307,-0.21343994,9.798843,2.8503418,-15.9713745,-38.282776,0.23861754,-0.21542394,9.80138,-0.0017124265,-0.0011399984,0.0008573532,-3.0517578e-05,-0.00010681152,-6.1035156e-05
0.01091367,-0.012219327,0.99384665,0.23617554,-0.2141571,9.800522,3.0914307,-15.878296,-38.57422,0.23899004,-0.21473782,9.801386,-0.00016272068,0.0015175194,-0.0011796951,-3.0517578e-05,-0.00016784668,0.00019836426
0.010883686,-0.0122039765,0.9938542,0.23857117,-0.2141571,9.799088,3.138733,-14.781189,-38.806152,0.23835886,-0.21451853,9.801406,-0.001678735,0.0008060485,-0.00030231476,-0.00021362305,-0.00022888184,-0.00012207031
0.010892799,-0.012217715,0.9938521,0.23808289,-0.2141571,9.800766,3.4881592,-15.922546,-39.053345,0.23856963,-0.2147626,9.801395,-0.00045643747,0.00033408403,0.00012683868,-3.0517578e-05,6.1035156e-05,0.0001373291
0.01088685,-0.012200672,0.99385333,0.237854,-0.21536255,9.801239,2.482605,-15.193176,-38.183594,0.23841517,-0.21444538,9.801406,-6.2674284e-05,0.0005095005,0.00040721893,3.0517578e-05,-6.1035156e-05,0.0
0.010875122,-0.012224716,0.9938568,0.23832703,-0.21511841,9.801727,2.5283813,-15.916443,-38.48419,0.23823103,-0.21494713,9.8014,-0.00035883486,-0.0009048432,0.0005874634,-9.1552734e-05,0.0,7.6293945e-05
0.010886431,-0.012239769,0.9938541,0.23832703,-0.21606445,9.802673,3.831482,-15.692139,-37.81128,0.23848844,-0.21521097,9.801388,0.00032289326,-0.0001617372,0.00055885315,-0.00015258789,-0.00016784668,0.0001373291
0.010876551,-0.012254616,0.9938569,0.23760986,-0.21272278,9.800049,3.2302856,-15.0894165,-35.850525,0.238322,-0.21552789,9.801385,-0.0007149577,-0.00030511618,0.0011720657,-3.0517578e-05,0.00012207031,7.6293945e-05
0.010861031,-0.012215682,0.9938603,0.23760986,-0.21463013,9.79837,2.229309,-15.582275,-37.420654,0.2379306,-0.21480843,9.80141,-0.0005553365,0.0018329024,-0.00096797943,-9.1552734e-05,-0.000289917,0.0001373291
0.010891607,-0.0122122485,0.99385226,0.23736572,-0.21343994,9.800995,2.8121948,-15.026855,-38.087463,0.2385344,-0.21465893,9.801399,-0.0004184395,0.0004720539,-0.0019130707,-3.0517578e-05,-0.00010681152,0.00019836426
0.01087032,-0.012190947,0.9938575,0.23760986,-0.21247864,9.800766,2.3773193,-15.634155,-38.64746,0.23806459,-0.2142998,9.801418,-0.0011460185,0.0010807067,0.0006418228,-9.1552734e-05,-0.00022888184,0.0
0.010883621,-0.012175874,0.99385375,0.23545837,-0.21296692,9.800766,2.697754,-15.760803,-38.459778,0.23829886,-0.21396922,9.801419,-0.00042200089,0.0012259185,0.00028705597,-0.00021362305,-6.1035156e-05,-0.00012207031
0.010821694,-0.012168553,0.99386984,0.23640442,-0.21559143,9.798126,1.8936157,-15.740967,-38.42163,0.23704626,-0.2139928,9.801449,-0.0022798777,0.00077429414,-0.00013065338,-0.00021362305,6.1035156e-05,7.6293945e-05
0.010816125,-0.012206329,0.9938719,0.23808289,-0.21368408,9.800049,2.8823853,-15.2404785,-38.285828,0.23701379,-0.21474642,9.801434,-8.173287e-05,-0.0008806884,-0.0011911392,-0.00015258789,0.0,6.1035156e-05
0.010842962,-0.012198416,0.9938648,0.23664856,-0.2141571,9.799561,1.914978,-15.229797,-38.47046,0.23753352,-0.21451949,9.801426,0.0008250773,0.00056275725,0.0006427765,-9.1552734e-05,-0.00010681152,-0.00016784668
0.010837234,-0.012201714,0.9938663,0.23736572,-0.21534729,9.801712,3.060913,-14.788818,-38.65509,0.23742595,-0.2145994,9.801427,-0.0004931241,0.00065015256,-0.0006828308,-3.0517578e-05,-0.00010681152,-6.1035156e-05
0.0108394595,-0.012200531,0.9938657,0.2368927,-0.21487427,9.801483,1.8981934,-15.745544,-37.81891,0.23837367,-0.2139984,9.801416,0.0011704862,0.00149557,-3.1471252e-05,-9.1552734e-05,-6.1035156e-05,1.5258789e-05
0.010860988,-0.012187057,0.9938599,0.23664856,-0.2131958,9.8033905,1.4068604,-15.99884,-37.397766,0.23787001,-0.21424888,9.801424,-0.00096544623,8.109212e-05,0.0012655258,-0.00015258789,-6.1035156e-05,0.00019836426
0.010860551,-0.012182892,0.9938599,0.23928833,-0.21391296,9.798843,1.9622803,-15.95459,-38.545227,0.23785256,-0.2141686,9.801425,-6.109476e-07,0.0007304996,0.0011634827,-0.00021362305,6.1035156e-05,1.5258789e-05
0.010878343,-0.012200073,0.99385554,0.23570251,-0.21224976,9.8029175,2.885437,-15.24353,-37.908936,0.23824395,-0.21445662,9.801411,0.0003426671,0.00028561056,-0.0014429092,-3.0517578e-05,-6.1035156e-05,0.0001373291
0.010836928,-0.0121463,0.9938655,0.23736572,-0.21440125,9.801712,2.5863647,-14.830017,-37.208557,0.23730423,-0.21351673,9.801454,-0.0018429011,0.0017526001,0.0011129379,-9.1552734e-05,-0.00016784668,0.00019836426
0.010849679,-0.012168694,0.9938625,0.2359314,-0.21463013,9.79837,2.0584106,-15.731812,-38.20038,0.23760569,-0.21392027,9.801436,-0.00024805963,-0.00070257485,0.0009031296,3.0517578e-05,-0.00016784668,-0.00024414062
0.010826616,-0.012180795,0.99386877,0.23713684,-0.21559143,9.801956,3.302002,-14.923096,-37.78534,0.23717014,-0.21421894,9.801441,-0.0009673983,-0.0006799102,-0.002907753,-0.00015258789,0.0,-0.00018310547
0.010827578,-0.012229819,0.9938693,0.237854,-0.21678162,9.8033905,2.8701782,-15.457153,-38.479614,0.23729162,-0.21517488,9.801417,-0.00038717687,-0.00090022385,0.0012683868,3.0517578e-05,-0.000289917,1.5258789e-05
0.010863398,-0.012255714,0.99386036,0.24095154,-0.21391296,9.803635,2.003479,-15.078735,-38.3667,0.23806146,-0.21558478,9.80139,0.0007279813,-0.0009583533,0.0018081665,-3.0517578e-05,-6.1035156e-05,1.5258789e-05
0.010897727,-0.012233198,0.993851,0.23904419,-0.21368408,9.800766,3.6575317,-15.994263,-37.942505,0.23870045,-0.21505205,9.801387,0.0012854636,0.0011567324,0.0007276535,-0.00021362305,6.1035156e-05,-0.00012207031
0.010912553,-0.012226304,0.993847,0.24023438,-0.21606445,9.8029175,2.0080566,-15.005493,-38.2782,0.2389823,-0.21487725,9.801383,0.00077302754,0.0011985749,-0.0011081696,-9.1552734e-05,0.00012207031,7.6293945e-05
0.010929909,-0.012254229,0.99384296,0.23736572,-0.21440125,9.800278,2.7786255,-15.985107,-36.997986,0.23938745,-0.21537642,9.801362,0.0010701269,-0.0009133369,0.0011720657,-3.0517578e-05,-0.00010681152,-6.1035156e-05
0.010894864,-0.012235201,0.9938518,0.23664856,-0.21368408,9.799332,3.6148071,-15.12146,-37.687683,0.2386474,-0.2150989,9.801386,-0.0017573088,0.00069999695,-0.0014438629,-3.0517578e-05,-0.000289917,-0.00012207031
0.010894763,-0.012217501,0.99385154,0.23783875,-0.21678162,9.800995,3.8497925,-15.403748,-36.997986,0.23860843,-0.2147531,9.801394,-0.0017040521,0.0010585189,-0.0011100769,-0.00021362305,-0.00010681152,1.5258789e-05
0.010872848,-0.012263187,0.99385804,0.23760986,-0.21487427,9.799805,2.31781,-15.354919,-37.831116,0.2382659,-0.21570544,9.801382,-0.00089520216,-0.0010806769,0.0005493164,-3.0517578e-05,6.1035156e-05,0.0001373291
0.0108521,-0.012253778,0.9938633,0.23760986,-0.21368408,9.800522,2.2903442,-15.861511,-38.386536,0.23783162,-0.21557733,9.801394,-0.00043603778,0.00043186545,-0.002038002,-9.1552734e-05,-0.00010681152,0.00019836426
0.010874613,-0.012218397,0.99385685,0.23641968,-0.2141571,9.8022,2.1255493,-16.021729,-37.960815,0.23820768,-0.21482494,9.801403,0.00013707578,0.001842022,0.001039505,-3.0517578e-05,-0.00016784668,-6.1035156e-05
0.010863561,-0.012210646,0.9938596,0.237854,-0.21655273,9.803635,3.1814575,-15.957642,-37.234497,0.23797065,-0.21470316,9.801412,-0.0010818988,7.659197e-05,0.0018167496,3.0517578e-05,1.5258789e-05,6.1035156e-05
0.01085811,-0.0122314105,0.9938614,0.23640442,-0.21534729,9.80101,2.355957,-16.300964,-37.573242,0.23790506,-0.21512382,9.801403,-0.00029855967,-0.0007087141,-5.8174133e-05,-9.1552734e-05,0.0,-6.1035156e-05
0.010804464,-0.012238065,0.99387544,0.23713684,-0.21536255,9.800522,2.2216797,-15.87677,-36.802673,0.23684692,-0.21539827,9.801423,-0.0018792003,-0.00019100308,-3.8146973e-05,-9.1552734e-05,-6.1035156e-05,0.0002593994
0.010823307,-0.01225487,0.9938708,0.23713684,-0.21559143,9.79837,2.218628,-15.72113,-38.204956,0.2372585,-0.21567617,9.801407,0.00082974136,-0.0001642555,-0.0006637573,-9.1552734e-05,-0.00016784668,0.0001373291
0.010832566,-0.012262058,0.9938685,0.23736572,-0.21774292,9.802444,1.8997192,-15.748596,-37.44049,0.23745854,-0.21579184,9.8014,-0.0005377084,-6.93053e-05,-0.001868248,-0.00021362305,0.0,1.5258789e-05
0.010815453,-0.012294434,0.99387354,0.23808289,-0.21296692,9.801727,2.770996,-15.901184,-38.414,0.23718402,-0.21647087,9.801391,-0.00027911365,-0.00033715367,0.0013132095,3.0517578e-05,6.1035156e-05,-6.1035156e-05
0.010851402,-0.012249438,0.9938634,0.23904419,-0.21487427,9.799805,2.2094727,-16.018677,-37.58545,0.23780864,-0.21549438,9.801398,0.0012430549,0.0015745908,0.00039482117,-3.0517578e-05,-0.00010681152,-6.1035156e-05
0.010872231,-0.012222592,0.9938575,0.23976135,-0.21440125,9.801483,2.2644043,-14.77356,-37.63733,0.23816884,-0.21491337,9.801402,-6.0871243e-05,0.00073362887,-0.0010375977,3.0517578e-05,-0.00022888184,0.00019836426
0.010908523,-0.012229261,0.99384815,0.2349701,-0.21463013,9.801239,1.2329102,-16.075134,-38.61389,0.23890793,-0.21494593,9.801383,0.00039425492,-0.00018496811,0.00091362,-9.1552734e-05,-0.00022888184,7.6293945e-05
0.010856357,-0.0122479135,0.9938621,0.2368927,-0.2163086,9.800766,2.8778076,-15.312195,-38.450623,0.23790447,-0.21545123,9.801396,-0.002425611,-0.0004029125,-0.00050258636,-9.1552734e-05,-6.1035156e-05,0.0001373291
0.0108392285,-0.012237501,0.9938664,0.24023438,-0.21368408,9.801956,3.1158447,-15.672302,-36.94763,0.23754044,-0.21529374,9.801408,-0.0011111945,0.00065495074,0.0009422302,-9.1552734e-05,-0.00016784668,-6.1035156e-05
0.010891527,-0.012231139,0.9938526,0.23449707,-0.21606445,9.799805,2.8411865,-16.038513,-39.050293,0.23857224,-0.21502848,9.80139,0.0014349371,0.0008698553,0.00063610077,-9.1552734e-05,-0.00016784668,1.5258789e-05
0.01084472,-0.012248643,0.99386513,0.23832703,-0.21247864,9.802444,1.6357422,-16.047668,-38.77716,0.23767343,-0.21549681,9.801401,-0.0024525672,-0.0005736649,-0.00036144257,-9.1552734e-05,-0.00022888184,7.6293945e-05
0.010855246,-0.01220067,0.9938616,0.23855591,-0.21391296,9.801712,3.2531738,-15.867615,-38.653564,0.23778367,-0.21453048,9.801419,-0.00041553378,0.0022785664,0.00040721893,-9.1552734e-05,-6.1035156e-05,7.6293945e-05
0.010905228,-0.012215157,0.99384874,0.23736572,-0.21463013,9.798843,3.0807495,-16.171265,-38.710022,0.23881261,-0.21467905,9.801391,0.0014204979,5.00679e-05,0.00026893616,-3.0517578e-05,-0.00010681152,-0.00018310547
0.010872563,-0.012192311,0.9938569,0.23880005,-0.2141571,9.800766,2.922058,-14.51416,-37.38556,0.23811226,-0.2143204,9.801416,-0.0014452636,0.0008638799,-0.0015697479,-0.00015258789,0.0,0.0001373291
0.010887485,-0.01219806,0.99385315,0.23928833,-0.21440125,9.801239,3.3843994,-14.997864,-37.046814,0.2384224,-0.21439259,9.801407,0.00039322674,-2.2649765e-05,0.00022792816,-3.0517578e-05,0.0,-6.1035156e-05
0.010891834,-0.012217294,0.9938523,0.24047852,-0.21463013,9.802444,3.753662,-15.621948,-38.020325,0.23854949,-0.21475697,9.801396,0.00026598573,-0.00013117492,3.8146973e-06,-0.00015258789,-0.00022888184,0.00012207031
0.010952023,-0.012241452,0.99383694,0.23857117,-0.21487427,9.798843,3.2730103,-15.582275,-37.76703,0.23980261,-0.21506687,9.801358,0.0018844306,-5.429983e-05,0.00096797943,-9.1552734e-05,6.1035156e-05,7.6293945e-05
0.010910362,-0.01226009,0.99384815,0.23951721,-0.21655273,9.800995,3.6239624,-14.978027,-37.43286,0.23900907,-0.21554375,9.801367,-0.0016186684,-0.00031410158,-0.0017404556,-0.00015258789,0.0,1.5258789e-05
0.010922748,-0.012260123,0.9938449,0.23976135,-0.21440125,9.801956,2.5375366,-15.774536,-38.154602,0.23925667,-0.215511,9.801362,0.00051625073,0.00015327334,0.0010681152,-9.1552734e-05,-0.00010681152,-6.1035156e-05
0.010936086,-0.012248618,0.99384123,0.23880005,-0.21583557,9.803635,3.4301758,-15.565491,-38.450623,0.23949915,-0.21525003,9.801362,0.00050735474,0.0010920316,0.0008792877,-3.0517578e-05,1.5258789e-05,-0.00012207031
0.01092583,-0.012257755,0.9938441,0.23976135,-0.21559143,9.802429,3.17688,-15.800476,-38.56201,0.23931329,-0.21545634,9.801361,-0.00076186657,-0.0005903393,0.0017080307,-3.0517578e-05,-0.00016784668,1.5258789e-05
0.010916695,-0.012260873,0.99384654,0.2359314,-0.21440125,9.801483,2.519226,-14.619446,-36.784363,0.23913726,-0.21554197,9.801364,-0.0005800724,0.00020727515,-0.00045394897,-9.1552734e-05,0.00012207031,6.1035156e-05
0.010882403,-0.012234584,0.99385506,0.23880005,-0.21583557,9.801239,2.7877808,-15.538025,-38.34076,0.23839712,-0.21512043,9.801392,-0.0010370463,0.0011973232,-0.00062942505,-0.00015258789,-6.1035156e-05,-0.00012207031
0.010888353,-0.012265824,0.993854,0.237854,-0.21606445,9.801483,2.496338,-14.901733,-38.198853,0.23858126,-0.21571521,9.801374,-0.00050504506,-0.0008314848,7.8201294e-05,-9.1552734e-05,-0.00010681152,0.0001373291
0.010887861,-0.012265602,0.99385417,0.237854,-0.21559143,9.801727,3.9123535,-15.608215,-38.09967,0.23857096,-0.2157122,9.801374,0.0002219528,0.0006002337,4.4822693e-05,-9.1552734e-05,0.00012207031,-6.1035156e-05
0.010857771,-0.012285596,0.99386233,0.23783875,-0.21487427,9.803162,2.6412964,-15.257263,-38.2782,0.23801136,-0.21618421,9.801378,-0.00088201463,-0.0005905926,4.1007996e-05,-0.0002746582,0.0,7.6293945e-05
0.010866861,-0.012269834,0.9938597,0.2400055,-0.21487427,9.800522,2.885437,-15.090942,-38.708496,0.23816013,-0.21585155,9.801382,-9.2342496e-05,0.0019522607,0.00067043304,-9.1552734e-05,-0.000289917,0.0002593994
0.010932776,-0.012265407,0.99384236,0.23904419,-0.21368408,9.800049,3.338623,-15.791321,-38.415527,0.23946811,-0.21558723,9.801355,0.0014857054,0.00046677887,-0.0014572144,-3.0517578e-05,-0.00022888184,0.00032043457
0.010922703,-0.012242484,0.9938446,0.23760986,-0.21463013,9.8022,2.609253,-15.988159,-38.198853,0.2392189,-0.21516621,9.801371,-0.0008850843,0.0010030121,-0.00032615662,-9.1552734e-05,-0.00010681152,0.0002593994
0.0109365815,-0.012243451,0.99384105,0.23736572,-0.21534729,9.801727,2.8808594,-15.162659,-38.87329,0.23949827,-0.21514767,9.801365,0.0009509027,0.00029976666,0.0012979507,-9.1552734e-05,-0.00016784668,0.00019836426
0.010891554,-0.012246997,0.99385285,0.23880005,-0.2163086,9.803162,2.5115967,-16.204834,-39.222717,0.23860589,-0.21533847,9.801381,-0.0017331988,-0.0002348721,-0.0007209778,-3.0517578e-05,0.00018310547,0.00019836426
0.010874148,-0.0122465985,0.9938574,0.23832703,-0.21534729,9.800049,2.7893066,-15.538025,-38.191223,0.23825726,-0.2153776,9.80139,-0.00042888522,5.3480268e-05,0.00047397614,-3.0517578e-05,-6.1035156e-05,0.0001373291
0.010885703,-0.012262303,0.99385464,0.237854,-0.21655273,9.802444,2.0126343,-15.010071,-37.750244,0.23852094,-0.21565351,9.801376,0.0002667904,-0.0006439388,-0.0011167526,-3.0517578e-05,6.1035156e-05,-0.00018310547
0.010868483,-0.012280892,0.99385947,0.23857117,-0.21655273,9.8022,3.1539917,-14.794922,-36.923218,0.2382156,-0.21606335,9.801374,-0.0006186217,-0.00047768652,5.1498413e-05,0.00021362305,-6.1035156e-05,1.5258789e-05
0.010882455,-0.012272342,0.99385566,0.23832703,-0.21487427,9.804825,1.9454956,-16.471863,-37.893677,0.23847698,-0.21585856,9.8013735,0.00054596364,-0.00018666685,0.00067043304,-0.00015258789,-6.1035156e-05,0.00019836426
0.010887468,-0.012265425,0.9938542,0.23760986,-0.21511841,9.8029175,3.3538818,-15.501404,-38.05542,0.23856273,-0.2157098,9.801374,0.00020293891,0.00086663663,0.0010919571,-0.00021362305,-6.1035156e-05,1.5258789e-05
0.010877007,-0.012271508,0.9938571,0.23928833,-0.2172699,9.8033905,2.496338,-14.903259,-37.89673,0.23836637,-0.21585694,9.801376,-0.000791654,0.0005414635,9.6321106e-05,-0.00015258789,-6.1035156e-05,0.0001373291
0.010890097,-0.012310348,0.9938543,0.23545837,-0.21534729,9.801727,3.0517578,-15.086365,-38.035583,0.23870905,-0.21658108,9.801352,0.00028903782,-0.001120016,0.00086307526,-9.1552734e-05,-0.00016784668,-0.00018310547
0.010838583,-0.012272038,0.9938671,0.23928833,-0.2172699,9.801727,2.798462,-15.394592,-37.634277,0.2375996,-0.21597077,9.801393,-0.0028908402,0.0015990436,-0.001004219,-3.0517578e-05,-6.1035156e-05,7.6293945e-05
0.010874987,-0.012305512,0.99385816,0.23857117,-0.21798706,9.801956,2.2598267,-14.770508,-38.24005,0.23839697,-0.21652725,9.801361,0.0013431907,-0.0009675324,-0.000992775,3.0517578e-05,-0.00022888184,0.0
0.010889252,-0.012333939,0.9938549,0.24023438,-0.21391296,9.8022,3.7322998,-16.133118,-37.97455,0.2387414,-0.21704462,9.801341,3.735721e-05,-0.00092309713,-1.4305115e-05,-3.0517578e-05,-6.1035156e-05,1.5258789e-05
0.010924032,-0.0122753745,0.99384487,0.23928833,-0.21702576,9.804825,2.0690918,-15.589905,-37.56714,0.2393142,-0.21580572,9.801354,0.00090514123,0.002379328,-0.0004863739,-3.0517578e-05,-0.00010681152,0.00032043457
0.010915146,-0.01232435,0.99384797,0.23857117,-0.21679688,9.8022,2.7069092,-15.466309,-38.77716,0.2392389,-0.2167873,9.801334,-0.0004813373,-0.0011612624,0.0022382736,-0.00021362305,-0.00016784668,0.00019836426
0.010935739,-0.012309294,0.99384236,0.24023438,-0.21534729,9.799332,2.7053833,-15.235901,-40.39154,0.239619,-0.21643734,9.801332,-0.00036211312,0.00038601458,-0.0008916855,0.0002746582,-0.000289917,0.00032043457
0.010946537,-0.012299489,0.9938393,0.23832703,-0.21463013,9.803635,3.4988403,-15.322876,-41.046143,0.23981433,-0.21621646,9.801332,-5.760789e-05,0.00015617907,-0.00219059,-9.1552734e-05,0.0,-6.1035156e-05
0.010939836,-0.012260457,0.99384046,0.23712158,-0.21511841,9.79837,3.1707764,-15.794373,-39.466858,0.23959883,-0.21547137,9.801354,-0.00081798434,0.0015756637,0.001250267,-9.1552734e-05,-0.00022888184,-0.00012207031
0.010910421,-0.012260945,0.99384815,0.23808289,-0.21511841,9.800995,2.7618408,-16.117859,-38.534546,0.23901205,-0.2155603,9.801367,-0.0018862635,0.00043809414,-0.0018625259,-3.0517578e-05,-0.00010681152,1.5258789e-05
0.010909537,-0.012264329,0.99384844,0.23736572,-0.21606445,9.799561,3.0532837,-16.679382,-39.266968,0.23900145,-0.21562888,9.801366,-0.0009049177,-0.00021900237,-0.0007572174,-3.0517578e-05,-6.1035156e-05,0.00019836426
0.010882372,-0.012270905,0.99385566,0.24095154,-0.21559143,9.799805,3.918457,-15.310669,-39.0213,0.23847234,-0.2158307,9.801374,-0.00083854795,-2.6538968e-05,-0.00082969666,-9.1552734e-05,0.0,1.5258789e-05
0.010914744,-0.01228185,0.99384737,0.23641968,-0.21702576,9.800522,3.0807495,-16.096497,-38.920593,0.23914212,-0.2159574,9.801355,0.0011128038,-0.00014084578,0.0002527237,-9.1552734e-05,0.0,-6.1035156e-05
0.01087352,-0.01228907,0.9938583,0.23976135,-0.21511841,9.8022,3.1951904,-15.361023,-38.700867,0.23833333,-0.2162097,9.801369,-0.0011660755,0.00010238588,-0.0007867813,3.0517578e-05,-6.1035156e-05,0.00012207031
0.010892792,-0.0122748045,0.993853,0.23640442,-0.2131958,9.800522,1.9760132,-15.661621,-38.78784,0.23868869,-0.21587884,9.801368,-0.0001116544,0.0005109906,0.002035141,-3.0517578e-05,-0.00022888184,-0.00012207031
0.010873776,-0.012236513,0.9938573,0.23641968,-0.21272278,9.800049,2.9266357,-16.036987,-38.676453,0.23822875,-0.21518141,9.801394,-0.0013322979,0.0017380714,0.00024318695,-0.0002746582,-6.1035156e-05,7.6293945e-05
0.010853715,-0.012186084,0.99386173,0.237854,-0.21464539,9.799332,2.2476196,-15.065002,-38.072205,0.23772265,-0.21424942,9.801427,-0.0012828559,0.0024698079,-0.0012655258,9.1552734e-05,-0.00016784668,-0.00012207031
0.010881695,-0.012207671,0.9938548,0.23928833,-0.21487427,9.799805,2.381897,-15.562439,-38.557434,0.23832679,-0.21459614,9.801405,0.00028020144,-0.0010275394,-0.0013170242,-0.00015258789,-0.00016784668,0.0002593994
0.010865597,-0.012212955,0.9938591,0.2359314,-0.21607971,9.801483,2.5482178,-15.629578,-37.597656,0.23801613,-0.21474281,9.801409,-0.0006133914,0.00030817091,-8.010864e-05,-9.1552734e-05,0.00010681152,-0.00012207031
0.010833718,-0.012237119,0.9938678,0.23760986,-0.2115326,9.8029175,2.0462036,-15.873718,-38.75885,0.23742956,-0.21530111,9.801412,-0.00051285326,-0.0008003861,0.0010633469,-0.0002746582,0.00010681152,-0.0002593994
0.010851212,-0.012183954,0.9938624,0.23568726,-0.21368408,9.799805,1.9226074,-15.161133,-37.927246,0.23766817,-0.2142145,9.801429,0.00066524744,0.0031644255,0.0015087128,3.0517578e-05,4.5776367e-05,0.0
0.010808492,-0.012179786,0.9938735,0.23832703,-0.21559143,9.7986145,2.949524,-15.527344,-38.04474,0.23680592,-0.21424797,9.80145,-0.0013317764,-0.00016751885,-0.00074863434,-9.1552734e-05,0.00016784668,-0.00032043457
0.010828321,-0.012208156,0.99386877,0.23545837,-0.21247864,9.801727,2.822876,-14.881897,-37.68158,0.23726128,-0.21474932,9.801427,0.0008545369,-0.0006430298,-0.001452446,9.1552734e-05,-6.1035156e-05,-6.1035156e-05
0.010807747,-0.012151975,0.9938732,0.23857117,-0.21081543,9.801483,2.31781,-15.354919,-37.831116,0.23673302,-0.21370617,9.801462,-0.0010312647,0.0016874522,0.0015821457,9.1552734e-05,-0.00012207031,-0.00019836426
0.0108574815,-0.012133843,0.9938599,0.2368927,-0.21224976,9.800049,2.1621704,-15.371704,-36.997986,0.23768885,-0.21321784,9.801451,0.0006381124,-0.00069506466,0.000746727,-3.0517578e-05,0.00010681152,6.1035156e-05
0.010837658,-0.012137126,0.99386513,0.23857117,-0.21440125,9.801712,1.965332,-15.881348,-38.52997,0.23729967,-0.2133354,9.801457,-0.00039745867,-0.00011309981,-0.0007867813,-0.00021362305,0.00016784668,-0.00019836426
0.010829383,-0.012163751,0.99386775,0.23713684,-0.21511841,9.8029175,3.378296,-14.8376465,-38.75122,0.23718986,-0.21387823,9.801448,0.00018383563,-4.1931868e-05,0.00012111664,-9.1552734e-05,-6.1035156e-05,-0.0001373291
0.010852652,-0.012193531,0.99386215,0.23760986,-0.21511841,9.799805,3.1829834,-15.80658,-37.73346,0.23771694,-0.21439789,9.801424,0.00060507655,-0.0007160008,0.0010433197,-3.0517578e-05,0.00010681152,6.1035156e-05
0.010842259,-0.012214817,0.9938652,0.23664856,-0.21559143,9.8029175,3.4347534,-13.751221,-37.625122,0.2375537,-0.21484207,9.801418,5.9872866e-05,-0.0009968728,-0.0007429123,-3.0517578e-05,0.00016784668,-0.00032043457
0.01079755,-0.012202113,0.9938767,0.23664856,-0.21511841,9.8022,2.1347046,-15.802002,-38.14392,0.23663384,-0.21471392,9.801444,-0.0007136017,0.00032280385,0.0012559891,3.0517578e-05,0.000289917,0.0
0.0107903145,-0.012205821,0.9938786,0.23641968,-0.21368408,9.800522,2.9022217,-14.802551,-38.12256,0.23649696,-0.21480584,9.801444,0.00038208067,-0.0003001541,0.00018978119,-9.1552734e-05,4.5776367e-05,6.1035156e-05
0.010787111,-0.012196792,0.9938793,0.237854,-0.2131958,9.800278,1.9622803,-16.030884,-38.183594,0.23641412,-0.2146379,9.80145,0.0002309084,0.00071288645,-0.00083065033,-3.0517578e-05,0.00010681152,-1.5258789e-05
0.01081066,-0.012178254,0.9938729,0.23951721,-0.2141571,9.800766,2.2033691,-16.088867,-37.9776,0.23684604,-0.21421218,9.80145,0.0012496263,0.0010048002,-0.0013599396,-9.1552734e-05,0.00016784668,6.1035156e-05
0.010850113,-0.012196976,0.99386287,0.2368927,-0.21607971,9.801483,2.4749756,-15.263367,-38.876343,0.23767339,-0.21447207,9.801423,0.001851514,-0.00016498566,0.00037670135,-9.1552734e-05,-6.1035156e-05,0.00018310547
0.010826042,-0.012234751,0.9938698,0.23808289,-0.21655273,9.800278,2.7069092,-15.466309,-38.6261,0.23727122,-0.21527545,9.801415,-0.0003798753,-0.001276046,0.0007286072,-3.0517578e-05,-6.1035156e-05,-0.00018310547
0.010848118,-0.0122380275,0.99386406,0.23760986,-0.2163086,9.799805,1.8981934,-15.745544,-37.81891,0.23771921,-0.21528012,9.801405,0.00015254319,-0.0003273636,-0.0015859604,-3.0517578e-05,0.00010681152,-0.0001373291
0.010832309,-0.012280129,0.9938689,0.23880005,-0.21702576,9.79837,3.213501,-14.997864,-38.475037,0.2374911,-0.21614586,9.801392,0.00038920343,-0.0011479855,-0.00074481964,-0.00015258789,0.00016784668,-0.0001373291
0.0108442595,-0.012287698,0.9938659,0.2349701,-0.21368408,9.800766,2.34375,-16.43982,-38.432312,0.2377457,-0.21626167,9.801382,0.00087299943,0.0001539737,-0.0017690659,-3.0517578e-05,0.00016784668,-6.1035156e-05
0.01080544,-0.012227967,0.993875,0.2359314,-0.21559143,9.8022,2.8640747,-15.679932,-38.146973,0.23684536,-0.2151982,9.801427,-0.0015993416,0.0019735247,0.0013713837,-0.00015258789,0.00010681152,0.00018310547
0.010775836,-0.012256599,0.99388325,0.23857117,-0.21440125,9.8022,2.1224976,-16.171265,-37.612915,0.23631343,-0.21583755,9.801426,-0.000370875,-0.00025236607,0.001709938,-3.0517578e-05,0.00010681152,-0.00019836426
0.010798871,-0.012216515,0.9938766,0.23712158,-0.21391296,9.800995,3.1829834,-15.80658,-37.73346,0.23669024,-0.21499197,9.801436,0.0009248853,0.0010742396,0.0004930496,0.0002746582,0.0,-0.0002593994
0.010808972,-0.0122053865,0.9938738,0.23928833,-0.21511841,9.803162,2.7069092,-15.6188965,-37.902832,0.23686886,-0.2147472,9.801436,0.0009861737,-0.0003721267,0.00031757355,3.0517578e-05,0.00022888184,-0.00019836426
0.010830162,-0.012207709,0.99386823,0.23712158,-0.21247864,9.801483,2.2232056,-15.727234,-37.527466,0.23729712,-0.21473561,9.801426,0.0017392486,0.0003414452,0.0006952286,-3.0517578e-05,4.5776367e-05,-0.00038146973
0.0108435135,-0.012172463,0.9938642,0.23808289,-0.21655273,9.800766,3.5095215,-15.486145,-38.739014,0.2374904,-0.21401057,9.801438,0.000114142895,0.001536712,-0.0001745224,-9.1552734e-05,0.00016784668,-0.0002593994
0.0108358245,-0.012204407,0.99386674,0.23928833,-0.21368408,9.805313,2.3849487,-15.713501,-37.83264,0.23740341,-0.21465583,9.801426,0.00020608306,-0.0014235377,-0.00044631958,0.00021362305,0.0,-0.0002593994
0.010863602,-0.012191583,0.99385923,0.23521423,-0.2141571,9.8033905,3.1051636,-15.583801,-38.81836,0.23793167,-0.21433032,9.80142,0.0013112128,-2.9981136e-05,0.003684044,-3.0517578e-05,0.0,-6.1035156e-05
0.010816016,-0.0121836355,0.99387157,0.23808289,-0.21774292,9.805313,2.3513794,-16.368103,-38.26599,0.23696427,-0.21430299,9.801444,-0.0015436858,0.00018006563,-0.00057792664,-3.0517578e-05,0.00016784668,0.0
0.010824825,-0.012244823,0.99387026,0.23664856,-0.21534729,9.799561,2.5436401,-15.626526,-38.04779,0.2372679,-0.21547568,9.801412,0.0012614876,-0.0020004064,0.0002527237,3.0517578e-05,0.00024414062,-7.6293945e-05
0.010795335,-0.012241076,0.9938779,0.23760986,-0.21534729,9.800278,3.1280518,-15.30304,-37.400818,0.23667076,-0.21548167,9.801425,-0.00076173246,-8.940697e-05,-0.0015859604,-3.0517578e-05,4.5776367e-05,0.00018310547
0.010813689,-0.012227303,0.9938729,0.23736572,-0.21583557,9.801712,3.3721924,-15.136719,-37.831116,0.23700882,-0.21516305,9.801424,0.0010644048,0.0010147095,-0.0010576248,-0.00021362305,0.0,-0.0001373291
0.0108075375,-0.01227661,0.99387527,0.23857117,-0.21559143,9.802444,2.4139404,-14.979553,-38.212585,0.23698868,-0.21614365,9.801403,0.00012753904,-0.0013654828,-0.0003862381,-9.1552734e-05,0.00010681152,-1.5258789e-05
0.010834906,-0.01226424,0.99386793,0.24023438,-0.21487427,9.803635,1.9836426,-15.6692505,-37.506104,0.23750985,-0.21582817,9.801397,0.0010492504,0.0009648651,0.00054836273,-0.00015258789,-0.00018310547,0.00012207031
0.010895641,-0.012261622,0.993852,0.2368927,-0.21463013,9.799561,1.3473511,-15.493774,-37.44507,0.2387181,-0.21561342,9.8013735,0.0017376393,0.0010038763,0.0008535385,-9.1552734e-05,0.0,0.0
0.010869403,-0.012264154,0.99385893,0.23880005,-0.21559143,9.8033905,2.4368286,-16.445923,-37.07733,0.23819907,-0.21573363,9.801383,-0.0013104528,0.00014589727,-0.001502037,-9.1552734e-05,4.5776367e-05,-0.0001373291
0.01086862,-0.012258715,0.99385905,0.2416687,-0.2131958,9.801956,2.671814,-14.675903,-37.63275,0.23817207,-0.2156294,9.801386,0.00013792515,0.0005263984,0.001074791,3.0517578e-05,0.0,-6.1035156e-05
0.010917437,-0.012263914,0.99384636,0.23736572,-0.21511841,9.803635,3.1188965,-15.446472,-37.582397,0.23915848,-0.21559945,9.801363,-0.00082860887,-0.00046756864,-0.001914978,-0.00015258789,0.00016784668,-0.0001373291
0.010862814,-0.012241274,0.9938603,0.237854,-0.21559143,9.801483,2.0507812,-16.029358,-37.42981,0.23801963,-0.215304,9.801396,-0.0013790876,0.000909999,0.0009469986,-3.0517578e-05,0.00016784668,-0.0002593994
0.010859419,-0.012251104,0.9938613,0.23736572,-0.21607971,9.801483,2.178955,-14.854431,-37.72583,0.2379723,-0.21550538,9.8013935,0.0003349632,-0.00031228364,0.000954628,9.1552734e-05,0.0,0.0
0.010831212,-0.01226685,0.99386895,0.23880005,-0.21607971,9.800522,3.3843994,-14.997864,-36.97052,0.23744145,-0.21588916,9.801397,-0.0010584295,-0.0008882582,0.00014781952,-3.0517578e-05,4.5776367e-05,0.0
0.010869071,-0.012289431,0.9938594,0.23951721,-0.21511841,9.803162,4.0863037,-15.380859,-37.983704,0.23824516,-0.21622874,9.801371,0.0019793063,-0.0005591363,-0.0010128021,-9.1552734e-05,0.00010681152,-0.00019836426
0.010890107,-0.012262942,0.9938535,0.23664856,-0.2141571,9.799561,2.9556274,-15.380859,-38.09204,0.23861027,-0.21565415,9.801374,0.0008995533,0.0015037209,-0.00019550323,-3.0517578e-05,0.0,0.00012207031
0.010849519,-0.012226267,0.9938635,0.23832703,-0.21583557,9.801239,2.3162842,-15.127563,-39.14337,0.23772265,-0.21504639,9.80141,-0.0022614002,0.0008866936,-0.0007696152,0.00015258789,-0.00018310547,6.1035156e-05
0.010863797,-0.012219219,0.99385965,0.23857117,-0.21583557,9.801239,2.5421143,-15.699768,-38.06305,0.23799324,-0.21487014,9.801407,8.9123845e-05,0.00024048984,0.00028324127,-3.0517578e-05,-6.1035156e-05,6.1035156e-05
0.010881129,-0.012265172,0.9938559,0.23832703,-0.2163086,9.8029175,1.4846802,-17.660522,-38.79547,0.23843548,-0.21572192,9.801376,0.0008647591,-0.0015587658,-0.0010824203,-9.1552734e-05,0.0,0.00018310547
0.010892859,-0.012273996,0.993853,0.23928833,-0.21702576,9.803162,2.986145,-14.572144,-38.682556,0.23868836,-0.21586287,9.801369,0.00033953786,4.2036176e-05,0.0023145676,3.0517578e-05,0.0,0.00012207031
0.010879868,-0.012306166,0.9938569,0.23498535,-0.21894836,9.801712,3.3447266,-15.797424,-37.5885,0.23849587,-0.21652688,9.801358,5.1483512e-05,-0.0016826987,0.00058078766,-0.00015258789,0.00022888184,6.1035156e-05
0.010804329,-0.012322148,0.9938769,0.23904419,-0.21463013,9.805313,2.130127,-15.797424,-38.67035,0.23701945,-0.21704265,9.801382,-0.0020599812,-0.0006765574,0.00022029877,0.00021362305,0.00010681152,-6.1035156e-05
0.010845287,-0.012287282,0.9938656,0.23904419,-0.21511841,9.8029175,2.0446777,-16.02478,-38.259888,0.23776537,-0.21625079,9.801382,0.0017026514,0.001177147,0.0019025803,-3.0517578e-05,0.00010681152,-0.0001373291
0.010863173,-0.012251749,0.99386036,0.23928833,-0.21749878,9.802429,3.0349731,-16.888428,-40.515137,0.23804867,-0.21550785,9.801392,0.00071406364,0.0013845414,-0.0009717941,-3.0517578e-05,-6.1035156e-05,0.00012207031
0.010866818,-0.012295992,0.9938601,0.23904419,-0.2163086,9.802673,2.6611328,-16.262817,-39.994812,0.23821384,-0.2163631,9.801369,0.0003234446,-0.0018220693,-0.00033283234,3.0517578e-05,0.0,-0.00019836426
0.010900279,-0.012296887,0.9938514,0.24047852,-0.2182312,9.801956,2.4673462,-15.408325,-38.905334,0.23888442,-0.21629041,9.801353,0.0010895133,0.00025454164,-0.0002193451,-9.1552734e-05,0.00010681152,6.1035156e-05
0.010914776,-0.012341642,0.9938483,0.24095154,-0.21870422,9.802444,3.3309937,-15.707397,-39.98413,0.23926763,-0.21712641,9.801327,0.0011804253,-0.0010771602,-0.0001449585,-9.1552734e-05,0.00022888184,-0.0001373291
0.010925934,-0.012395554,0.9938463,0.24095154,-0.2163086,9.802444,2.671814,-16.271973,-38.638306,0.23960322,-0.21815042,9.801295,0.0013162941,-0.0009976774,6.866455e-05,-0.00033569336,4.5776367e-05,-0.0001373291
0.010940317,-0.012367873,0.9938421,0.23808289,-0.21607971,9.803879,2.6672363,-16.267395,-39.31732,0.23983292,-0.21757036,9.801303,0.0008611679,0.0015165806,-0.00026988983,3.0517578e-05,4.5776367e-05,-1.5258789e-05
0.010899381,-0.012329305,0.9938522,0.23951721,-0.21702576,9.804108,1.6479492,-15.67688,-39.30664,0.23893416,-0.21692668,9.801338,-0.0013672858,0.0011301339,0.001250267,9.1552734e-05,4.5776367e-05,0.0
0.010912045,-0.0123339,0.9938489,0.23880005,-0.21749878,9.803635,2.29187,-14.115906,-37.72888,0.23919687,-0.21698238,9.801331,0.00051890314,-0.00024616718,0.00019168854,-0.00015258789,-6.1035156e-05,-7.6293945e-05
0.010903888,-0.012350832,0.99385136,0.2400055,-0.21870422,9.802673,3.8711548,-16.407776,-38.941956,0.23906918,-0.21733545,9.801326,-7.215142e-05,-0.00012046099,0.00013065338,3.0517578e-05,0.0,-0.0001373291
0.010920326,-0.012373163,0.9938474,0.23951721,-0.2172699,9.801956,2.7999878,-15.394592,-37.557983,0.23944439,-0.21772775,9.801309,0.0005104691,-0.000686273,0.0002527237,-0.00015258789,0.0,0.00024414062
0.01092816,-0.012380841,0.9938455,0.24047852,-0.21966553,9.803635,1.6662598,-15.391541,-38.719177,0.239617,-0.21785675,9.801302,-0.00013503432,0.00014585257,-0.0012598038,-3.0517578e-05,0.0,0.00012207031
0.010935805,-0.012405524,0.9938439,0.24072266,-0.21821594,9.802444,2.4475098,-16.075134,-37.757874,0.23982134,-0.2183187,9.801286,0.0008544475,-0.0008158982,0.0009069443,-3.0517578e-05,0.0,0.0
0.010950039,-0.012411346,0.9938403,0.24023438,-0.21606445,9.803635,3.9031982,-15.602112,-39.305115,0.24011806,-0.2183941,9.801277,0.0005656481,-3.054738e-05,-0.00066661835,9.1552734e-05,0.00016784668,-6.1035156e-05
0.010937737,-0.0123591,0.99384266,0.23640442,-0.21440125,9.802444,2.2781372,-16.079712,-38.809204,0.239763,-0.21740578,9.801308,-4.62085e-05,0.0018547475,0.0005054474,-0.00021362305,0.00016784668,0.0
0.010879718,-0.012309148,0.99385697,0.24023438,-0.21751404,9.802444,1.8218994,-15.678406,-37.57782,0.23849912,-0.21658559,9.801357,-0.0018920302,0.0019931197,-0.00014400482,-3.0517578e-05,0.00010681152,0.00012207031
0.01089461,-0.01233712,0.99385357,0.24072266,-0.2163086,9.803635,2.067566,-15.588379,-37.794495,0.23885512,-0.21709238,9.801337,0.001347974,-0.0008662492,-0.00089359283,0.00015258789,0.00010681152,-0.00019836426
0.010937799,-0.012290095,0.99384147,0.23976135,-0.21534729,9.802429,1.7349243,-15.7547,-38.191223,0.23962006,-0.21605639,9.801341,0.0015338808,0.0009756237,0.00083065033,-3.0517578e-05,0.0,0.0
0.010933822,-0.012312132,0.9938429,0.24191284,-0.21607971,9.804108,2.760315,-16.117859,-38.685608,0.23958664,-0.21649802,9.801332,-0.0003273487,-0.00027263165,-0.001036644,3.0517578e-05,4.5776367e-05,-6.1035156e-05
0.0109659955,-0.012297782,0.99383426,0.24024963,-0.2163086,9.802673,2.1392822,-15.65094,-38.415527,0.24051432,-0.21605493,9.801319,0.0016668737,0.00058077276,0.0013799667,3.0517578e-05,-0.00012207031,-6.1035156e-05
0.010982686,-0.012321622,0.99383026,0.23857117,-0.21391296,9.801712,2.4658203,-15.408325,-38.830566,0.24058303,-0.21655154,9.801307,0.00055764616,-0.000424698,0.0005598068,-0.00021362305,4.5776367e-05,6.1035156e-05
0.010944339,-0.012261321,0.9938393,0.23880005,-0.21511841,9.803146,3.0212402,-15.817261,-37.654114,0.23969062,-0.2154761,9.801352,-0.0016425401,0.0027846098,-0.0015363693,9.1552734e-05,0.00016784668,-1.5258789e-05
0.010930051,-0.012258878,0.993843,0.23951721,-0.21774292,9.8029175,2.8305054,-16.25824,-39.170837,0.23939998,-0.21546692,9.801359,-0.00039350986,-0.00033470988,0.00024318695,-9.1552734e-05,0.00010681152,-0.00019836426
0.010897885,-0.012290274,0.9938519,0.2368927,-0.21559143,9.804108,2.0706177,-15.744019,-36.541748,0.23882279,-0.21616757,9.801358,-0.00028949976,-0.0010680556,4.7683716e-06,-0.00015258789,0.00010681152,0.00012207031
0.010880268,-0.012290915,0.99385655,0.24023438,-0.2163086,9.806503,3.3233643,-16.157532,-38.48877,0.23847204,-0.21622758,9.801365,-0.0006711036,0.0004401058,0.0012788773,3.0517578e-05,0.00010681152,-0.00019836426
0.010889407,-0.012289554,0.9938541,0.23976135,-0.21679688,9.805313,2.2369385,-16.801453,-39.935303,0.23865186,-0.21617636,9.801362,0.00127621,-0.00030624866,0.001961708,-3.0517578e-05,0.00022888184,0.00012207031
0.010890667,-0.012297214,0.9938539,0.23760986,-0.21870422,9.805313,3.4042358,-16.151428,-38.417053,0.23869303,-0.21632273,9.801358,0.00074608624,-0.00015923381,3.1471252e-05,3.0517578e-05,0.00010681152,-6.1035156e-05
0.010861258,-0.012330391,0.99386215,0.23736572,-0.21534729,9.8022,2.7053833,-15.464783,-38.926697,0.23817448,-0.21705067,9.801354,-0.00064100325,-0.0015839338,-0.00014591217,-3.0517578e-05,0.00016784668,0.0
0.010831714,-0.012298613,0.99386936,0.24047852,-0.21583557,9.801956,2.8396606,-16.113281,-38.91449,0.23751774,-0.21650887,9.801383,-0.0006916672,0.0014511943,-0.00074100494,-3.0517578e-05,0.0,0.0
0.01088024,-0.012307529,0.9938568,0.23976135,-0.21751404,9.801239,3.1936646,-15.512085,-38.201904,0.23850617,-0.21655253,9.801357,0.001680389,4.3213367e-05,-0.0016107559,-3.0517578e-05,0.0,-0.00018310547
0.010923294,-0.012324143,0.9938458,0.24095154,-0.21774292,9.803635,2.4612427,-15.708923,-37.983704,0.23940134,-0.21676129,9.8013315,0.0017645806,-0.00072580576,-0.0015544891,0.00015258789,-0.00018310547,4.5776367e-05
0.010951177,-0.012333801,0.9938387,0.23808289,-0.21655273,9.805069,3.09906,-15.884399,-37.745667,0.23997878,-0.21687482,9.801314,0.000460729,-0.00060395896,0.0007266998,-0.00015258789,4.5776367e-05,-6.1035156e-05
0.010923543,-0.012329559,0.9938459,0.23808289,-0.21583557,9.80101,3.300476,-15.075684,-37.13684,0.23941761,-0.2168665,9.801329,-0.0011310726,0.00082346797,0.00017547607,-9.1552734e-05,0.0,-0.0002593994
0.0108796265,-0.01231517,0.9938571,0.237854,-0.21534729,9.8022,2.8625488,-15.905762,-37.060547,0.23850986,-0.21670358,9.801354,-0.001412198,0.0006747097,-4.673004e-05,-3.0517578e-05,0.00010681152,-0.0001373291
0.010870968,-0.012291423,0.993859,0.23951721,-0.21559143,9.801956,2.7359009,-15.036011,-37.483215,0.23828724,-0.21626258,9.801369,-0.00025637448,0.0009625107,0.0010871887,-9.1552734e-05,4.5776367e-05,0.0
0.010904861,-0.012290462,0.9938501,0.23832703,-0.21559143,9.805313,2.8793335,-15.617371,-36.47461,0.23896256,-0.21615243,9.801354,0.001479879,0.00034947693,-0.0013513565,9.1552734e-05,0.0,4.5776367e-05
0.010894331,-0.012281318,0.99385273,0.24047852,-0.21655273,9.800278,2.3971558,-15.42511,-37.246704,0.23873305,-0.21600205,9.801364,-0.0004425496,0.00019952655,5.4359436e-05,-9.1552734e-05,-6.1035156e-05,0.0
0.01090841,-0.012278739,0.993849,0.2400055,-0.21559143,9.8022,2.6885986,-16.05835,-37.84027,0.23900902,-0.21591367,9.801359,0.00049842894,0.0005751997,-0.002199173,3.0517578e-05,4.5776367e-05,-6.1035156e-05
0.010939489,-0.012290962,0.99384105,0.23976135,-0.21702576,9.805313,2.2125244,-15.943909,-37.646484,0.23965563,-0.21606876,9.801339,0.0015105456,-0.00070150197,0.0015611649,0.00015258789,0.00010681152,-6.1035156e-05
0.010926497,-0.012277283,0.9938442,0.23951721,-0.21463013,9.801956,2.4902344,-15.049744,-38.07831,0.23936743,-0.21583638,9.801352,-0.00013278425,4.9218535e-05,0.001991272,-9.1552734e-05,4.5776367e-05,-0.0002593994
0.010929694,-0.012271244,0.9938433,0.23880005,-0.21583557,9.804108,2.632141,-15.400696,-38.458252,0.23941873,-0.2157097,9.801354,-0.00016908348,0.0006261468,-0.0012111664,-3.0517578e-05,-0.00018310547,-7.6293945e-05
0.010918074,-0.01227658,0.9938464,0.23713684,-0.21655273,9.8033905,1.5731812,-14.550781,-34.91974,0.23919766,-0.21584536,9.801356,-0.0004438609,-0.00042147934,0.000626564,3.0517578e-05,0.00022888184,6.1035156e-05
0.010875985,-0.012276309,0.99385744,0.23808289,-0.21487427,9.803879,2.380371,-15.635681,-38.27057,0.23835596,-0.21595356,9.801374,-0.0012641102,-8.5398555e-05,-6.2942505e-05,-9.1552734e-05,-6.1035156e-05,-0.0001373291
0.010864936,-0.012257421,0.99386,0.23857117,-0.2141571,9.803162,3.0319214,-15.525818,-37.971497,0.23809573,-0.21561402,9.801388,-0.0007740408,0.00077964365,-3.9100647e-05,3.0517578e-05,0.0,-0.0001373291
0.010896065,-0.012235923,0.9938515,0.23664856,-0.2172699,9.803879,1.7562866,-15.318298,-37.802124,0.23867291,-0.21510978,9.801385,0.00080254674,-0.00019988418,-0.0011434555,3.0517578e-05,0.00016784668,6.1035156e-05
0.010839288,-0.012261877,0.99386674,0.23617554,-0.21607971,9.799561,2.9525757,-15.301514,-39.131165,0.23759247,-0.21577018,9.801396,-0.0017164499,-0.0016935617,0.0011444092,0.00015258789,0.0,-0.0001373291
0.010824652,-0.012259366,0.99387056,0.23928833,-0.2163086,9.800522,2.7175903,-15.324402,-38.220215,0.2372948,-0.21576048,9.801405,-0.0006700754,-5.3420663e-05,-0.0025844574,3.0517578e-05,0.0,-0.0002593994
0.010839992,-0.01226101,0.99386656,0.23760986,-0.21607971,9.801727,1.9805908,-15.513611,-38.983154,0.23760474,-0.21575134,9.801396,0.0009649992,-8.292496e-05,-0.0018796921,-0.00015258789,0.00016784668,0.00018310547
0.010853024,-0.012290605,0.99386364,0.23976135,-0.22013855,9.801956,2.3330688,-14.910889,-38.42163,0.23792696,-0.21629494,9.801378,0.00086323917,-0.00072185695,0.0006608963,9.1552734e-05,0.0,0.00024414062
0.010848902,-0.012325174,0.9938653,0.23904419,-0.21440125,9.803146,0.6286621,-15.394592,-37.69684,0.23791665,-0.21698193,9.801362,0.00040246546,-0.0014709383,-0.00020503998,-9.1552734e-05,-6.1035156e-05,0.00012207031
0.01088073,-0.012302954,0.9938566,0.237854,-0.21487427,9.800995,2.3147583,-15.428162,-37.695312,0.2385064,-0.21646173,9.801359,0.0009851307,0.0013666153,0.0014648438,-3.0517578e-05,0.0,-6.1035156e-05
0.010887511,-0.01229116,0.99385464,0.23832703,-0.21511841,9.804108,2.5802612,-14.822388,-38.264465,0.2386173,-0.21621287,9.801362,-5.6311488e-05,0.00063067675,-0.0012588501,-3.0517578e-05,4.5776367e-05,-6.1035156e-05
0.01087261,-0.01227512,0.9938583,0.23904419,-0.21655273,9.799805,2.6123047,-14.170837,-37.60376,0.23828603,-0.2159394,9.801376,-0.000460729,0.00061811507,0.0015506744,3.0517578e-05,4.5776367e-05,-6.1035156e-05
0.010880969,-0.012257438,0.99385583,0.24023438,-0.21583557,9.8029175,2.7923584,-15.388489,-38.537598,0.23841618,-0.21557115,9.801381,0.0006273538,0.0002091825,-0.0023202896,-3.0517578e-05,4.5776367e-05,0.00012207031
0.010916017,-0.012292451,0.9938472,0.24072266,-0.21774292,9.800278,1.1657715,-15.939331,-37.82959,0.23918967,-0.21616124,9.801349,0.0017482042,-0.0008521527,0.0010080338,-9.1552734e-05,0.00010681152,-0.0001373291
0.010939012,-0.012316209,0.9938416,0.24072266,-0.21655273,9.804108,1.0910034,-15.7196045,-38.386536,0.23969887,-0.2165637,9.801328,0.0010111481,-0.00022177398,-0.00011730194,3.0517578e-05,0.00010681152,-0.0001373291
0.010937078,-0.012308043,0.99384195,0.23736572,-0.2172699,9.804108,3.5552979,-14.616394,-37.8067,0.23964317,-0.2164093,9.801333,0.0003272891,0.00013233721,0.001830101,-9.1552734e-05,0.00010681152,0.0
0.010893446,-0.012330274,0.99385375,0.24095154,-0.21583557,9.801956,2.1896362,-14.482117,-38.55591,0.23881759,-0.21696165,9.801341,-0.0012417138,-0.0007503927,-6.198883e-05,3.0517578e-05,-0.00012207031,0.0
0.010950223,-0.012312658,0.9938386,0.23951721,-0.21440125,9.804596,2.1987915,-14.489746,-37.350464,0.2399155,-0.21646401,9.801325,0.0017230362,0.0006556362,-0.00035572052,3.0517578e-05,4.5776367e-05,6.1035156e-05
0.010923922,-0.01227473,0.99384487,0.2400055,-0.21702576,9.800049,3.1219482,-14.764404,-41.1438,0.23931064,-0.21579342,9.801354,-0.0007815063,0.0014300644,0.0010318756,-0.00021362305,0.0,-0.00019836426
0.010932119,-0.012323373,0.9938435,0.23976135,-0.2182312,9.802444,3.742981,-15.762329,-38.50403,0.23957606,-0.21672237,9.801327,0.00064234436,-0.0010060966,-0.0021762848,3.0517578e-05,4.5776367e-05,-0.00019836426
0.010925536,-0.012336914,0.99384546,0.23904419,-0.21296692,9.8022,2.5543213,-15.332031,-38.59253,0.23947279,-0.21700491,9.801323,-0.00020815432,-0.00071652234,0.000623703,-9.1552734e-05,4.5776367e-05,-0.0001373291
0.0109284315,-0.012249393,0.99384326,0.23736572,-0.21368408,9.800278,2.9953003,-14.352417,-38.86566,0.2393478,-0.21528584,9.801364,0.00014550984,0.0033017248,8.583069e-05,0.00021362305,4.5776367e-05,-0.00032043457
0.01089019,-0.012231318,0.993853,0.23808289,-0.2163086,9.801483,3.2821655,-15.209961,-38.598633,0.23854588,-0.21503559,9.80139,-0.0016578287,0.0001655221,-0.0015325546,-3.0517578e-05,0.00010681152,0.00018310547
0.010877597,-0.0122495275,0.99385655,0.24047852,-0.21534729,9.801956,2.859497,-15.524292,-39.62555,0.23833227,-0.21542555,9.801386,0.00023284554,-0.00064869225,9.250641e-05,3.0517578e-05,4.5776367e-05,0.00018310547
0.0109097995,-0.012242786,0.993848,0.23880005,-0.2172699,9.801483,2.381897,-15.562439,-38.48114,0.2389617,-0.21520694,9.801376,0.001267463,-0.00013567507,-0.00010585785,3.0517578e-05,0.0,-0.0001373291
0.010894442,-0.0122897485,0.9938528,0.237854,-0.2182312,9.801956,1.9760132,-15.661621,-38.63678,0.23875289,-0.21616659,9.80136,-0.00043046474,-0.0013432801,-6.580353e-05,-0.00015258789,0.00016784668,-0.00019836426
0.010912148,-0.01228706,0.99384815,0.237854,-0.21774292,9.802673,2.1774292,-14.852905,-37.875366,0.23910113,-0.21606629,9.801354,0.0015949458,0.0014601797,0.0011911392,-3.0517578e-05,0.00022888184,-0.0002593994
0.010884377,-0.012325319,0.993856,0.237854,-0.21440125,9.800995,3.1341553,-14.927673,-38.685608,0.23862597,-0.21688922,9.801347,-7.969141e-05,-0.0015482605,-0.00016880035,-0.00015258789,0.00010681152,-0.00019836426
0.010880622,-0.012287876,0.9938564,0.2416687,-0.21702576,9.804108,1.8234253,-15.5303955,-38.075256,0.23847279,-0.21616723,9.801367,-0.0001628995,0.0020256639,-0.0005874634,-3.0517578e-05,6.1035156e-05,-0.00019836426
0.010919793,-0.012305068,0.9938464,0.2368927,-0.21751404,9.803635,2.7282715,-15.107727,-38.02643,0.2392915,-0.21639776,9.801342,0.0014086068,0.00010956824,0.0004081726,-0.00033569336,4.5776367e-05,-0.0002593994
0.010863427,-0.012316699,0.9938614,0.23640442,-0.21296692,9.800766,2.8457642,-14.373779,-37.428284,0.23818928,-0.21677712,9.80136,-0.0013277382,2.3856759e-05,0.00074863434,-3.0517578e-05,0.0,6.1035156e-05
0.0108576855,-0.012273272,0.99386215,0.24047852,-0.21989441,9.801727,2.3605347,-16.304016,-37.121582,0.23798394,-0.21594347,9.801384,-0.00088725984,0.0018089712,-0.0004529953,-9.1552734e-05,-0.00012207031,-1.5258789e-05
0.010892079,-0.012338903,0.9938542,0.24023438,-0.21583557,9.803146,1.914978,-15.153503,-38.7558,0.23880827,-0.21713406,9.801337,0.0014037341,-0.002267003,-0.00029945374,9.1552734e-05,0.0,0.00012207031
0.010913714,-0.012329828,0.99384844,0.24023438,-0.21966553,9.8022,3.1799316,-15.803528,-38.11035,0.23922174,-0.21689828,9.801332,0.0009944588,0.0003620088,-0.00036525726,-3.0517578e-05,4.5776367e-05,0.0
0.010920304,-0.012379299,0.99384755,0.23904419,-0.21751404,9.801727,2.9266357,-16.114807,-37.860107,0.23945674,-0.21784778,9.801306,3.284216e-05,-0.0020215064,0.00072574615,-3.0517578e-05,0.0,6.1035156e-05
0.010928146,-0.0123602785,0.99384516,0.23904419,-0.21559143,9.801483,1.979065,-15.817261,-37.4588,0.23957375,-0.2174547,9.801311,0.00064086914,0.001164034,-0.00063610077,-9.1552734e-05,4.5776367e-05,-1.5258789e-05
0.010909275,-0.0123523995,0.99385,0.2400055,-0.2182312,9.803162,3.0899048,-15.800476,-39.31427,0.23918016,-0.21735159,9.801324,-0.00062319636,0.00056762993,-0.00042247772,-9.1552734e-05,0.00016784668,0.0
0.010899484,-0.012350153,0.9938525,0.23880005,-0.21464539,9.804596,3.439331,-15.574646,-37.094116,0.23897976,-0.21733406,9.801329,0.0002745539,0.00033925474,0.001627922,-9.1552734e-05,0.00022888184,-6.1035156e-05
0.010884147,-0.012319489,0.993856,0.24047852,-0.21702576,9.8022,3.90625,-15.756226,-37.979126,0.23860921,-0.21677585,9.80135,0.00039200485,0.0014523566,0.0007638931,-3.0517578e-05,0.00016784668,-6.1035156e-05
0.010929433,-0.012331475,0.99384433,0.24095154,-0.21583557,9.801956,3.2302856,-16.531372,-37.957764,0.23953933,-0.21688806,9.801325,0.0018584281,0.00012928247,-0.00012874603,-9.1552734e-05,0.0,-6.1035156e-05
0.010935381,-0.012308496,0.9938424,0.24023438,-0.21534729,9.802673,3.378296,-16.737366,-38.30719,0.2396102,-0.2164227,9.801333,0.0005969107,0.0008558929,-0.001209259,3.0517578e-05,4.5776367e-05,4.5776367e-05
0.010951583,-0.012302081,0.9938381,0.23976135,-0.21606445,9.803879,2.7450562,-16.485596,-38.53302,0.23992059,-0.21625353,9.80133,0.0007766783,0.00044083595,-0.00016593933,-9.1552734e-05,-6.1035156e-05,6.1035156e-05
0.010939116,-0.012306163,0.9938414,0.23857117,-0.21534729,9.803635,3.3813477,-16.740417,-38.00659,0.23967995,-0.21636699,9.801332,-0.0009212196,9.5680356e-05,0.0013303757,-0.00021362305,0.0,-6.1035156e-05
0.010918165,-0.0122909285,0.99384665,0.23760986,-0.21606445,9.805069,2.4414062,-16.143799,-38.146973,0.23922944,-0.21612568,9.80135,-0.00047710538,0.0012945086,0.00057411194,9.1552734e-05,0.00022888184,0.00018310547
0.010879742,-0.012285822,0.9938566,0.23928833,-0.21678162,9.8029175,2.859497,-15.751648,-38.313293,0.23845091,-0.21612945,9.801369,-0.00089481473,-0.00013040006,0.00052928925,-0.00021362305,0.00016784668,0.0
0.010881252,-0.012294425,0.9938563,0.24023438,-0.2163086,9.8029175,2.935791,-16.047668,-36.94153,0.23849903,-0.21629357,9.801363,0.0009809583,3.258884e-05,-0.0001296997,3.0517578e-05,0.00022888184,0.0
0.010878496,-0.012299762,0.99385715,0.24023438,-0.2163086,9.800278,2.180481,-16.523743,-38.51776,0.2384551,-0.21640536,9.801362,0.0007854253,-0.00033284724,-0.00041007996,3.0517578e-05,0.00010681152,-7.6293945e-05
0.010915515,-0.012326035,0.9938479,0.23713684,-0.21536255,9.801712,2.0141602,-16.682434,-38.39264,0.23924983,-0.21681927,9.801334,0.0016855896,-0.00043600798,-0.0026626587,3.0517578e-05,0.00010681152,-0.0001373291
0.010876443,-0.012256887,0.99385697,0.23760986,-0.21679688,9.800995,3.5949707,-15.710449,-37.278748,0.23832458,-0.21557257,9.801383,-0.0014466196,0.0019018352,-3.33786e-05,0.00015258789,0.00010681152,-0.00019836426
0.010852916,-0.012264273,0.9938632,0.23760986,-0.21702576,9.800049,3.1311035,-15.077209,-38.261414,0.23786986,-0.21578038,9.801391,-0.00027254224,-0.0010051131,-0.00019454956,-0.00021362305,0.00010681152,-6.1035156e-05
0.0108477445,-0.0122707635,0.9938647,0.237854,-0.21749878,9.80603,2.9388428,-15.8203125,-37.878418,0.23778005,-0.21592121,9.80139,-0.00064465404,0.0007902533,-0.0007715225,-3.0517578e-05,0.00010681152,0.0
0.0108524775,-0.012311117,0.9938641,0.24072266,-0.21487427,9.803635,3.2470703,-14.573669,-36.5036,0.2379588,-0.21669745,9.801368,0.0010662377,-0.001028046,0.0026693344,-3.0517578e-05,0.00010681152,-0.0001373291
0.010891892,-0.012266734,0.9938531,0.24047852,-0.21655273,9.800766,2.8915405,-15.249634,-37.00409,0.23865385,-0.21572345,9.801372,0.002047211,0.0015858859,0.00018501282,9.1552734e-05,0.00010681152,6.1035156e-05
0.010912104,-0.012289348,0.9938482,0.24023438,-0.21463013,9.8029175,3.2577515,-15.795898,-38.339233,0.239105,-0.21611112,9.8013525,0.0008828193,-0.00089867413,-0.00036525726,-3.0517578e-05,0.00010681152,0.0
0.0109182205,-0.012262473,0.9938462,0.237854,-0.21534729,9.800995,3.0426025,-15.153503,-38.728333,0.23917109,-0.21556912,9.801362,0.0010368675,0.0011916757,0.0007162094,9.1552734e-05,0.00016784668,0.00012207031
0.010897795,-0.0122586945,0.9938514,0.23904419,-0.21511841,9.8033905,3.277588,-15.281677,-38.990784,0.23875506,-0.2155504,9.801374,-0.00019654632,-0.00027374923,-0.001127243,9.1552734e-05,0.000289917,-6.1035156e-05
0.010865263,-0.012239453,0.9938596,0.23951721,-0.21679688,9.803879,3.2806396,-15.132141,-39.26239,0.2380648,-0.21526183,9.801397,-0.00024102628,0.00041492283,0.0014657974,3.0517578e-05,0.00022888184,0.00012207031
0.01088852,-0.01225397,0.99385375,0.24072266,-0.21463013,9.801956,2.87323,-15.460205,-38.104248,0.23855984,-0.21548301,9.80138,0.0018855035,-0.0007956177,0.0001745224,-0.00015258789,0.00010681152,-0.0001373291
0.010911054,-0.012268478,0.99384815,0.23880005,-0.21440125,9.802444,2.809143,-15.174866,-37.74109,0.2390404,-0.21570587,9.801362,0.00093993545,0.000381276,-0.00068187714,3.0517578e-05,0.00010681152,0.0
0.010913363,-0.012247878,0.9938472,0.24119568,-0.2163086,9.804108,2.632141,-15.47699,-38.171387,0.23904355,-0.2152969,9.801373,0.00068461895,0.0006966442,0.0006580353,-3.0517578e-05,0.00010681152,-1.5258789e-05
0.010915795,-0.012265821,0.99384683,0.23832703,-0.2163086,9.804596,2.229309,-15.657043,-37.13379,0.23912963,-0.21564116,9.801362,0.00082717836,-0.0006235093,0.0012378693,3.0517578e-05,0.00010681152,-0.0002593994
0.010898732,-0.012268052,0.99385136,0.23928833,-0.21774292,9.804108,2.3101807,-15.576172,-37.42218,0.23879331,-0.21573082,9.801369,-0.00026914477,-0.0005353093,-0.00013637543,-3.0517578e-05,0.000289917,-0.00019836426
0.010885472,-0.01228884,0.9938551,0.24191284,-0.21679688,9.802673,2.7893066,-15.538025,-38.038635,0.23857172,-0.216173,9.801364,0.00066275895,-0.00080397725,0.0005311966,-9.1552734e-05,0.00022888184,-0.0001373291
0.010917716,-0.012328859,0.99384737,0.23832703,-0.21536255,9.801956,2.9281616,-16.041565,-38.072205,0.23929967,-0.21686853,9.801331,0.0023156554,-0.00082601607,-0.00012683868,-3.0517578e-05,0.00022888184,-0.0001373291
0.010886405,-0.012292536,0.99385494,0.23617554,-0.21559143,9.801956,3.4088135,-16.079712,-38.17444,0.23859808,-0.21624276,9.801362,-0.00078202784,0.0014028698,-0.0012083054,9.1552734e-05,0.00010681152,-6.1035156e-05
0.010861232,-0.012267173,0.99386114,0.23976135,-0.2182312,9.804352,2.6931763,-15.910339,-38.035583,0.23804207,-0.21581468,9.801385,-0.0007138103,0.00025720894,-9.536743e-06,-9.1552734e-05,0.00010681152,6.1035156e-05
0.01086834,-0.012322765,0.9938602,0.24143982,-0.21583557,9.801956,3.5003662,-15.551758,-39.50653,0.23830011,-0.21688248,9.801355,0.0011770874,-0.0015412122,0.00014591217,3.0517578e-05,0.00016784668,6.1035156e-05
0.010909212,-0.012283578,0.99384886,0.23880005,-0.2172699,9.804596,3.3843994,-16.513062,-39.01825,0.23903516,-0.2160061,9.801356,0.0016479641,0.0013964176,-5.9127808e-05,-9.1552734e-05,4.5776367e-05,-0.0002593994
0.010900459,-0.012332609,0.99385196,0.23976135,-0.21534729,9.800278,3.3569336,-17.173767,-38.623047,0.23896264,-0.21698841,9.801337,0.00050136447,-0.0016674697,0.0010766983,-9.1552734e-05,0.00016784668,-0.0001373291