timestamp,rotationVector_x,rotationVector_y,rotationVector_z,accelerometer_x,accelerometer_y,accelerometer_z,magneticField_x,magneticField_y,magneticField_z,gravity_x,gravity_y,gravity_z,linearAcceleration_x,linearAcceleration_y,linearAcceleration_z,gyroscope_x,gyroscope_y,gyroscope_z
2019-07-01T19:11:09.573Z,-0.012301476,0.0037270053,-0.20270428,-0.021530151,-0.25602722,9.7986145,-5.0491333,15.85083,-44.317627,-0.022668198,-0.2510608,9.80341,0.00065507926,-0.00013154745,0.0003232956,4.5776367e-05,7.6293945e-05,6.1035156e-05
2019-07-01T19:11:09.778Z,-0.012293768,0.003720274,-0.20268287,-0.01914978,-0.24885559,9.810577,-4.786682,16.305542,-44.084167,-0.022575064,-0.25088558,9.803414,-0.00038405508,-0.0005349815,4.4822693e-05,-1.5258789e-05,-0.00015258789,0.00012207031
2019-07-01T19:11:09.978Z,-0.012282556,0.0036875184,-0.20259279,-0.023925781,-0.23928833,9.7986145,-5.4122925,16.777039,-44.491577,-0.022013651,-0.25053808,9.803425,0.0009606797,0.0010126531,-0.0009241104,0.00016784668,7.6293945e-05,0.00012207031
2019-07-01T19:11:10.184Z,-0.012222998,0.0037138707,-0.20262857,-0.023925781,-0.25125122,9.805786,-5.1651,14.964294,-43.736267,-0.022747329,-0.24949996,9.80345,-0.0016621016,0.0021294951,0.00034046173,-1.5258789e-05,-9.1552734e-05,0.00012207031
2019-07-01T19:11:10.385Z,-0.012195842,0.0037339993,-0.2026657,-0.01914978,-0.2536316,9.808182,-5.5236816,16.264343,-45.422363,-0.023232387,-0.24905938,9.803459,-0.00044540316,0.0004892051,-0.0007324219,-1.5258789e-05,1.5258789e-05,-0.00024414062
2019-07-01T19:11:10.591Z,-0.012244556,0.0037330522,-0.20268933,-0.023925781,-0.24645996,9.7986145,-5.807495,15.1474,-44.807434,-0.023014488,-0.24999157,9.803436,0.0009965468,-0.0019714683,-0.0028800964,4.5776367e-05,0.0001373291,0.0
2019-07-01T19:11:10.796Z,-0.012237202,0.0036588032,-0.20249481,-0.021530151,-0.2416687,9.808182,-5.758667,16.093445,-43.86139,-0.021667404,-0.24955095,9.803451,0.002518585,0.00046229362,0.00046634674,0.00010681152,1.5258789e-05,0.000289917
2019-07-01T19:11:10.998Z,-0.01225094,0.0036387893,-0.20245078,-0.01914978,-0.24406433,9.808182,-5.8013916,15.29541,-44.778442,-0.021239694,-0.24973433,9.803447,0.0011448171,-0.0005444288,-5.722046e-06,0.00016784668,7.6293945e-05,-6.1035156e-05
2019-07-01T19:11:11.201Z,-0.012213074,0.0036493312,-0.2024576,-0.01914978,-0.25602722,9.810577,-6.3095093,16.34674,-43.78662,-0.021590807,-0.24904919,9.803463,-0.00089884736,0.0011756867,0.000787735,-7.6293945e-05,7.6293945e-05,-0.00019836426
2019-07-01T19:11:11.403Z,-0.012235304,0.0036410948,-0.20244835,-0.023925781,-0.25125122,9.810577,-5.050659,15.698242,-43.667603,-0.021346688,-0.2494432,9.803454,0.0002941992,-0.0012655109,0.0025968552,0.00010681152,-0.00021362305,-6.1035156e-05
2019-07-01T19:11:11.602Z,-0.012255526,0.0036707995,-0.20253542,-0.021530151,-0.24885559,9.7986145,-6.604004,15.158081,-43.71338,-0.02181464,-0.24995136,9.80344,-0.0004268773,-0.00074514747,0.00093078613,0.00010681152,7.6293945e-05,-0.00012207031
2019-07-01T19:11:11.809Z,-0.012231141,0.00368223,-0.20255171,-0.01675415,-0.25602722,9.789032,-5.3085327,15.394592,-44.02008,-0.022126893,-0.24952887,9.80345,-0.000116558746,0.00071683526,-0.0017709732,-7.6293945e-05,0.0001373291,-0.00024414062
2019-07-01T19:11:12.012Z,-0.012238332,0.0036537098,-0.20248236,-0.01914978,-0.24645996,9.810577,-6.9854736,15.79895,-44.70215,-0.021568276,-0.24955215,9.803451,0.00075882487,-0.00045269728,-0.00021839142,0.00010681152,7.6293945e-05,-0.00024414062
2019-07-01T19:11:12.213Z,-0.012245869,0.0036861734,-0.20256971,-0.026321411,-0.2536316,9.812973,-4.8858643,15.859985,-43.943787,-0.02213951,-0.24982774,9.803442,-0.0010676123,-0.0004453063,-0.0019044876,4.5776367e-05,-9.1552734e-05,0.0
2019-07-01T19:11:12.417Z,-0.012225416,0.0036846092,-0.20255476,-0.021530151,-0.25125122,9.800995,-5.89447,15.071106,-44.969177,-0.022194562,-0.24942842,9.803452,-6.543659e-05,0.00012874603,0.00095272064,-1.5258789e-05,0.0001373291,0.00018310547
2019-07-01T19:11:12.615Z,-0.012223511,0.0036861466,-0.20255768,-0.023925781,-0.24645996,9.808182,-4.8583984,14.851379,-45.20874,-0.022230912,-0.24939805,9.803453,-0.00025705807,-0.00013560057,0.00079631805,0.00010681152,-9.1552734e-05,-0.00018310547
2019-07-01T19:11:12.822Z,-0.012197686,0.0036815666,-0.20253213,-0.01914978,-0.24885559,9.812973,-6.0043335,16.079712,-44.458008,-0.022252072,-0.24888338,9.803466,-5.170703e-06,0.001048699,0.0016508102,0.00010681152,-9.1552734e-05,-0.00012207031
2019-07-01T19:11:13.026Z,-0.012227056,0.003675929,-0.20253336,-0.021530151,-0.25125122,9.800995,-6.9717407,15.937805,-43.76831,-0.022026796,-0.24942498,9.8034525,0.000502469,-0.0012720078,0.00045871735,-7.6293945e-05,7.6293945e-05,-0.00024414062
2019-07-01T19:11:13.229Z,-0.0122132525,0.003682287,-0.20254229,-0.021530151,-0.25125122,9.800995,-5.958557,15.280151,-44.396973,-0.02220147,-0.24918538,9.803458,-0.00028648414,0.00012496114,-0.002087593,4.5776367e-05,7.6293945e-05,6.1035156e-05
2019-07-01T19:11:13.448Z,-0.0122246565,0.003682415,-0.20254873,-0.021530151,-0.24885559,9.808182,-4.8706055,16.148376,-43.736267,-0.022156982,-0.24940503,9.803453,0.00014192611,-0.0008468479,-0.00012302399,0.00022888184,7.6293945e-05,-6.1035156e-05
2019-07-01T19:11:13.627Z,-0.012224422,0.0036764464,-0.20253327,-0.01675415,-0.25125122,9.7986145,-6.062317,16.43219,-43.32733,-0.02204722,-0.24937648,9.803454,3.3317134e-05,-0.000145033,0.0010347366,4.5776367e-05,1.5258789e-05,-6.1035156e-05
2019-07-01T19:11:13.826Z,-0.012255451,0.0036917466,-0.20258914,-0.01675415,-0.24406433,9.808182,-5.9555054,15.2786255,-43.86902,-0.022203505,-0.2500343,9.803436,-0.00028599985,-0.0011949539,-0.0023412704,4.5776367e-05,-4.5776367e-05,-0.00019836426
2019-07-01T19:11:14.031Z,-0.012230511,0.0036764087,-0.20253643,-0.026321411,-0.24885559,9.815353,-5.8776855,15.359497,-44.458008,-0.022021497,-0.24949332,9.803452,-0.0008480903,-0.002089709,-0.00029277802,-7.6293945e-05,-4.5776367e-05,-0.00024414062
2019-07-01T19:11:14.254Z,-0.012275357,0.0037249932,-0.20268513,-0.028717041,-0.24645996,9.812973,-6.199646,17.00592,-43.580627,-0.022738323,-0.25055087,9.803423,-0.00093978085,-0.0004172325,0.0015554428,4.5776367e-05,-9.1552734e-05,0.0
2019-07-01T19:11:14.450Z,-0.012281795,0.003714247,-0.202661,-0.021530151,-0.2416687,9.805786,-5.4733276,16.903687,-42.651367,-0.022512525,-0.25063118,9.80342,0.0004978869,-0.0005778074,0.00024032593,-7.6293945e-05,-4.5776367e-05,-0.00012207031
2019-07-01T19:11:14.705Z,-0.012223619,0.0037061058,-0.20260897,-0.021530151,-0.24645996,9.808182,-4.4311523,15.307617,-44.377136,-0.022600727,-0.2494806,9.803451,-0.00013058074,0.002350822,0.00047588348,0.00016784668,7.6293945e-05,-0.00018310547
2019-07-01T19:11:14.900Z,-0.012220534,0.0036872772,-0.202559,-0.023925781,-0.24406433,9.808182,-5.848694,16.020203,-44.703674,-0.022264123,-0.24934539,9.803454,0.0004951339,0.00030504167,0.0009584427,-1.5258789e-05,1.5258789e-05,-0.00012207031
2019-07-01T19:11:15.097Z,-0.012245409,0.003707837,-0.20262508,-0.023925781,-0.25602722,9.8033905,-5.557251,15.307617,-44.55719,-0.02254326,-0.24990626,9.80344,-0.00090444833,-0.0017620027,-0.0003232956,0.00016784668,-9.1552734e-05,0.00018310547
2019-07-01T19:11:15.302Z,-0.012268346,0.0037301907,-0.20269473,-0.021530151,-0.24406433,9.796219,-6.262207,15.620422,-43.936157,-0.02286356,-0.2504371,9.803425,-0.0003407169,-0.00075128675,-0.0006914139,-1.5258789e-05,1.5258789e-05,0.00012207031
2019-07-01T19:11:15.509Z,-0.012241914,0.0036883955,-0.2025733,-0.01914978,-0.25842285,9.800995,-5.130005,15.9210205,-44.602966,-0.022196991,-0.24976072,9.803444,0.0016165394,0.0011903793,-0.00046253204,-1.5258789e-05,1.5258789e-05,-6.1035156e-05
2019-07-01T19:11:15.713Z,-0.012206019,0.003647758,-0.2024498,-0.021530151,-0.24885559,9.805786,-5.2978516,15.612793,-43.901062,-0.021590594,-0.24890731,9.803467,0.0014984626,0.0015286207,0.00016880035,4.5776367e-05,0.0001373291,-0.00019836426
2019-07-01T19:11:15.912Z,-0.012260673,0.0036210283,-0.2024104,-0.023925781,-0.25125122,9.808182,-4.904175,15.4953,-44.396973,-0.02087024,-0.24984986,9.803445,0.0012511835,-0.0023025572,0.00010871887,0.00010681152,1.5258789e-05,-6.1035156e-05
2019-07-01T19:11:16.118Z,-0.012289987,0.0036617217,-0.20253053,-0.01914978,-0.25602722,9.793823,-5.128479,15.919495,-44.45038,-0.02150463,-0.2505769,9.803425,-0.0009840596,-0.0020763874,-0.0010519028,0.00010681152,-4.5776367e-05,-0.00012207031
2019-07-01T19:11:16.321Z,-0.012318485,0.0036865333,-0.20260948,-0.023925781,-0.2536316,9.800995,-4.8294067,15.354919,-44.42749,-0.021847647,-0.25122443,9.803407,-0.0006424524,-0.0012013912,-0.0013418198,4.5776367e-05,7.6293945e-05,-6.1035156e-05
2019-07-01T19:11:16.522Z,-0.012292408,0.0036935075,-0.20261343,-0.028717041,-0.24885559,9.805786,-5.065918,15.484619,-44.392395,-0.02208422,-0.2507515,9.803418,-0.0004047472,0.0009781122,0.0010185242,-1.5258789e-05,1.5258789e-05,-7.6293945e-05
2019-07-01T19:11:16.726Z,-0.012255396,0.0036934076,-0.20259337,-0.021530151,-0.25125122,9.810577,-5.4351807,16.18805,-44.081116,-0.022234544,-0.25003996,9.803437,-9.154901e-06,0.000752002,0.0009994507,0.00016784668,1.5258789e-05,0.0
2019-07-01T19:11:16.927Z,-0.012288342,0.0037153875,-0.20266743,-0.01675415,-0.2536316,9.800995,-6.3552856,15.551758,-45.080566,-0.022506751,-0.2507616,9.803417,-0.00069777854,-0.0011612177,0.00034332275,-1.5258789e-05,1.5258789e-05,0.00012207031
2019-07-01T19:11:17.130Z,-0.012316536,0.0036750864,-0.20257905,-0.023925781,-0.25125122,9.8033905,-5.618286,15.589905,-43.666077,-0.021643369,-0.25114086,9.80341,0.0017822143,-0.0002720654,0.0016775131,-7.6293945e-05,7.6293945e-05,0.00012207031
2019-07-01T19:11:17.330Z,-0.012313142,0.0036824294,-0.20259608,-0.01914978,-0.25602722,9.805786,-5.9906006,16.293335,-43.73474,-0.021793507,-0.25110528,9.8034115,2.3609027e-05,0.00039294362,-0.0012798309,-0.0001373291,-4.5776367e-05,6.1035156e-05
2019-07-01T19:11:17.532Z,-0.0123181315,0.003710151,-0.20266992,-0.026321411,-0.24885559,9.800995,-5.609131,15.809631,-43.623352,-0.02228711,-0.25131285,9.803404,-0.00091669336,-0.00060123205,0.0002641678,-7.6293945e-05,7.6293945e-05,0.0004272461
2019-07-01T19:11:17.740Z,-0.012284039,0.0037158367,-0.20266628,-0.026321411,-0.24885559,9.810577,-5.7998657,15.293884,-44.551086,-0.022532782,-0.2506807,9.803419,4.3988228e-05,0.000664562,-0.0019044876,0.00016784668,7.6293945e-05,-0.00012207031
2019-07-01T19:11:17.940Z,-0.012305521,0.0036832811,-0.20259419,-0.023925781,-0.25125122,9.805786,-5.883789,15.213013,-44.488525,-0.021840638,-0.25096223,9.803413,0.0007855762,-2.1100044e-05,-0.00046253204,4.5776367e-05,7.6293945e-05,-6.1035156e-05
2019-07-01T19:11:18.149Z,-0.012311765,0.0036973665,-0.2026337,-0.028717041,-0.25125122,9.796219,-4.1366577,14.750671,-44.804382,-0.022076193,-0.251139,9.803409,6.0765073e-05,-0.00055110455,0.0007991791,-0.0001373291,-9.1552734e-05,0.0
2019-07-01T19:11:18.352Z,-0.012318344,0.0036692738,-0.20256509,-0.01914978,-0.24885559,9.810577,-6.164551,16.142273,-44.514465,-0.021528132,-0.25115216,9.803409,0.0007204022,0.0004505515,0.0021343231,-1.5258789e-05,7.6293945e-05,0.0
2019-07-01T19:11:18.555Z,-0.012295527,0.0036479915,-0.20249824,-0.0047912598,-0.25842285,9.808182,-5.986023,16.52069,-44.595337,-0.021227188,-0.25062808,9.803424,0.00089165755,0.0015960038,-0.00064754486,-7.6293945e-05,-4.5776367e-05,-6.1035156e-05
2019-07-01T19:11:18.804Z,-0.012288065,0.0036221913,-0.20242801,-0.0143585205,-0.24885559,9.7986145,-6.225586,14.675903,-43.97888,-0.020779302,-0.25038084,9.8034315,-0.00027290545,0.0011115372,-0.00043964386,-1.5258789e-05,1.5258789e-05,-6.1035156e-05
2019-07-01T19:11:18.996Z,-0.0122887725,0.0035936004,-0.20235498,-0.026321411,-0.25602722,9.8033905,-5.99823,16.073608,-43.629456,-0.020246055,-0.25027943,9.803434,0.0008712113,0.0005249977,-0.0009317398,-0.0001373291,-0.00015258789,-0.00012207031
2019-07-01T19:11:19.216Z,-0.012321557,0.0036335923,-0.20247519,-0.01675415,-0.2536316,9.7986145,-6.1325073,15.049744,-44.36035,-0.02085316,-0.25107023,9.803413,-0.0009159371,-0.002025783,0.0011358261,0.00016784668,7.6293945e-05,-0.00019836426
2019-07-01T19:11:19.412Z,-0.012314867,0.003642157,-0.20249361,-0.026321411,-0.2536316,9.805786,-5.2124023,15.841675,-44.387817,-0.021039499,-0.2509762,9.803416,-0.0007302761,-0.00020587444,-0.00068092346,0.00010681152,-4.5776367e-05,6.1035156e-05
2019-07-01T19:11:19.612Z,-0.012295703,0.0036217754,-0.20243104,-0.023925781,-0.2416687,9.808182,-6.214905,15.048218,-44.810486,-0.020740205,-0.25052592,9.803427,0.0008766968,0.0007505119,-0.0009431839,4.5776367e-05,1.5258789e-05,-0.00018310547
2019-07-01T19:11:19.819Z,-0.012232084,0.0036313261,-0.20242155,-0.01675415,-0.24885559,9.808182,-5.6137085,15.736389,-43.789673,-0.021178693,-0.24934196,9.803456,-0.0008362662,0.0014885515,4.7683716e-06,-7.6293945e-05,1.5258789e-05,-6.1035156e-05
2019-07-01T19:11:20.018Z,-0.012253448,0.0036491912,-0.20247883,-0.01914978,-0.25125122,9.7986145,-4.40979,15.82489,-44.651794,-0.021422349,-0.24982442,9.803445,-0.0013100561,-0.00042828918,-0.0003080368,0.00016784668,7.6293945e-05,-0.00018310547
2019-07-01T19:11:20.223Z,-0.0122778425,0.0036533042,-0.20250243,-0.01914978,-0.24885559,9.808182,-5.7525635,16.23993,-43.83087,-0.021398403,-0.25030968,9.8034315,0.00010029599,-0.0013775826,-5.6266785e-05,4.5776367e-05,-0.00021362305,-6.1035156e-05
2019-07-01T19:11:20.427Z,-0.012261318,0.003640406,-0.20246048,-0.01914978,-0.2536316,9.8033905,-5.873108,17.256165,-44.45038,-0.021227049,-0.24994026,9.803442,0.0006436091,0.0006195158,-0.0022668839,-7.6293945e-05,1.5258789e-05,-6.1035156e-05
2019-07-01T19:11:20.629Z,-0.012233499,0.0036033327,-0.20235045,-0.021530151,-0.24645996,9.7986145,-5.7525635,16.313171,-44.044495,-0.020653546,-0.24925655,9.80346,0.00078881346,0.0013889521,0.0015201569,0.00016784668,-4.5776367e-05,6.1035156e-05
2019-07-01T19:11:20.831Z,-0.012264175,0.0036177933,-0.20240396,-0.028717041,-0.25125122,9.808182,-5.1986694,16.285706,-45.27893,-0.020795848,-0.24990414,9.803444,-1.27945095e-05,-0.0010507256,0.0019721985,-1.5258789e-05,7.6293945e-05,-6.1035156e-05
2019-07-01T19:11:21.035Z,-0.012291467,0.0036175228,-0.20241785,-0.021530151,-0.24406433,9.791428,-6.1813354,15.779114,-44.662476,-0.020678733,-0.25042742,9.803431,-0.0003735125,-0.0007646382,0.0005130768,-0.0001373291,-4.5776367e-05,-0.00018310547
2019-07-01T19:11:21.247Z,-0.012301186,0.0036616984,-0.20253646,-0.01675415,-0.24885559,9.808182,-6.2179565,16.493225,-43.156433,-0.021458164,-0.250792,9.803419,-0.001517145,-0.0011246502,-0.0006170273,-1.5258789e-05,-4.5776367e-05,-0.00018310547
2019-07-01T19:11:21.438Z,-0.012293714,0.003598628,-0.20237054,-0.01914978,-0.2536316,9.812973,-5.819702,16.523743,-43.69507,-0.020319028,-0.2503946,9.803432,0.001890149,0.00086793303,-0.00041103363,4.5776367e-05,-9.1552734e-05,-0.00032043457
2019-07-01T19:11:21.639Z,-0.012284141,0.003593418,-0.20235205,-0.026321411,-0.24645996,9.808182,-5.9783936,14.84375,-44.485474,-0.020261692,-0.25018972,9.803437,0.00039983355,0.00043562055,0.0013237,-1.5258789e-05,1.5258789e-05,-0.00024414062
2019-07-01T19:11:21.841Z,-0.012281624,0.0036293275,-0.2024429,-0.01914978,-0.25602722,9.808182,-5.3970337,15.32135,-44.789124,-0.020938128,-0.2502858,9.803433,-0.0010737497,-0.00039878488,0.001206398,-1.5258789e-05,1.5258789e-05,-0.00012207031
2019-07-01T19:11:22.045Z,-0.012270999,0.0036807486,-0.20256923,-0.023925781,-0.24645996,9.800995,-4.812622,15.797424,-44.641113,-0.021935591,-0.25028875,9.8034315,-0.0010376237,-0.00017091632,-0.0003156662,0.00016784668,0.0001373291,-6.1035156e-05
2019-07-01T19:11:22.247Z,-0.012255484,0.0036965813,-0.20260157,-0.0143585205,-0.2632141,9.810577,-5.7922363,15.362549,-44.007874,-0.022293052,-0.25005445,9.803436,-0.00043671206,0.00054711103,-0.0006875992,-7.6293945e-05,0.00019836426,-0.00050354004
2019-07-01T19:11:22.452Z,-0.012292349,0.0037261713,-0.20269725,-0.021530151,-0.2536316,9.808182,-6.5689087,16.038513,-44.140625,-0.02269028,-0.2508821,9.803414,-0.0010033622,-0.002240479,-0.0023765564,0.00016784668,1.5258789e-05,-0.00018310547
2019-07-01T19:11:22.648Z,-0.012273926,0.003707418,-0.20263925,-0.01914978,-0.24645996,9.810577,-5.6900024,16.03241,-45.085144,-0.022418223,-0.2504525,9.803426,0.00017373264,0.0013995469,-0.0003080368,-1.5258789e-05,-9.1552734e-05,-0.00024414062
2019-07-01T19:11:22.848Z,-0.012278811,0.0036931827,-0.20260532,-0.023925781,-0.26081848,9.808182,-6.2591553,15.846252,-44.721985,-0.022134107,-0.25048897,9.803426,0.0010795258,0.00022786856,-0.00020217896,-1.5258789e-05,1.5258789e-05,-0.00032043457
2019-07-01T19:11:23.051Z,-0.012286643,0.003714603,-0.20266451,-0.01675415,-0.24885559,9.800995,-5.5282593,15.887451,-43.836975,-0.02249919,-0.25072578,9.803418,-0.00023120455,-0.0009405315,0.0022525787,-0.00019836426,0.0001373291,-0.00012207031
2019-07-01T19:11:23.262Z,-0.012292508,0.0037079642,-0.2026506,-0.03111267,-0.2536316,9.800995,-6.285095,15.336609,-45.051575,-0.022351943,-0.25081173,9.803417,0.000110615045,-0.00060120225,0.0007047653,0.00022888184,0.0001373291,-0.00018310547
2019-07-01T19:11:23.473Z,-0.012255598,0.0037679116,-0.20278472,-0.01914978,-0.2536316,9.805786,-6.5109253,15.611267,-44.8349,-0.023615643,-0.25034446,9.803427,-0.0022289492,0.0008119643,-0.002084732,4.5776367e-05,-9.1552734e-05,0.0
2019-07-01T19:11:23.667Z,-0.012281839,0.0037175214,-0.20266943,-0.026321411,-0.2368927,9.793823,-6.0668945,16.586304,-44.65332,-0.022573078,-0.25064528,9.803421,0.0015201923,-0.00055882335,0.0005226135,4.5776367e-05,7.6293945e-05,4.5776367e-05
2019-07-01T19:11:23.932Z,-0.0122936405,0.0037290517,-0.20270534,-0.026321411,-0.25602722,9.8033905,-6.829834,15.664673,-44.735718,-0.022738386,-0.25091854,9.803413,0.0007209871,-7.715821e-05,0.0009660721,0.00016784668,1.5258789e-05,-6.1035156e-05
2019-07-01T19:11:24.121Z,-0.012304258,0.0037059572,-0.20265174,-0.01675415,-0.24406433,9.805786,-6.5612793,15.881348,-42.43622,-0.022266395,-0.25102937,9.8034115,0.0012115594,-0.0004248917,0.0011205673,-7.6293945e-05,1.5258789e-05,-7.6293945e-05
2019-07-01T19:11:24.326Z,-0.012299757,0.0036876078,-0.20260222,-0.023925781,-0.25602722,9.8033905,-4.9804688,15.562439,-44.000244,-0.021944582,-0.25086892,9.803415,0.0011345092,0.0003681779,0.0005950928,4.5776367e-05,7.6293945e-05,-0.00024414062
2019-07-01T19:11:24.531Z,-0.012309382,0.0036957243,-0.20262821,-0.021530151,-0.24645996,9.820145,-5.819702,16.523743,-43.69507,-0.022055538,-0.25108656,9.80341,0.00028373115,-0.00036525726,-0.00040626526,4.5776367e-05,7.6293945e-05,-0.0005645752
2019-07-01T19:11:24.731Z,-0.012324973,0.0036962088,-0.20263779,-0.021530151,-0.2416687,9.808182,-4.4647217,16.249084,-43.73169,-0.022000408,-0.2513881,9.803403,-0.000488488,-0.0007799268,5.2452087e-05,-1.5258789e-05,1.5258789e-05,0.0
2019-07-01T19:11:24.942Z,-0.012267462,0.0036500285,-0.20248847,-0.023925781,-0.2536316,9.805786,-5.5023193,16.551208,-44.459534,-0.021380298,-0.25009704,9.803437,0.0012850072,0.0024531484,-0.0017261505,4.5776367e-05,-4.5776367e-05,-0.00012207031
2019-07-01T19:11:25.139Z,-0.0122616915,0.003653874,-0.20249526,-0.01914978,-0.24406433,9.7986145,-5.932617,15.789795,-43.76526,-0.021475343,-0.25000167,9.80344,-0.00076971576,-0.00026199222,0.0015611649,0.00010681152,-4.5776367e-05,-0.00018310547
2019-07-01T19:11:25.341Z,-0.012282693,0.0036176208,-0.20241341,-0.01675415,-0.25125122,9.812973,-5.9143066,16.075134,-43.17932,-0.020716593,-0.25025925,9.803435,0.0015695896,-0.00047013164,0.0005636215,-1.5258789e-05,-9.1552734e-05,0.00012207031
2019-07-01T19:11:25.545Z,-0.012312623,0.0036352954,-0.20247479,-0.01675415,-0.24645996,9.7986145,-6.3964844,16.421509,-44.825745,-0.020921463,-0.25090545,9.803418,0.00034092553,-0.00077599287,0.00069618225,-7.6293945e-05,7.6293945e-05,0.0
2019-07-01T19:11:25.749Z,-0.012289921,0.0036135304,-0.20240678,-0.01914978,-0.24645996,9.796219,-6.225586,16.423035,-43.699646,-0.020611027,-0.25038165,9.8034315,-0.0001981575,0.0010992289,0.00030136108,-7.6293945e-05,-3.0517578e-05,-0.00024414062
2019-07-01T19:11:25.953Z,-0.012275185,0.003631889,-0.20244603,-0.026321411,-0.24885559,9.800995,-6.474304,16.415405,-44.673157,-0.02101209,-0.2501724,9.803436,-0.0010005534,0.0006685555,0.0018005371,0.00010681152,-4.5776367e-05,0.00012207031
2019-07-01T19:11:26.148Z,-0.012275045,0.0036479784,-0.20248726,-0.028717041,-0.2536316,9.800995,-5.596924,16.255188,-44.59076,-0.021311115,-0.25023445,9.803433,-0.0011764485,-0.0002539456,-0.001832962,-0.0002593994,-0.00015258789,-0.00012207031
2019-07-01T19:11:26.348Z,-0.0123024555,0.0037193159,-0.20268506,-0.01914978,-0.24885559,9.8033905,-5.102539,16.27655,-43.093872,-0.022521561,-0.25104862,9.803411,-0.0021165926,-0.0020565689,0.0005350113,0.00016784668,-4.5776367e-05,0.0
2019-07-01T19:11:26.547Z,-0.0122933155,0.0037000114,-0.20263061,-0.01914978,-0.24406433,9.808182,-5.8502197,15.867615,-43.902588,-0.022201123,-0.2507952,9.803418,0.0006757062,0.00080290437,3.33786e-05,4.5776367e-05,1.5258789e-05,0.00012207031
2019-07-01T19:11:26.763Z,-0.012278146,0.0036741344,-0.20255607,-0.021530151,-0.24885559,9.7986145,-5.670166,16.394043,-44.483948,-0.021783529,-0.25039938,9.803428,0.00024225749,0.00015702844,-0.00045108795,-1.5258789e-05,-4.5776367e-05,-0.00019836426
2019-07-01T19:11:26.961Z,-0.012276656,0.003657171,-0.20251173,-0.026321411,-0.24885559,9.789032,-5.0186157,16.65802,-44.833374,-0.02147501,-0.25030246,9.803432,0.0011382606,-0.00019410253,-0.00079250336,0.00010681152,-4.5776367e-05,-0.00018310547
2019-07-01T19:11:27.166Z,-0.012254496,0.0036887764,-0.202581,-0.026321411,-0.2536316,9.800995,-5.94635,15.65094,-44.85016,-0.022152334,-0.250004,9.803437,-0.001298599,-2.1189451e-05,-0.0013275146,0.00022888184,7.6293945e-05,-6.1035156e-05
2019-07-01T19:11:27.370Z,-0.012274427,0.0036998864,-0.2026202,-0.023925781,-0.25842285,9.796219,-6.340027,15.765381,-44.28253,-0.02227647,-0.25043175,9.803427,-0.0002132263,-0.0010285974,-9.250641e-05,0.00010681152,1.5258789e-05,-0.00019836426
2019-07-01T19:11:27.572Z,-0.012293587,0.0037002007,-0.20263125,-0.01914978,-0.24645996,9.793823,-5.6869507,15.875244,-43.60504,-0.022203514,-0.25080115,9.803417,0.00018679164,-0.0011479259,-6.484985e-05,0.00010681152,0.0001373291,-0.00024414062
2019-07-01T19:11:27.779Z,-0.012286189,0.0036962954,-0.20261726,-0.023925781,-0.25602722,9.815353,-6.5979004,15.457153,-44.40918,-0.0221615,-0.25064325,9.803421,0.00038904883,-9.8884106e-05,0.00011634827,4.5776367e-05,-9.1552734e-05,0.0
2019-07-01T19:11:27.979Z,-0.0122786155,0.0037053898,-0.20263655,-0.01914978,-0.24645996,9.817749,-6.7962646,16.316223,-44.075012,-0.022361321,-0.25053442,9.803424,0.000116312876,-0.0002026856,0.0003900528,4.5776367e-05,0.0002593994,6.1035156e-05
2019-07-01T19:11:28.173Z,-0.012251102,0.0036980298,-0.20260295,-0.021530151,-0.26081848,9.7986145,-5.4992676,16.548157,-44.081116,-0.022337934,-0.2499761,9.803438,-0.00015003234,0.00091540813,0.0010614395,0.000289917,-4.5776367e-05,-0.00019836426
2019-07-01T19:11:28.379Z,-0.01221414,0.0037251152,-0.2026527,-0.01675415,-0.24885559,9.812973,-5.6884766,15.878296,-43.907166,-0.022992339,-0.24937513,9.8034525,-0.001891287,0.000557065,-0.00010204315,-1.5258789e-05,-9.1552734e-05,0.0
2019-07-01T19:11:28.573Z,-0.012193769,0.0037496844,-0.20270485,-0.021530151,-0.24885559,9.810577,-5.192566,16.125488,-43.57605,-0.023531893,-0.24908286,9.803458,-0.00014711358,0.0004992932,-0.0002040863,-1.5258789e-05,7.6293945e-05,-0.00032043457
2019-07-01T19:11:28.778Z,-0.012237774,0.0036986594,-0.20259744,-0.021530151,-0.24645996,9.8033905,-5.747986,16.386414,-44.029236,-0.022404402,-0.24972256,9.803445,0.002541311,-0.0014857352,0.0011444092,0.00010681152,7.6293945e-05,6.1035156e-05
2019-07-01T19:11:28.980Z,-0.012247338,0.003698907,-0.20260319,-0.021530151,-0.25125122,9.8033905,-5.014038,16.80603,-45.03174,-0.022369679,-0.24990731,9.80344,0.00035597198,-0.0003298223,0.0007638931,4.5776367e-05,0.0001373291,-0.00012207031
2019-07-01T19:11:29.180Z,-0.012267956,0.003694574,-0.20260309,-0.01914978,-0.24885559,9.800995,-5.9295654,15.939331,-44.413757,-0.022204546,-0.25028598,9.803431,-3.8931146e-05,-0.0006778538,-0.0007724762,-7.6293945e-05,-0.00015258789,-0.00024414062
2019-07-01T19:11:29.384Z,-0.012263202,0.0036827915,-0.2025703,-0.021530151,-0.25125122,9.808182,-6.2698364,17.373657,-44.335938,-0.022005532,-0.25014716,9.803434,0.0007067602,0.00012978911,-0.001156807,0.00010681152,7.6293945e-05,6.1035156e-05
2019-07-01T19:11:29.589Z,-0.0122941565,0.0036861987,-0.2025956,-0.01675415,-0.2536316,9.810577,-5.2383423,17.15393,-44.72351,-0.02194148,-0.25075564,9.803419,0.00041459315,-0.0011754334,0.0006637573,-7.6293945e-05,1.5258789e-05,-7.6293945e-05
2019-07-01T19:11:29.827Z,-0.012319623,0.00364687,-0.20250826,-0.01675415,-0.24645996,9.805786,-5.282593,16.055298,-44.34204,-0.021107364,-0.2510865,9.8034115,0.0017318279,-0.0010735691,-3.9100647e-05,4.5776367e-05,0.00019836426,-6.1035156e-05
2019-07-01T19:11:30.005Z,-0.012309313,0.0036316377,-0.20246363,-0.01675415,-0.24885559,9.791428,-6.286621,17.08374,-44.77234,-0.02086722,-0.2508271,9.803419,0.0002863314,0.0005758703,0.0001373291,0.00010681152,-4.5776367e-05,0.00012207031
2019-07-01T19:11:30.204Z,-0.012277399,0.0036420238,-0.20247324,-0.028717041,-0.24406433,9.805786,-5.4641724,15.5303955,-44.137573,-0.021190988,-0.25025576,9.803434,-0.00010641664,0.00048449636,0.0005645752,0.00010681152,-4.5776367e-05,-6.1035156e-05
2019-07-01T19:11:30.413Z,-0.012264425,0.0036901631,-0.20258988,-0.021530151,-0.25125122,9.808182,-5.4397583,16.116333,-44.322205,-0.022137241,-0.25020036,9.803432,-0.0017851535,-5.1259995e-05,-0.00058078766,4.5776367e-05,1.5258789e-05,-1.5258789e-05
2019-07-01T19:11:30.616Z,-0.012308555,0.0036642372,-0.20254692,-0.023925781,-0.24885559,9.805786,-5.3970337,16.990662,-43.84308,-0.021474965,-0.2509438,9.803415,0.0016119648,-0.0012073815,0.0005712509,-1.5258789e-05,0.0001373291,0.0
2019-07-01T19:11:30.812Z,-0.012302736,0.0036947583,-0.20262218,-0.028717041,-0.2536316,9.793823,-4.853821,16.66565,-44.537354,-0.02206495,-0.250955,9.803413,-0.00042074546,-0.00094789267,0.0014925003,-7.6293945e-05,0.0001373291,-0.00012207031
2019-07-01T19:11:31.023Z,-0.012276366,0.0037098536,-0.2026468,-0.01914978,-0.25602722,9.805786,-5.343628,16.63971,-45.27588,-0.022453366,-0.25050917,9.803424,-0.0002778191,0.0009856522,-0.0012426376,0.00022888184,0.0002593994,-0.00012207031
2019-07-01T19:11:31.224Z,-0.012294637,0.0037023819,-0.2026374,-0.0143585205,-0.24885559,9.8033905,-5.6640625,16.542053,-44.604492,-0.02223965,-0.2508301,9.803416,0.0007143989,-0.00059470534,0.00045394897,4.5776367e-05,7.6293945e-05,-0.00032043457
2019-07-01T19:11:31.426Z,-0.012231057,0.0036469914,-0.20246121,-0.01914978,-0.25125122,9.7986145,-5.3131104,17.068481,-43.83087,-0.02147353,-0.24938531,9.803455,0.0016106982,0.0022559315,-0.00050640106,4.5776367e-05,1.5258789e-05,6.1035156e-05
2019-07-01T19:11:31.617Z,-0.012188369,0.0036525496,-0.20245267,-0.026321411,-0.26081848,9.8033905,-4.953003,16.37268,-45.04547,-0.021751989,-0.24858747,9.803474,0.00020962395,0.0014451593,-0.0009689331,4.5776367e-05,7.6293945e-05,0.00012207031
2019-07-01T19:11:31.838Z,-0.012287138,0.0037013788,-0.20263082,-0.0143585205,-0.24885559,9.808182,-5.5496216,17.276001,-44.384766,-0.02225189,-0.250682,9.803421,-0.0004808344,-0.0045957267,-0.000333786,4.5776367e-05,0.00019836426,6.1035156e-05
2019-07-01T19:11:32.035Z,-0.012278506,0.0036922635,-0.2026028,-0.01914978,-0.24885559,9.796219,-5.935669,15.867615,-44.581604,-0.022118313,-0.2504794,9.803427,0.0001026541,0.00046500564,-5.9127808e-05,0.00016784668,1.5258789e-05,-6.1035156e-05
2019-07-01T19:11:32.232Z,-0.01226959,0.0036604593,-0.20251639,-0.01914978,-0.24885559,9.791428,-6.6986084,16.609192,-43.492126,-0.021565039,-0.25017992,9.803434,0.00051125325,0.00017294288,0.0005874634,-1.5258789e-05,-4.5776367e-05,0.0
2019-07-01T19:11:32.440Z,-0.0122502735,0.0036651744,-0.20251817,-0.021530151,-0.2536316,9.8033905,-5.5618286,17.134094,-44.943237,-0.021731881,-0.24982776,9.803443,-3.93223e-05,0.00053463876,-0.00024032593,0.00010681152,-9.1552734e-05,0.0
2019-07-01T19:11:32.641Z,-0.012221757,0.0036220306,-0.20239218,-0.01675415,-0.2416687,9.8033905,-5.845642,15.863037,-43.299866,-0.02104865,-0.24910618,9.803464,0.0014296565,0.0010128319,0.00079250336,0.00010681152,1.5258789e-05,0.0
2019-07-01T19:11:32.844Z,-0.012176325,0.003647623,-0.20243359,-0.026321411,-0.24645996,9.8033905,-5.7250977,16.897583,-43.927002,-0.02171005,-0.24833621,9.803481,-0.0010240767,0.001420036,-0.0021886826,4.5776367e-05,0.0001373291,0.00012207031
2019-07-01T19:11:33.048Z,-0.012187993,0.0036742042,-0.20250805,-0.01914978,-0.25125122,9.8033905,-5.770874,15.951538,-44.64569,-0.022155305,-0.24866746,9.803472,-0.0010509174,-0.0003901273,0.00078105927,-1.5258789e-05,-9.1552734e-05,-6.1035156e-05
2019-07-01T19:11:33.248Z,-0.012215571,0.0036397737,-0.2024344,-0.01914978,-0.24885559,9.815353,-5.4733276,16.97998,-43.08777,-0.021403236,-0.24905868,9.803463,0.0020271186,-0.0007285923,0.00019550323,4.5776367e-05,0.0001373291,0.00016784668
2019-07-01T19:11:33.452Z,-0.012218461,0.0036491156,-0.20245993,-0.021530151,-0.24885559,9.805786,-5.039978,15.994263,-43.98651,-0.021564672,-0.24915184,9.80346,-0.00092353486,-0.0006122589,0.0006046295,-7.6293945e-05,-4.5776367e-05,-6.1035156e-05
2019-07-01T19:11:33.651Z,-0.012211659,0.003656252,-0.20247462,-0.023925781,-0.25125122,9.805786,-5.831909,16.305542,-43.966675,-0.021725021,-0.2490499,9.803464,-0.00028917007,0.00024293363,0.00088214874,4.5776367e-05,-4.5776367e-05,-0.00032043457
2019-07-01T19:11:33.851Z,-0.012230877,0.0036878814,-0.20256609,-0.0143585205,-0.25125122,9.808182,-6.3064575,16.494751,-43.984985,-0.02223282,-0.24954656,9.803449,-0.0004982818,-0.0009370595,0.00011062622,4.5776367e-05,7.6293945e-05,-0.00012207031
2019-07-01T19:11:34.066Z,-0.012264891,0.0036061164,-0.20237437,-0.026321411,-0.24645996,9.808182,-6.486511,16.12091,-44.581604,-0.020576295,-0.24987091,9.803445,0.0035825875,-0.0003633499,0.0004014969,-7.6293945e-05,0.0001373291,-0.00018310547
2019-07-01T19:11:34.265Z,-0.01224749,0.0036503375,-0.20247859,-0.01914978,-0.24885559,9.808182,-5.302429,15.692139,-44.866943,-0.021468092,-0.24971452,9.803447,-0.0012641754,-6.367266e-05,-0.001332283,-1.5258789e-05,-4.5776367e-05,-0.00018310547
2019-07-01T19:11:34.468Z,-0.012257369,0.0036206625,-0.20240769,-0.028717041,-0.25125122,9.7986145,-5.0323486,16.29181,-44.75708,-0.020877024,-0.24978492,9.803447,0.0010108445,-2.284348e-05,-0.002322197,4.5776367e-05,0.00019836426,-6.1035156e-05
2019-07-01T19:11:34.669Z,-0.012271795,0.0036972868,-0.2026121,-0.0143585205,-0.2536316,9.800995,-5.1971436,16.20636,-44.6167,-0.022239072,-0.2503707,9.803429,-0.002647275,-0.0018182397,-0.00011920929,4.5776367e-05,-9.1552734e-05,0.0
2019-07-01T19:11:34.871Z,-0.012281045,0.0036915615,-0.20260236,-0.026321411,-0.25602722,9.810577,-5.718994,15.222168,-44.11621,-0.02209485,-0.25052536,9.803425,0.00056517683,-0.0009492934,-0.00024700165,0.00010681152,7.6293945e-05,0.00012207031
2019-07-01T19:11:35.112Z,-0.01231973,0.0036970354,-0.2026371,-0.026321411,-0.24885559,9.8033905,-5.8547974,15.794373,-44.070435,-0.0220373,-0.25129068,9.803405,0.00073940493,-0.0015852749,-0.0007991791,-7.6293945e-05,-9.1552734e-05,-0.00012207031
2019-07-01T19:11:35.336Z,-0.01230418,0.0036727549,-0.20256644,-0.01675415,-0.26081848,9.796219,-5.9921265,16.142273,-43.086243,-0.021650922,-0.25089404,9.803415,0.0010693464,0.0011064708,-0.0006828308,-7.6293945e-05,-4.5776367e-05,6.1035156e-05
2019-07-01T19:11:35.532Z,-0.01230025,0.003628122,-0.20244975,-0.026321411,-0.2536316,9.8033905,-6.1538696,16.438293,-44.908142,-0.020839244,-0.2506388,9.803424,0.0016907286,-0.00010892749,-0.0011014938,4.5776367e-05,0.00019836426,0.0
2019-07-01T19:11:35.736Z,-0.012296519,0.0036535172,-0.20251296,-0.01914978,-0.25842285,9.817749,-6.0653687,16.514587,-44.36798,-0.021325607,-0.25066936,9.803422,-0.000918258,-5.301833e-05,0.001982689,0.00010681152,-9.1552734e-05,0.0
2019-07-01T19:11:35.934Z,-0.012302099,0.0036554823,-0.202521,-0.035888672,-0.24645996,9.808182,-6.185913,15.629578,-44.39087,-0.021339122,-0.25078452,9.80342,4.1879714e-05,-0.00041937828,0.0005168915,-1.5258789e-05,-4.5776367e-05,6.1035156e-05
2019-07-01T19:11:36.139Z,-0.012291344,0.0037262568,-0.20269693,-0.021530151,-0.24885559,9.800995,-6.7199707,16.401672,-45.043945,-0.022695998,-0.25086313,9.803415,-0.0021865796,-0.00033828616,0.00018024445,-1.5258789e-05,0.00019836426,0.00012207031
2019-07-01T19:11:36.341Z,-0.01225122,0.0036717039,-0.20253544,-0.028717041,-0.25842285,9.8033905,-4.978943,15.791321,-45.388794,-0.02184911,-0.24987224,9.803441,0.0017580688,0.00155963,0.00044250488,0.00010681152,7.6293945e-05,0.0
2019-07-01T19:11:36.543Z,-0.012297042,0.0037073332,-0.20265141,-0.01914978,-0.2536316,9.805786,-5.114746,16.212463,-44.3161,-0.022321593,-0.2508963,9.803415,-0.0011267941,-0.0022131205,-0.00051021576,0.00010681152,7.6293945e-05,6.1035156e-05
2019-07-01T19:11:36.745Z,-0.012314357,0.003684604,-0.20260231,-0.028717041,-0.25125122,9.820145,-5.1208496,16.140747,-44.859314,-0.021828847,-0.25113735,9.80341,0.0017406642,-0.0004989803,0.0030183792,-1.5258789e-05,-4.5776367e-05,-6.1035156e-05
2019-07-01T19:11:36.949Z,-0.01227889,0.0037233431,-0.2026828,-0.021530151,-0.2536316,9.805786,-5.8654785,15.730286,-45.13855,-0.022693187,-0.25061208,9.803421,-0.000980977,0.0011219084,-0.00037670135,0.00010681152,0.00019836426,-0.00032043457
2019-07-01T19:11:37.149Z,-0.012253781,0.0037015583,-0.20261344,-0.028717041,-0.24885559,9.810577,-6.137085,16.65039,-43.884277,-0.022392374,-0.25004178,9.803436,0.00086762756,0.0012465417,-0.0016946793,-7.6293945e-05,0.0001373291,-0.0001373291
2019-07-01T19:11:37.353Z,-0.01229134,0.003696591,-0.20262077,-0.01675415,-0.25842285,9.810577,-3.994751,16.143799,-44.906616,-0.022145806,-0.25074342,9.803419,-0.00010978058,-0.0011458695,0.0014257431,-7.6293945e-05,3.0517578e-05,-0.00018310547
2019-07-01T19:11:37.555Z,-0.012290462,0.0036478406,-0.20249516,-0.023925781,-0.25602722,9.810577,-6.147766,16.355896,-43.640137,-0.02124521,-0.25053015,9.803427,0.0021003857,5.4568052e-05,-0.0016059875,4.5776367e-05,-4.5776367e-05,0.0
2019-07-01T19:11:37.760Z,-0.012309997,0.0036280414,-0.20245476,-0.021530151,-0.24406433,9.805786,-5.3115845,15.396118,-44.322205,-0.020797707,-0.2508258,9.80342,0.0007088408,-0.0012875497,0.0019550323,0.00010681152,1.5258789e-05,-0.00018310547
2019-07-01T19:11:37.967Z,-0.01230758,0.0036372978,-0.20247723,-0.021530151,-0.25602722,9.8033905,-5.1712036,16.944885,-45.524597,-0.020979322,-0.2508166,9.80342,-7.246435e-05,0.00011757016,-0.0015649796,0.00010681152,1.5258789e-05,0.0
2019-07-01T19:11:38.212Z,-0.012284841,0.0036424773,-0.20247838,-0.021530151,-0.25125122,9.796219,-4.8553467,16.667175,-44.537354,-0.021168824,-0.25040057,9.803431,0.00036093034,0.0011321902,-0.00024700165,-7.6293945e-05,7.6293945e-05,-0.00012207031
2019-07-01T19:11:38.370Z,-0.012258744,0.0035979187,-0.20235004,-0.023925781,-0.24885559,9.808182,-6.2194824,16.7984,-45.05768,-0.020449461,-0.24971983,9.803449,0.0010763556,0.00093209743,0.0006351471,-1.5258789e-05,7.6293945e-05,-0.00024414062
2019-07-01T19:11:38.572Z,-0.012243761,0.0036192427,-0.20239677,-0.028717041,-0.24645996,9.812973,-5.432129,16.339111,-44.654846,-0.020906575,-0.24951772,9.803453,-0.00014527887,-0.0002361983,-0.00038528442,0.00022888184,1.5258789e-05,0.00012207031
2019-07-01T19:11:38.772Z,-0.012280935,0.00362384,-0.20242845,-0.023925781,-0.2416687,9.793823,-6.555176,16.48407,-44.80591,-0.020839168,-0.2502505,9.803434,-0.00070052035,-0.0021222234,0.00037765503,-1.5258789e-05,1.5258789e-05,-6.1035156e-05
2019-07-01T19:11:38.977Z,-0.0122943055,0.0036488043,-0.20249969,-0.01914978,-0.25842285,9.805786,-4.8049927,15.940857,-44.459534,-0.02124729,-0.25060788,9.803425,-0.000523638,-0.0008325577,-0.0023031235,0.000289917,-4.5776367e-05,-0.00012207031
2019-07-01T19:11:39.181Z,-0.0122958785,0.003680606,-0.20258217,-0.028717041,-0.24645996,9.796219,-5.0949097,16.574097,-43.940735,-0.02183067,-0.25076622,9.80342,-0.000658663,-0.0004606247,-0.0012111664,-1.5258789e-05,1.5258789e-05,-0.00024414062
2019-07-01T19:11:39.383Z,-0.012276957,0.0036725758,-0.20255144,-0.026321411,-0.2536316,9.805786,-4.951477,16.371155,-44.743347,-0.021759504,-0.25037026,9.803429,-0.0002557803,0.0003607273,0.0009384155,4.5776367e-05,7.6293945e-05,-0.00012207031
2019-07-01T19:11:39.585Z,-0.0122865485,0.003658603,-0.20252068,-0.026321411,-0.24645996,9.805786,-6.3430786,15.690613,-44.29779,-0.021460911,-0.2504983,9.803427,0.0004081037,-0.00045832992,0.0011014938,0.00010681152,-0.00015258789,-0.00036621094
2019-07-01T19:11:39.790Z,-0.012295821,0.0036921005,-0.20261164,-0.021530151,-0.2536316,9.810577,-5.911255,16.378784,-44.552612,-0.021259788,-0.24992478,9.803442,-0.0009141918,-0.0003694296,0.001540184,4.5776367e-05,0.0001373291,-0.00038146973
2019-07-01T19:11:39.984Z,-0.012269715,0.0036668193,-0.20253278,-0.023925781,-0.24645996,9.8033905,-5.484009,16.915894,-44.30847,-0.021682499,-0.25020793,9.803433,-0.0003307592,-0.0012124479,-0.00023174286,0.00016784668,-4.5776367e-05,4.5776367e-05
2019-07-01T19:11:40.203Z,-0.012264396,0.0037026694,-0.20262197,-0.021530151,-0.25842285,9.805786,-6.098938,15.78064,-44.288635,-0.022369333,-0.25025022,9.803431,-0.0010791589,-0.0002361238,-0.00094890594,-1.5258789e-05,0.00019836426,-6.1035156e-05
2019-07-01T19:11:40.400Z,-0.012272109,0.0036688459,-0.20253927,-0.023925781,-0.24645996,9.800995,-6.0165405,15.786743,-44.1391,-0.02171025,-0.2502621,9.803432,0.0016042124,-0.001159817,0.00079250336,0.00022888184,7.6293945e-05,-6.1035156e-05
2019-07-01T19:11:40.602Z,-0.012258077,0.0036608083,-0.20251113,-0.021530151,-0.25602722,9.808182,-6.8374634,15.440369,-44.252014,-0.021618823,-0.2499601,9.803439,-0.00015091896,-3.3080578e-05,-0.0004339218,0.00022888184,1.5258789e-05,6.1035156e-05
2019-07-01T19:11:40.804Z,-0.012302407,0.0036742135,-0.20256925,-0.03111267,-0.25842285,9.805786,-6.086731,16.075134,-44.607544,-0.021685269,-0.25086588,9.803417,-0.00032816082,-0.0017617941,0.00035190582,0.00016784668,-4.5776367e-05,-6.1035156e-05
2019-07-01T19:11:41.006Z,-0.012329251,0.0036655127,-0.20256127,-0.01675415,-0.25125122,9.793823,-5.1223755,16.067505,-44.573975,-0.02141354,-0.2513466,9.803405,0.0008315239,-0.0010702908,-0.0026350021,-0.0001373291,-4.5776367e-05,-0.00018310547
2019-07-01T19:11:41.205Z,-0.012337278,0.0036577892,-0.20254573,-0.01914978,-0.24645996,9.808182,-5.8120728,16.822815,-44.540405,-0.021237306,-0.25146973,9.803403,0.00042724423,2.425909e-05,0.00078868866,4.5776367e-05,7.6293945e-05,6.1035156e-05
2019-07-01T19:11:41.409Z,-0.012308053,0.0036573713,-0.20252903,-0.009567261,-0.25602722,9.808182,-5.392456,15.467834,-44.909668,-0.021349689,-0.25090653,9.803417,0.0002972614,0.0011448562,0.0016450882,-1.5258789e-05,1.5258789e-05,6.1035156e-05
2019-07-01T19:11:41.615Z,-0.012317827,0.003637699,-0.20248374,-0.021530151,-0.2536316,9.805786,-5.5252075,16.04004,-44.485474,-0.020944651,-0.2510151,9.803414,0.00060996227,-0.00017285347,0.00061893463,-7.6293945e-05,7.6293945e-05,-0.00012207031
2019-07-01T19:11:41.820Z,-0.01235872,0.003644768,-0.20252377,-0.021530151,-0.24885559,9.805786,-4.7286987,15.72113,-43.754578,-0.020907678,-0.25182927,9.803393,0.0005716067,-0.0022436678,-0.0013418198,4.5776367e-05,7.6293945e-05,-0.00018310547
2019-07-01T19:11:42.022Z,-0.012317807,0.0036406096,-0.20249121,-0.023925781,-0.23928833,9.810577,-5.5862427,16.397095,-44.184875,-0.020998714,-0.25102645,9.803414,-0.0014906749,0.0007612407,-0.0017061234,0.00022888184,-9.1552734e-05,-0.00038146973
2019-07-01T19:11:42.225Z,-0.012250792,0.0036621767,-0.20251074,-0.023925781,-0.24406433,9.812973,-5.796814,15.441895,-44.97528,-0.021674145,-0.24982564,9.803443,-0.0013019443,0.00172925,0.0014104843,0.00022888184,-0.00015258789,0.0
2019-07-01T19:11:42.427Z,-0.01220973,0.0036340556,-0.20241661,-0.028717041,-0.2536316,9.810577,-5.3848267,15.461731,-44.00482,-0.021321142,-0.24892347,9.803468,0.0007428173,0.0013408214,0.0020561218,0.00010681152,1.5258789e-05,-0.00012207031
2019-07-01T19:11:42.628Z,-0.012272955,0.0036736296,-0.20255199,-0.01914978,-0.25125122,9.7986145,-6.616211,14.941406,-43.910217,-0.021795506,-0.25029764,9.8034315,-0.0009361189,-0.0030594766,-0.0018262863,9.1552734e-05,-6.1035156e-05,-9.1552734e-05
2019-07-01T19:11:42.832Z,-0.012318707,0.0036191572,-0.20243661,-0.021530151,-0.24885559,9.796219,-6.237793,15.977478,-42.733765,-0.020597143,-0.25095737,9.803416,0.0024123378,-0.0009662807,-9.536743e-05,-3.0517578e-05,6.1035156e-05,0.00021362305
2019-07-01T19:11:43.035Z,-0.012295771,0.003660837,-0.20253135,-0.01675415,-0.24645996,9.812973,-5.4229736,14.659119,-44.24286,-0.021464441,-0.25068447,9.803421,-0.0014962871,0.00019422174,-6.580353e-05,-3.0517578e-05,0.0,3.0517578e-05
2019-07-01T19:11:43.233Z,-0.012324582,0.0036340395,-0.20247796,-0.021530151,-0.25125122,9.8033905,-4.786682,16.229248,-43.87207,-0.020849027,-0.25113016,9.803412,0.0009858627,-0.00030443072,0.00012397766,3.0517578e-05,0.0,3.0517578e-05
2019-07-01T19:11:43.439Z,-0.01229323,0.0036608684,-0.20253009,-0.0143585205,-0.24885559,9.800995,-4.824829,15.426636,-44.184875,-0.021475472,-0.25063577,9.803423,-0.001485236,0.0015800297,-7.534027e-05,-0.00015258789,0.0,-9.1552734e-05
2019-07-01T19:11:43.641Z,-0.0123026585,0.0036720203,-0.20256375,-0.026321411,-0.24885559,9.7986145,-5.419922,14.808655,-44.892883,-0.021643551,-0.25086185,9.803416,0.00011787377,-0.0010546744,0.0005865097,-3.0517578e-05,0.0,9.1552734e-05
2019-07-01T19:11:43.848Z,-0.012313601,0.003697897,-0.20263605,-0.021530151,-0.24885559,9.810577,-5.7785034,15.72876,-44.161987,-0.022078488,-0.25117642,9.803409,-0.0004088506,-0.00050097704,-0.00041103363,0.00015258789,0.00012207031,-0.000289917
2019-07-01T19:11:44.052Z,-0.012344488,0.0036993918,-0.2026564,-0.01914978,-0.24885559,9.815353,-5.3604126,16.123962,-44.70215,-0.021979174,-0.2517759,9.803393,-3.4732744e-05,-0.00038477778,0.00037384033,-0.00021362305,0.00012207031,3.0517578e-05
2019-07-01T19:11:44.244Z,-0.01235369,0.0036936288,-0.20264654,-0.021530151,-0.25602722,9.817749,-5.3390503,16.56189,-44.38629,-0.02183445,-0.25192946,9.80339,0.0005383026,0.0002643466,0.00056934357,-0.00015258789,-0.00010681152,9.1552734e-05
2019-07-01T19:11:44.446Z,-0.012344598,0.0036446317,-0.20251586,-0.023925781,-0.25842285,9.805786,-5.935669,15.716553,-43.930054,-0.020963207,-0.25155738,9.803401,0.0013456997,0.0010868311,0.0003824234,-9.1552734e-05,-0.00010681152,0.00015258789
2019-07-01T19:11:44.648Z,-0.012324632,0.0036421206,-0.20249873,-0.01675415,-0.24885559,9.8033905,-6.2561035,15.765381,-43.832397,-0.020998692,-0.25116363,9.80341,-5.4070726e-05,0.00092595816,-0.00085258484,-9.1552734e-05,6.1035156e-05,9.1552734e-05
2019-07-01T19:11:44.855Z,-0.012323947,0.0036561454,-0.20253438,-0.011962891,-0.2536316,9.7986145,-5.49469,14.875793,-44.34662,-0.021261625,-0.25120696,9.80341,0.0002095215,-0.00045791268,0.00054836273,-3.0517578e-05,6.1035156e-05,0.0002746582
2019-07-01T19:11:45.062Z,-0.012314226,0.0036325639,-0.20246863,-0.021530151,-0.24885559,9.796219,-5.24292,15.031433,-43.795776,-0.020864211,-0.25092524,9.803417,0.0007730033,0.00069084764,-0.00027370453,-3.0517578e-05,6.1035156e-05,-3.0517578e-05
2019-07-01T19:11:45.257Z,-0.012285458,0.0036040028,-0.20237993,-0.023925781,-0.25125122,9.812973,-6.756592,15.444946,-44.329834,-0.020452628,-0.25025758,9.803435,0.0013074763,0.0012144744,0.00013256073,0.00015258789,6.1035156e-05,-3.0517578e-05
2019-07-01T19:11:45.465Z,-0.01234889,0.0036258479,-0.20246992,-0.026321411,-0.2536316,9.817749,-6.378174,14.964294,-44.670105,-0.02059721,-0.25156423,9.803401,-0.00069940276,-0.0020257533,-6.0081482e-05,-9.1552734e-05,0.00012207031,0.00021362305
2019-07-01T19:11:45.670Z,-0.012341521,0.003637536,-0.20249599,-0.023925781,-0.24406433,9.820145,-5.9051514,16.29486,-43.13507,-0.020844264,-0.2514697,9.803404,-0.00045168586,0.0009998083,0.0005979538,-0.00021362305,-0.00022888184,-0.00015258789
2019-07-01T19:11:45.873Z,-0.012313663,0.003673311,-0.20257296,-0.0143585205,-0.23928833,9.810577,-5.206299,15.835571,-43.632507,-0.021622254,-0.25107852,9.8034115,-0.000862563,0.0011098087,0.0010433197,-9.1552734e-05,0.00018310547,-0.00015258789
2019-07-01T19:11:46.076Z,-0.012293131,0.0036676691,-0.20254749,-0.01675415,-0.2536316,9.810577,-6.436157,15.46936,-44.563293,-0.021602012,-0.25066128,9.803422,0.00030793063,0.0011719465,0.00053596497,-9.1552734e-05,0.00018310547,0.00015258789
2019-07-01T19:11:46.277Z,-0.012300758,0.0036593522,-0.2025302,-0.01914978,-0.24885559,9.7986145,-6.5078735,15.608215,-44.38324,-0.021416413,-0.25077432,9.80342,0.0006114561,0.00033435225,0.0008401871,-0.00015258789,6.1035156e-05,0.0002746582
2019-07-01T19:11:46.478Z,-0.012331004,0.0036488734,-0.20251948,-0.021530151,-0.25602722,9.7986145,-5.7678223,15.948486,-44.2688,-0.021097748,-0.25131327,9.803407,0.00027535856,-0.0003412068,-9.8228455e-05,-3.0517578e-05,0.0,-3.0517578e-05
2019-07-01T19:11:46.683Z,-0.012294304,0.0036657164,-0.2025431,-0.0143585205,-0.2536316,9.8033905,-6.021118,15.715027,-44.454956,-0.021560978,-0.25067595,9.803422,-0.0004519187,0.0011675358,-0.00038146973,-3.0517578e-05,0.00018310547,3.0517578e-05
2019-07-01T19:11:46.883Z,-0.012323099,0.0036583906,-0.2025397,-0.021530151,-0.24645996,9.805786,-6.3980103,16.26892,-44.100952,-0.021306746,-0.25119972,9.80341,0.0012166407,-0.00070121884,0.00021743774,-9.1552734e-05,0.00012207031,9.1552734e-05
2019-07-01T19:11:47.091Z,-0.012315601,0.003623306,-0.2024456,-0.021530151,-0.23928833,9.810577,-5.7418823,14.707947,-44.067383,-0.020686852,-0.25091442,9.803418,0.00082544424,0.00021860003,-1.04904175e-05,3.0517578e-05,0.00012207031,-3.0517578e-05
2019-07-01T19:11:47.291Z,-0.012292032,0.0036338116,-0.20245998,-0.023925781,-0.25125122,9.808182,-6.1080933,15.560913,-44.25659,-0.020978542,-0.2505038,9.803427,-0.000318503,0.0002643466,-0.001294136,9.1552734e-05,-0.00010681152,3.0517578e-05
2019-07-01T19:11:47.493Z,-0.0122867515,0.0036296279,-0.20244642,-0.021530151,-0.24885559,9.800995,-5.0491333,15.77301,-43.80493,-0.020922637,-0.25038555,9.8034315,0.00034251437,-0.0005738437,-0.00022888184,0.00021362305,0.00012207031,0.00015258789
2019-07-01T19:11:47.695Z,-0.012295587,0.0036084387,-0.20239672,-0.023925781,-0.24645996,9.805786,-4.9606323,16.07666,-44.425964,-0.020493308,-0.25047004,9.80343,0.0013464428,-2.8401613e-05,-0.00094509125,3.0517578e-05,0.0,3.0517578e-05
2019-07-01T19:11:47.898Z,-0.012310882,0.0035877035,-0.20235166,-0.026321411,-0.25602722,9.810577,-5.949402,15.499878,-44.20166,-0.020045882,-0.25068054,9.803425,0.00089863874,-0.00029480457,-0.00031375885,3.0517578e-05,0.00018310547,0.00015258789
2019-07-01T19:11:48.105Z,-0.01233872,0.003613245,-0.20243213,-0.0143585205,-0.24885559,9.8033905,-5.9310913,15.786743,-43.388367,-0.020405265,-0.25131813,9.803408,-0.0011241585,-0.0006412864,-0.0018014908,-9.1552734e-05,-6.1035156e-05,3.0517578e-05
2019-07-01T19:11:48.308Z,-0.012319732,0.0036203004,-0.20244008,-0.01914978,-0.2536316,9.805786,-6.262207,15.696716,-44.223022,-0.020614136,-0.25098172,9.803417,-0.00019587576,0.00097218156,0.0021591187,-9.1552734e-05,-6.1035156e-05,3.0517578e-05
2019-07-01T19:11:48.511Z,-0.01232849,0.0036259133,-0.20245919,-0.01914978,-0.2536316,9.8033905,-6.4071655,16.125488,-44.50836,-0.020682253,-0.25117254,9.8034115,-0.00012757443,-0.00026917458,0.00015926361,-0.00015258789,0.0,-0.00015258789
2019-07-01T19:11:48.709Z,-0.0123183625,0.0035918562,-0.20236632,-0.021530151,-0.24645996,9.808182,-5.4977417,14.880371,-44.94934,-0.020092195,-0.25084096,9.803421,0.0009442661,0.0010471642,-0.001162529,3.0517578e-05,0.0,3.0517578e-05
2019-07-01T19:11:48.917Z,-0.012298799,0.0035836247,-0.20233473,-0.023925781,-0.2416687,9.808182,-5.6106567,16.114807,-45.67566,-0.020019846,-0.25043198,9.8034315,-7.300079e-05,0.0011406243,0.0011396408,-0.00021362305,-0.00016784668,3.0517578e-05
2019-07-01T19:11:49.107Z,-0.012273237,0.0036192778,-0.20241262,-0.026321411,-0.25125122,9.805786,-5.885315,15.063477,-43.840027,-0.020786168,-0.25008422,9.803439,-0.0021744221,0.0005582273,0.0007581711,9.1552734e-05,-6.1035156e-05,0.00019836426
2019-07-01T19:11:49.316Z,-0.012279574,0.003634198,-0.20245431,-0.023925781,-0.2536316,9.8033905,-5.1956177,16.12854,-43.95294,-0.021036897,-0.25026602,9.803433,-0.00073480606,0.00025102496,-0.0012493134,-3.0517578e-05,-6.1035156e-05,1.5258789e-05
2019-07-01T19:11:49.527Z,-0.012293507,0.0036378312,-0.20247108,-0.026321411,-0.24885559,9.8033905,-5.937195,15.795898,-44.517517,-0.02104704,-0.25054836,9.803427,0.0004649926,-0.00043419003,-0.00050640106,-0.00021362305,-6.1035156e-05,0.00015258789
2019-07-01T19:11:49.736Z,-0.01230258,0.00365821,-0.20252825,-0.03111267,-0.25125122,9.820145,-5.0994873,16.5802,-44.61975,-0.02138773,-0.25080472,9.803418,-0.00062756427,-0.0011268556,0.0009288788,0.00015258789,0.0,3.0517578e-05
2019-07-01T19:11:49.932Z,-0.0122959595,0.0036866928,-0.20259784,-0.01914978,-0.24885559,9.8033905,-5.3848267,15.461731,-44.00482,-0.021943225,-0.25079226,9.803417,-0.0019772183,0.0005633533,0.0019054413,-3.0517578e-05,6.1035156e-05,-3.0517578e-05
2019-07-01T19:11:50.133Z,-0.012307822,0.003708181,-0.20265935,-0.026321411,-0.25602722,9.810577,-5.4382324,16.114807,-44.096375,-0.022292979,-0.25110683,9.80341,-0.00068042986,0.00017103553,0.0007991791,-0.00015258789,-0.00022888184,0.00038146973
2019-07-01T19:11:50.332Z,-0.012323312,0.0036938197,-0.20263077,-0.01914978,-0.2536316,9.800995,-5.680847,16.175842,-44.677734,-0.021962933,-0.2513466,9.803405,0.00066635944,-0.0007969141,-0.0013933182,-9.1552734e-05,6.1035156e-05,-3.0517578e-05
2019-07-01T19:11:50.544Z,-0.012304483,0.0036392142,-0.2024805,-0.028717041,-0.25125122,9.805786,-6.416321,15.829468,-43.963623,-0.02102759,-0.25076482,9.803421,0.0016546212,0.0010158122,0.0011453629,0.00015258789,-6.1035156e-05,3.0517578e-05
2019-07-01T19:11:50.741Z,-0.012347679,0.0036581387,-0.20255218,-0.023925781,-0.25125122,9.805786,-5.0201416,16.51001,-44.41223,-0.02120103,-0.25167096,9.803397,-9.5171854e-05,-0.0019157529,-0.0006713867,-0.00015258789,6.1035156e-05,0.0002746582
2019-07-01T19:11:50.947Z,-0.0123348255,0.0036312449,-0.20247626,-0.01914978,-0.24885559,9.812973,-5.467224,17.279053,-44.084167,-0.020755101,-0.2513157,9.803407,0.00113694,0.00036484003,-0.00028705597,0.00021362305,0.0,0.00015258789
2019-07-01T19:11:51.147Z,-0.0123001365,0.0036200648,-0.20242901,-0.023925781,-0.2536316,9.815353,-5.659485,16.688538,-44.726562,-0.020690266,-0.2506042,9.803425,0.0005983189,0.0017955899,-0.00066661835,-3.0517578e-05,6.1035156e-05,1.5258789e-05
2019-07-01T19:11:51.399Z,-0.012332939,0.0036427067,-0.20250468,-0.023925781,-0.25125122,9.7986145,-5.8380127,16.159058,-43.919373,-0.020975426,-0.2513256,9.803407,-0.0007955488,-0.0010760427,-0.0006046295,-0.00015258789,0.00012207031,-3.0517578e-05
2019-07-01T19:11:51.550Z,-0.0123108635,0.0036864805,-0.20260526,-0.026321411,-0.24885559,9.8033905,-6.114197,15.415955,-44.363403,-0.02187801,-0.2510778,9.8034115,-0.0013265479,0.000834465,0.0005559921,-9.1552734e-05,0.0,0.00021362305
2019-07-01T19:11:51.750Z,-0.012301708,0.0036908928,-0.2026117,-0.021530151,-0.2536316,9.800995,-6.3339233,15.759277,-43.377686,-0.021997493,-0.25091967,9.803415,0.00022733398,0.00043275952,5.6266785e-05,-9.1552734e-05,0.00012207031,3.0517578e-05
2019-07-01T19:11:51.955Z,-0.012280389,0.0037125137,-0.20265579,-0.01675415,-0.24645996,9.8033905,-5.7006836,15.888977,-45.492554,-0.022486163,-0.2505972,9.803422,-0.00024720095,0.00080516934,-0.0017213821,3.0517578e-05,0.00012207031,9.1552734e-05
2019-07-01T19:11:52.153Z,-0.012278544,0.0036822204,-0.20257704,-0.023925781,-0.25125122,9.812973,-5.8792114,15.513611,-45.4834,-0.021931874,-0.2504396,9.803427,0.0018230956,0.00066429377,0.00013828278,-3.0517578e-05,0.00018310547,3.0517578e-05
2019-07-01T19:11:52.357Z,-0.012271452,0.003690711,-0.20259504,-0.01675415,-0.24885559,9.815353,-6.4056396,15.974426,-43.634033,-0.022118516,-0.25033757,9.803429,-0.0003705155,0.00031921268,9.346008e-05,-0.00015258789,6.1035156e-05,0.00015258789
2019-07-01T19:11:52.561Z,-0.01230191,0.003625555,-0.20244406,-0.0143585205,-0.24885559,9.808182,-6.021118,15.713501,-44.380188,-0.020784816,-0.25066042,9.803425,0.0009216722,-0.0007738769,0.0010576248,-3.0517578e-05,6.1035156e-05,3.0517578e-05
2019-07-01T19:11:52.759Z,-0.012303072,0.0036258956,-0.20244555,-0.021530151,-0.25125122,9.8033905,-5.7754517,15.803528,-44.14673,-0.020786356,-0.25068408,9.803423,0.0006976221,-0.00048163533,0.0030927658,-3.0517578e-05,0.0,-3.0517578e-05
2019-07-01T19:11:52.980Z,-0.012319777,0.0036129702,-0.2024213,-0.021530151,-0.25125122,9.808182,-6.0058594,15.92865,-43.733215,-0.020477997,-0.25095308,9.803418,0.000389643,3.7550926e-05,0.00047016144,3.0517578e-05,0.00012207031,-9.1552734e-05
2019-07-01T19:11:53.177Z,-0.012315233,0.003644131,-0.20249887,-0.01914978,-0.2536316,9.812973,-5.7647705,15.945435,-43.740845,-0.021074604,-0.25099117,9.803415,-0.0011655372,-0.00041878223,-0.0004930496,-9.1552734e-05,-0.00010681152,0.00033569336
2019-07-01T19:11:53.377Z,-0.01230204,0.0036366421,-0.2024726,-0.023925781,-0.2416687,9.800995,-5.545044,15.447998,-43.623352,-0.020989923,-0.2507075,9.803422,0.00065536983,0.0007264018,-0.0015993118,9.1552734e-05,0.00012207031,0.00015258789
2019-07-01T19:11:53.575Z,-0.01227256,0.0036485184,-0.20248732,-0.01914978,-0.24885559,9.793823,-5.213928,15.690613,-43.96515,-0.02133134,-0.25018892,9.803435,-0.0006815642,0.0011540353,5.4359436e-05,-3.0517578e-05,0.0,0.00021362305
2019-07-01T19:11:53.781Z,-0.012259164,0.0036490236,-0.20248146,-0.026321411,-0.24885559,9.827316,-5.2719116,16.195679,-43.78357,-0.021395756,-0.24993357,9.803442,0.0005872883,0.0008866191,-0.000916481,-9.1552734e-05,0.00012207031,-9.1552734e-05
2019-07-01T19:11:53.981Z,-0.01225585,0.0036380244,-0.20245145,-0.023925781,-0.25602722,9.800995,-6.0668945,16.438293,-44.15741,-0.021205332,-0.24982561,9.803445,0.0008707326,-0.00015692413,0.0008211136,3.0517578e-05,0.00018310547,0.0002746582
2019-07-01T19:11:54.194Z,-0.012273007,0.0036865182,-0.20258512,-0.026321411,-0.2536316,9.8033905,-5.278015,16.127014,-44.252014,-0.02203435,-0.25035056,9.803429,-0.0016442835,-0.0011106431,-0.002322197,9.1552734e-05,6.1035156e-05,9.1552734e-05
2019-07-01T19:11:54.388Z,-0.012284006,0.0036717937,-0.2025532,-0.01675415,-0.25125122,9.8033905,-5.378723,15.608215,-44.0506,-0.021716028,-0.2505026,9.803427,0.0004188381,-0.00021329522,0.0010061264,3.0517578e-05,0.0,9.1552734e-05
2019-07-01T19:11:54.593Z,-0.012292727,0.0036917592,-0.20260912,-0.023925781,-0.25125122,9.8033905,-6.3339233,16.062927,-45.129395,-0.022050483,-0.2507506,9.803419,-0.00043463148,-0.0004284978,0.0019435883,-0.00015258789,-0.00010681152,0.00021362305
2019-07-01T19:11:54.793Z,-0.012294817,0.0037088287,-0.20265405,-0.023925781,-0.2536316,9.805786,-4.9942017,15.194702,-43.92395,-0.022358479,-0.25085956,9.803415,-0.0006000865,-0.00032532215,-0.00046539307,3.0517578e-05,6.1035156e-05,-3.0517578e-05
2019-07-01T19:11:54.999Z,-0.012297567,0.0036901091,-0.20260747,-0.01914978,-0.2536316,9.815353,-5.3375244,15.040588,-45.602417,-0.021999983,-0.25083694,9.803417,0.0011937171,-9.3489885e-05,0.00080776215,-9.1552734e-05,6.1035156e-05,0.0002746582
2019-07-01T19:11:55.202Z,-0.012314626,0.0036849848,-0.20260344,-0.021530151,-0.24885559,9.800995,-5.69458,15.80658,-44.22455,-0.021834802,-0.25114405,9.80341,0.0007842295,0.00021237135,-9.441376e-05,9.1552734e-05,0.00012207031,3.0517578e-05
2019-07-01T19:11:55.408Z,-0.012346691,0.0036863212,-0.20262402,-0.026321411,-0.24885559,9.815353,-5.7495117,16.157532,-42.941284,-0.021727726,-0.25176555,9.803394,0.0011483338,-0.00037708879,-0.0016422272,-0.00021362305,0.00024414062,-0.00016784668
2019-07-01T19:11:55.605Z,-0.012254385,0.0036494297,-0.20247994,-0.021530151,-0.24885559,9.805786,-5.592346,16.326904,-44.425964,-0.021422919,-0.24984337,9.803444,0.00084494054,0.003927931,0.0014600754,-0.00021362305,0.00012207031,-0.00015258789
2019-07-01T19:11:55.812Z,-0.012294011,0.003659992,-0.20252825,-0.023925781,-0.25602722,9.8033905,-5.630493,15.602112,-45.251465,-0.021456005,-0.25064728,9.803423,0.0001600422,-0.00077080727,-0.0007791519,-3.0517578e-05,6.1035156e-05,3.0517578e-05
2019-07-01T19:11:56.012Z,-0.012307829,0.0036528267,-0.20251724,-0.01914978,-0.24645996,9.805786,-5.241394,16.853333,-43.650818,-0.021266315,-0.25088394,9.803418,-3.128685e-05,-7.9870224e-05,-0.0014734268,-0.00015258789,0.00012207031,-0.00016784668
2019-07-01T19:11:56.219Z,-0.012311888,0.003647106,-0.20250472,-0.026321411,-0.25602722,9.786652,-6.6864014,15.309143,-44.813538,-0.021143535,-0.25093886,9.803416,-0.00015342794,0.00022703409,0.0006170273,-0.00021362305,-0.00022888184,0.00021362305
2019-07-01T19:11:56.419Z,-0.012341088,0.003656253,-0.20254382,-0.021530151,-0.25125122,9.808182,-5.6671143,16.54358,-44.830322,-0.021193156,-0.25153673,9.803401,-0.0003323797,-0.00084993243,0.00025081635,3.0517578e-05,-0.00016784668,9.1552734e-05
2019-07-01T19:11:56.620Z,-0.012353351,0.0036174916,-0.20245086,-0.021530151,-0.25125122,9.808182,-5.6106567,15.811157,-43.774414,-0.02042391,-0.25161633,9.8034,0.0015230607,-4.890561e-05,0.000330925,-3.0517578e-05,0.00012207031,3.0517578e-05
2019-07-01T19:11:56.826Z,-0.012341578,0.003630217,-0.20247723,-0.01914978,-0.24885559,9.8033905,-5.4382324,16.114807,-44.247437,-0.020708293,-0.25144133,9.803405,-0.00010080263,0.00072565675,-0.0008955002,-0.00015258789,0.0,-0.00022888184
2019-07-01T19:11:57.026Z,-0.012298303,0.0036436482,-0.20248859,-0.01914978,-0.25125122,9.8033905,-6.0058594,16.004944,-44.247437,-0.021135228,-0.2506639,9.803423,-0.00038939528,0.0014008582,0.0014772415,3.0517578e-05,6.1035156e-05,-3.0517578e-05
2019-07-01T19:11:57.227Z,-0.012323459,0.0036405013,-0.20249395,-0.021530151,-0.24645996,9.812973,-6.188965,15.632629,-44.84253,-0.020973487,-0.2511346,9.803412,-8.0518425e-05,0.00040903687,-0.0021982193,-0.00021362305,0.00012207031,-3.0517578e-05
2019-07-01T19:11:57.428Z,-0.01227738,0.003674176,-0.20255576,-0.021530151,-0.25125122,9.810577,-5.383301,15.763855,-45.45288,-0.021787453,-0.25038484,9.803429,-0.001172971,0.0020641088,0.00077724457,-0.00021362305,-0.00010681152,9.1552734e-05
2019-07-01T19:11:57.637Z,-0.012274583,0.0036432224,-0.2024748,-0.01675415,-0.24406433,9.805786,-5.26886,16.345215,-44.13147,-0.021224793,-0.25020647,9.803435,0.0016068239,0.0006906688,0.0008363724,-9.1552734e-05,0.00024414062,-0.00016784668
2019-07-01T19:11:57.835Z,-0.012293328,0.0036617743,-0.20253246,-0.01914978,-0.2416687,9.800995,-5.027771,16.362,-44.36493,-0.021491874,-0.25064132,9.803423,-0.0005208533,-0.0007722378,0.00072193146,-9.1552734e-05,6.1035156e-05,0.00021362305
2019-07-01T19:11:58.041Z,-0.0123071335,0.0036326556,-0.20246507,-0.021530151,-0.25602722,9.796219,-5.291748,15.759277,-43.87207,-0.020895055,-0.25078934,9.803421,0.0008042846,-0.0008742213,-0.00047969818,3.0517578e-05,-0.00010681152,9.1552734e-05
2019-07-01T19:11:58.246Z,-0.012301317,0.003625855,-0.20244451,-0.021530151,-0.25125122,9.805786,-5.4489136,15.974426,-44.802856,-0.020792816,-0.25065023,9.803425,-1.530163e-05,-0.00054225326,-0.00016403198,0.00021362305,-0.00010681152,0.00021362305
2019-07-01T19:11:58.449Z,-0.0122728795,0.0036586737,-0.20251356,-0.021530151,-0.25125122,9.812973,-5.908203,16.297913,-43.43567,-0.021518398,-0.25023594,9.803433,-0.0012124721,0.00071814656,-0.00027275085,3.0517578e-05,0.0,0.00015258789
2019-07-01T19:11:58.650Z,-0.012260472,0.0036271825,-0.20242609,-0.01675415,-0.24885559,9.812973,-5.265808,16.419983,-44.267273,-0.020985227,-0.24987076,9.803444,0.0006505009,0.00083340704,0.0006122589,9.1552734e-05,0.00012207031,3.0517578e-05
2019-07-01T19:11:58.852Z,-0.012253079,0.0036823535,-0.20256376,-0.028717041,-0.25125122,9.7986145,-5.99823,16.300964,-44.79065,-0.022039022,-0.2499509,9.80344,-0.0016524531,0.00019553304,-6.67572e-05,-3.0517578e-05,-0.00016784668,-0.00015258789
2019-07-01T19:11:59.054Z,-0.012266311,0.0036714533,-0.20254286,-0.01675415,-0.24645996,9.810577,-5.369568,15.90271,-44.369507,-0.021782445,-0.2501612,9.803434,0.00025761314,-6.762147e-05,-4.196167e-05,-0.00015258789,0.00012207031,-0.00022888184
2019-07-01T19:11:59.319Z,-0.012246647,0.003635357,-0.20243968,-0.03111267,-0.25602722,9.8033905,-5.958557,15.129089,-43.52112,-0.021193653,-0.24963804,9.80345,0.0011018179,0.00082945824,-0.00022602081,-3.0517578e-05,6.1035156e-05,0.0002746582
2019-07-01T19:11:59.513Z,-0.012256349,0.0036524679,-0.2024888,-0.021530151,-0.25125122,9.808182,-5.995178,16.06903,-43.17627,-0.021471212,-0.24989335,9.803443,-0.000544196,-0.0006054789,-0.00094509125,-9.1552734e-05,0.0,-9.1552734e-05
2019-07-01T19:11:59.756Z,-0.012247233,0.0036174087,-0.20239392,-0.026321411,-0.24645996,9.812973,-5.697632,15.885925,-44.963074,-0.020858293,-0.24957705,9.803452,0.0009941068,0.0007544458,-0.00015163422,3.0517578e-05,6.1035156e-05,0.00015258789
2019-07-01T19:11:59.918Z,-0.012236207,0.0036747367,-0.2025352,-0.01914978,-0.24885559,9.812973,-6.1203003,15.270996,-44.241333,-0.021967074,-0.24959601,9.803449,-0.0024440382,0.0010180771,6.0081482e-05,-9.1552734e-05,-6.1035156e-05,9.1552734e-05
2019-07-01T19:12:00.118Z,-0.012254942,0.0036254362,-0.20241864,-0.028717041,-0.25602722,9.812973,-5.3985596,15.246582,-44.50226,-0.020975545,-0.24975748,9.803447,0.0011130143,-0.0004798919,0.0014829636,-0.0002746582,-0.00016784668,9.1552734e-05
2019-07-01T19:12:00.320Z,-0.012275209,0.0036574544,-0.20251168,-0.023925781,-0.24406433,9.796219,-5.192566,16.127014,-43.574524,-0.021486212,-0.2502758,9.803432,-0.0010006726,-0.00092217326,2.3841858e-05,9.1552734e-05,-0.00016784668,0.00015258789
2019-07-01T19:12:00.522Z,-0.012275985,0.0036550893,-0.20250602,-0.023925781,-0.25602722,9.8033905,-6.037903,15.348816,-44.45343,-0.02143915,-0.25028118,9.803432,-0.000100284815,0.00030517578,0.0012998581,-9.1552734e-05,6.1035156e-05,0.00038146973
2019-07-01T19:12:00.725Z,-0.012283087,0.0036255321,-0.20243393,-0.021530151,-0.2368927,9.7986145,-6.234741,14.457703,-44.023132,-0.020861717,-0.25029865,9.803433,0.0005276408,7.939339e-05,7.343292e-05,-3.0517578e-05,-6.1035156e-05,0.0002746582
2019-07-01T19:12:00.930Z,-0.012290483,0.0036323331,-0.20245536,-0.021530151,-0.25602722,9.8033905,-5.705261,15.589905,-44.493103,-0.020957481,-0.25046813,9.803429,-0.001054816,7.4207783e-06,0.0002040863,-9.1552734e-05,-0.00035095215,9.1552734e-05
2019-07-01T19:12:01.134Z,-0.0122876605,0.0036510904,-0.202502,-0.01675415,-0.2536316,9.812973,-5.380249,15.609741,-44.352722,-0.021316998,-0.25048938,9.803427,-0.0006941762,0.0002847612,0.0009431839,-9.1552734e-05,0.0,0.0002746582
2019-07-01T19:12:01.334Z,-0.012335061,0.0036316917,-0.20247753,-0.01914978,-0.2536316,9.8033905,-5.4641724,15.608215,-44.726562,-0.02076242,-0.25132206,9.803408,0.0011453386,-0.00057706237,-0.0012845993,-9.1552734e-05,-0.00010681152,0.0002746582
2019-07-01T19:12:01.540Z,-0.012372131,0.0036494278,-0.2025429,-0.021530151,-0.2536316,9.7986145,-5.94635,15.649414,-44.85016,-0.020938963,-0.2521057,9.803387,0.000116804615,-0.0012236834,0.00026607513,-0.0002746582,6.1035156e-05,0.00038146973
2019-07-01T19:12:01.741Z,-0.012383844,0.003645543,-0.20253919,-0.01675415,-0.2536316,9.810577,-5.6015015,16.107178,-44.46869,-0.020818777,-0.2523151,9.803382,0.0012015402,0.00041416287,-0.0004453659,-9.1552734e-05,0.00024414062,0.0001373291
2019-07-01T19:12:01.939Z,-0.012369493,0.0036894747,-0.20264432,-0.026321411,-0.25125122,9.805786,-6.0287476,15.644836,-45.14923,-0.021692414,-0.25221634,9.803382,-0.001037905,0.00079759955,-0.00045394897,-0.0002746582,0.00018310547,3.0517578e-05
2019-07-01T19:12:02.148Z,-0.012306556,0.0036770715,-0.20257881,-0.021530151,-0.26560974,9.8033905,-5.3115845,16.915894,-42.8833,-0.021721216,-0.2509571,9.803414,-4.803948e-05,0.0028768778,-0.00014686584,-3.0517578e-05,0.00012207031,3.0517578e-05
2019-07-01T19:12:02.336Z,-0.01233561,0.0036886688,-0.20262413,-0.021530151,-0.24406433,9.808182,-5.932617,15.788269,-43.841553,-0.021816833,-0.2515621,9.803399,0.0002909731,-0.0015470088,-0.0007314682,-3.0517578e-05,0.00018310547,0.00021362305
2019-07-01T19:12:02.559Z,-0.012274155,0.0037047316,-0.20263249,-0.01675415,-0.24885559,9.805786,-5.3237915,15.257263,-45.256042,-0.022367455,-0.25044608,9.803427,-0.0008375775,0.0028360784,-0.0006456375,-9.1552734e-05,6.1035156e-05,0.00021362305
2019-07-01T19:12:02.755Z,-0.012293753,0.003664121,-0.20253871,-0.01914978,-0.24645996,9.805786,-5.9890747,16.293335,-43.585205,-0.02153365,-0.25065896,9.803423,0.0016703997,-0.0005492568,0.00020885468,-3.0517578e-05,-6.1035156e-05,9.1552734e-05
2019-07-01T19:12:02.952Z,-0.012286252,0.0036800771,-0.20257567,-0.021530151,-0.2536316,9.810577,-4.8217773,15.42511,-43.80951,-0.021860432,-0.25057912,9.803424,-0.00040002353,0.00031349063,-0.0014562607,0.00015258789,-6.1035156e-05,0.00021362305
2019-07-01T19:12:03.154Z,-0.012303089,0.0036609399,-0.20253554,-0.01914978,-0.25842285,9.800995,-5.773926,15.802002,-43.995667,-0.021436278,-0.25082552,9.803419,0.0008552987,-0.0011062324,0.0009365082,3.0517578e-05,6.1035156e-05,3.0517578e-05
2019-07-01T19:12:03.355Z,-0.01229941,0.0036964945,-0.20262484,-0.021530151,-0.25125122,9.808182,-5.345154,16.41388,-44.340515,-0.022110831,-0.25089806,9.803414,-0.0010934863,0.00018391013,0.00095272064,-0.00015258789,0.00018310547,0.00015258789
2019-07-01T19:12:03.570Z,-0.012316376,0.0036725432,-0.20257244,-0.021530151,-0.2536316,9.8033905,-5.9799194,16.511536,-43.389893,-0.021596864,-0.25112754,9.803411,0.001733603,-0.0007980168,-0.0004863739,9.1552734e-05,0.00012207031,9.1552734e-05
2019-07-01T19:12:03.807Z,-0.01230562,0.003677803,-0.20258018,-0.009567261,-0.24885559,9.796219,-4.873657,16.229248,-44.700623,-0.021738635,-0.25094208,9.803415,0.00021269172,0.0009448528,0.00047397614,-3.0517578e-05,0.00018310547,0.00021362305
2019-07-01T19:12:03.972Z,-0.012285879,0.0036271564,-0.20243959,-0.01914978,-0.25125122,9.810577,-6.0791016,16.221619,-44.34967,-0.020880375,-0.25035882,9.8034315,0.0017337501,0.0015410483,-0.00078964233,-0.00015258789,-0.00010681152,0.00015258789
2019-07-01T19:12:04.174Z,-0.0123399235,0.003646574,-0.20251834,-0.023925781,-0.24885559,9.800995,-5.831909,16.383362,-44.47937,-0.02101844,-0.25147536,9.803402,-0.0002794955,-0.001414448,0.000111579895,-0.00021362305,6.1035156e-05,-3.0517578e-05
2019-07-01T19:12:04.377Z,-0.012272659,0.0036794941,-0.20256689,-0.021530151,-0.24885559,9.810577,-5.13916,15.626526,-44.28253,-0.0219055,-0.25031558,9.803431,-0.0013003405,0.0024530292,-0.00056552887,-3.0517578e-05,0.00018310547,3.0517578e-05
2019-07-01T19:12:04.581Z,-0.012271099,0.0036682307,-0.20253715,-0.01675415,-0.25125122,9.810577,-5.227661,15.628052,-45.262146,-0.021702992,-0.25024024,9.803433,0.0008939151,0.00023958087,0.0010585785,-3.0517578e-05,6.1035156e-05,0.0002746582
2019-07-01T19:12:04.781Z,-0.012265919,0.003665218,-0.20252664,-0.023925781,-0.24645996,9.8033905,-5.445862,15.969849,-44.27643,-0.021668395,-0.25012854,9.803435,0.00012626499,0.00012061,-0.0005674362,9.1552734e-05,6.1035156e-05,-0.000289917
2019-07-01T19:12:04.983Z,-0.012248216,0.0036713288,-0.20253286,-0.01914978,-0.25125122,9.810577,-5.7510376,16.46576,-44.918823,-0.021854501,-0.24981305,9.803444,-0.00016052462,0.00027923286,9.727478e-05,-3.0517578e-05,6.1035156e-05,-9.1552734e-05
2019-07-01T19:12:05.249Z,-0.012263276,0.0036961525,-0.20260464,-0.01914978,-0.2536316,9.812973,-5.038452,15.992737,-43.76068,-0.022253064,-0.25020242,9.803432,0.0009575691,-0.0009838939,0.0014886856,-0.00015258789,0.0,-9.1552734e-05
2019-07-01T19:12:05.439Z,-0.012248713,0.0036971783,-0.20259948,-0.01914978,-0.24406433,9.8033905,-7.043457,15.997314,-42.91992,-0.022331964,-0.24992676,9.80344,-0.00039763935,0.0011382252,0.0002040863,-9.1552734e-05,0.00012207031,-9.1552734e-05
2019-07-01T19:12:05.643Z,-0.012230176,0.0036486466,-0.202465,-0.023925781,-0.25842285,9.793823,-5.831909,16.53595,-45.277405,-0.021507857,-0.24937505,9.803455,0.0016443431,0.0012763888,-0.0021009445,-9.1552734e-05,-6.1035156e-05,-3.0517578e-05
2019-07-01T19:12:05.843Z,-0.01223539,0.0036841636,-0.20255895,-0.021530151,-0.25602722,9.800995,-6.022644,15.792847,-44.96765,-0.022145303,-0.2496183,9.803448,-0.00081487186,-0.0001500994,0.00067806244,-3.0517578e-05,0.00012207031,-3.0517578e-05
2019-07-01T19:12:06.047Z,-0.012282243,0.003730327,-0.2027025,-0.021530151,-0.2536316,9.810577,-6.0394287,15.426636,-45.118713,-0.022808919,-0.25070468,9.803418,-0.00087197125,-0.0019726157,-0.0032186508,-9.1552734e-05,0.00018310547,-0.00035095215
2019-07-01T19:12:06.255Z,-0.012287175,0.0037294603,-0.20270292,-0.023925781,-0.2536316,9.808182,-5.92041,16.007996,-43.647766,-0.022772556,-0.25079596,9.803416,0.00053017586,-0.00015676022,0.0036029816,-3.0517578e-05,6.1035156e-05,9.1552734e-05
2019-07-01T19:12:06.458Z,-0.012276872,0.0037608244,-0.20277792,-0.026321411,-0.24885559,9.796219,-5.8670044,15.50293,-43.97583,-0.023396652,-0.25072458,9.803417,-0.0007685963,0.0009730458,-0.00030612946,-0.00015258789,0.00018310547,3.0517578e-05
2019-07-01T19:12:06.652Z,-0.01227189,0.0037347367,-0.20270829,-0.023925781,-0.25125122,9.808182,-6.315613,16.427612,-44.90509,-0.022933297,-0.25052357,9.803423,0.0016363543,0.0005250573,-0.00020313263,-9.1552734e-05,0.00024414062,0.00015258789
2019-07-01T19:12:06.857Z,-0.012252454,0.0037525573,-0.20274363,-0.01675415,-0.24406433,9.815353,-5.822754,16.526794,-44.07196,-0.02334379,-0.250222,9.803429,0.000368651,0.0014156699,0.00019741058,-0.00021362305,0.00018310547,9.1552734e-05
2019-07-01T19:12:07.064Z,-0.01224927,0.0036932076,-0.20258959,-0.021530151,-0.24645996,9.7986145,-5.0186157,16.506958,-44.1864,-0.022256015,-0.24992147,9.80344,0.0026398879,0.00066781044,0.0020456314,3.0517578e-05,0.0,-9.1552734e-05
2019-07-01T19:12:07.256Z,-0.012273157,0.0036809903,-0.202571,-0.021530151,-0.25602722,9.800995,-5.2078247,15.989685,-44.88678,-0.021931203,-0.25033116,9.80343,0.00063340925,-0.00039210916,-0.0027837753,-9.1552734e-05,0.00012207031,-0.00035095215
2019-07-01T19:12:07.476Z,-0.01225831,0.0036743898,-0.20254612,-0.021530151,-0.24885559,9.808182,-5.6777954,16.247559,-44.51294,-0.0218698,-0.2500193,9.803438,9.937212e-05,0.0012078881,0.00038719177,-0.0002746582,6.1035156e-05,-9.1552734e-05
2019-07-01T19:12:07.681Z,-0.012270243,0.0037054317,-0.20263219,-0.01675415,-0.2536316,9.810577,-6.616211,16.61377,-43.11676,-0.022396533,-0.2503737,9.803428,-0.0005796794,0.000123173,-0.000374794,-9.1552734e-05,0.00012207031,0.00021362305
2019-07-01T19:12:07.878Z,-0.0123023745,0.0037096774,-0.20266028,-0.026321411,-0.25125122,9.800995,-6.0028076,15.925598,-43.356323,-0.022343136,-0.25100818,9.8034115,0.0005724635,-0.00091955066,6.866455e-05,-0.00021362305,0.00018310547,-0.00015258789
2019-07-01T19:12:08.079Z,-0.012279035,0.003745699,-0.20274025,-0.021530151,-0.24885559,9.8033905,-5.697632,15.733337,-44.23828,-0.023107221,-0.25070506,9.803417,-0.000585353,0.0016522706,0.00053310394,-0.00021362305,0.00018310547,9.1552734e-05
2019-07-01T19:12:08.322Z,-0.012282297,0.003739418,-0.20272587,-0.03111267,-0.25602722,9.815353,-7.498169,15.031433,-44.38324,-0.02297731,-0.2507424,9.803417,0.00073489733,0.0002618432,0.00052165985,3.0517578e-05,0.00012207031,-3.0517578e-05
2019-07-01T19:12:08.480Z,-0.012278244,0.0037416779,-0.20272951,-0.01675415,-0.24885559,9.810577,-5.2597046,16.415405,-43.589783,-0.023035903,-0.25067365,9.803419,0.00055165216,-0.0004991889,0.0019407272,3.0517578e-05,0.00024414062,-0.00035095215
2019-07-01T19:12:08.683Z,-0.012235725,0.0036791675,-0.2025463,-0.028717041,-0.2536316,9.805786,-5.755615,16.088867,-43.40973,-0.022051245,-0.2496046,9.803448,0.0021913312,0.0020187497,0.0001745224,9.1552734e-05,-6.1035156e-05,-0.00022888184
2019-07-01T19:12:08.888Z,-0.012244953,0.0036968638,-0.20259666,-0.026321411,-0.2536316,9.812973,-6.57959,15.821838,-44.410706,-0.022341585,-0.24985322,9.803441,-0.0001433324,-0.00036358833,-0.0005235672,-9.1552734e-05,0.00018310547,-0.00022888184
2019-07-01T19:12:09.095Z,-0.012243093,0.0036903282,-0.20257889,-0.01914978,-0.2536316,9.808182,-5.029297,16.363525,-44.592285,-0.022227993,-0.24979113,9.803442,0.00070285983,0.0002747625,-0.0013036728,-3.0517578e-05,0.00012207031,9.1552734e-05
2019-07-01T19:12:09.294Z,-0.012305806,0.0037303085,-0.20271508,-0.021530151,-0.24885559,9.805786,-5.847168,16.01715,-44.326782,-0.022711642,-0.25115737,9.803408,-0.0002618637,-0.0024053156,0.0008945465,-9.1552734e-05,0.00018310547,9.1552734e-05
2019-07-01T19:12:09.498Z,-0.012264338,0.0037214688,-0.20267019,-0.01914978,-0.24885559,9.805786,-4.9865723,15.567017,-44.680786,-0.022718271,-0.25032493,9.803429,0.00094991364,0.0020230114,-0.00020313263,-3.0517578e-05,0.00018310547,0.00015258789
2019-07-01T19:12:09.699Z,-0.012279324,0.003707463,-0.20264226,-0.01914978,-0.24645996,9.8033905,-4.3060303,16.340637,-44.625854,-0.022396859,-0.25055638,9.803423,0.0011023823,-0.00013056397,0.0008239746,-0.00015258789,0.00018310547,-0.00022888184
2019-07-01T19:12:09.905Z,-0.012274012,0.0036944367,-0.20260598,-0.021530151,-0.24885559,9.7986145,-5.696106,15.655518,-43.574524,-0.022177096,-0.2504018,9.803428,0.0011263955,0.00090160966,-0.00023841858,-9.1552734e-05,0.00018310547,-3.0517578e-05
2019-07-01T19:12:10.162Z,-0.012275674,0.0036409856,-0.20246965,-0.028717041,-0.24885559,9.8033905,-6.819153,15.803528,-44.029236,-0.021178816,-0.25021842,9.803434,0.0013170745,-1.0043383e-05,-5.6266785e-05,0.00021362305,0.00012207031,9.1552734e-05
2019-07-01T19:12:10.355Z,-0.0122353565,0.0036857128,-0.20256291,-0.021530151,-0.24885559,9.800995,-4.862976,16.217041,-43.118286,-0.022174178,-0.2496239,9.803447,-0.0015173461,0.0010729581,-3.8146973e-05,3.0517578e-05,0.00012207031,1.5258789e-05
2019-07-01T19:12:10.561Z,-0.012237483,0.0036363606,-0.20243736,-0.021530151,-0.24885559,9.793823,-6.1676025,15.917969,-43.728638,-0.02124992,-0.24946597,9.803453,0.0021052528,0.00019736588,-2.5749207e-05,-9.1552734e-05,6.1035156e-05,0.00015258789
2019-07-01T19:12:10.770Z,-0.012249878,0.0036572246,-0.20249754,-0.01675415,-0.2536316,9.812973,-4.840088,15.061951,-44.10858,-0.02158604,-0.24978812,9.803444,-0.00042966567,-0.00047023594,-0.0022535324,9.1552734e-05,-6.1035156e-05,-0.00010681152
2019-07-01T19:12:10.969Z,-0.012297025,0.003637647,-0.2024725,-0.023925781,-0.24645996,9.808182,-6.19812,15.336609,-44.29779,-0.021029169,-0.25061518,9.803424,0.0006925203,-0.0017867088,0.0005712509,-3.0517578e-05,6.1035156e-05,3.0517578e-05
2019-07-01T19:12:11.171Z,-0.012282232,0.0036861429,-0.20258908,-0.021530151,-0.25842285,9.808182,-5.126953,15.917969,-44.22455,-0.021989465,-0.2505263,9.803425,-0.0012145247,-0.0006721914,0.0010156631,0.00021362305,6.1035156e-05,-3.0517578e-05
2019-07-01T19:12:11.373Z,-0.01227832,0.0037065765,-0.20263945,-0.01675415,-0.24645996,9.8033905,-5.517578,16.183472,-44.30542,-0.022384549,-0.25053352,9.803424,-0.00034502335,0.00031101704,0.0011587143,-0.00021362305,0.00012207031,-0.000289917
2019-07-01T19:12:11.577Z,-0.012266298,0.0036930202,-0.20259821,-0.021530151,-0.24885559,9.7986145,-5.8181763,16.673279,-44.2688,-0.022182537,-0.25024787,9.8034315,0.00016877055,0.00048360229,-0.0011415482,0.00015258789,6.1035156e-05,9.1552734e-05
2019-07-01T19:12:11.770Z,-0.0122910375,0.003703815,-0.20263916,-0.03111267,-0.25125122,9.82254,-6.5093994,15.684509,-44.895935,-0.022281032,-0.25076672,9.803418,0.00075508654,-0.0009101927,-0.00044345856,-3.0517578e-05,0.00018310547,3.0517578e-05
2019-07-01T19:12:11.988Z,-0.012309154,0.0037368617,-0.2027337,-0.01914978,-0.24645996,9.791428,-6.7108154,14.645386,-44.11621,-0.022819404,-0.25124812,9.803405,-0.00038317777,-0.0008826554,0.0014657974,3.0517578e-05,0.00012207031,-3.0517578e-05
2019-07-01T19:12:12.177Z,-0.012319201,0.0036599452,-0.2025416,-0.033493042,-0.25602722,9.791428,-5.5282593,15.812683,-43.399048,-0.021351602,-0.2511311,9.8034115,0.0031667016,0.00016608834,-0.0018920898,-3.0517578e-05,6.1035156e-05,-0.00016784668
2019-07-01T19:12:12.414Z,-0.012314669,0.0036699714,-0.20256491,-0.01914978,-0.2536316,9.800995,-5.7754517,15.725708,-43.785095,-0.021556178,-0.2510844,9.8034115,3.264472e-05,-0.00056275725,0.0027217865,9.1552734e-05,0.00012207031,-0.00022888184
2019-07-01T19:12:12.603Z,-0.012280544,0.003696307,-0.20261428,-0.023925781,-0.25125122,9.7986145,-6.562805,15.803528,-41.923523,-0.02218493,-0.25053486,9.803425,-0.0012629665,0.0012611449,-0.0016937256,-3.0517578e-05,6.1035156e-05,9.1552734e-05
2019-07-01T19:12:12.793Z,-0.012264514,0.0037027362,-0.2026222,-0.023925781,-0.24885559,9.796219,-6.718445,16.171265,-43.426514,-0.02237009,-0.25025278,9.8034315,-0.0005915351,0.0014291108,-0.0017633438,-0.00015258789,-6.1035156e-05,-0.00015258789
2019-07-01T19:12:12.993Z,-0.012276598,0.0037115396,-0.20265126,-0.023925781,-0.24885559,9.812973,-6.890869,15.866089,-43.33191,-0.022483688,-0.25052047,9.803425,0.00022539124,-0.00068309903,0.0012140274,3.0517578e-05,0.00012207031,-9.1552734e-05
2019-07-01T19:12:13.203Z,-0.0122848265,0.0037344694,-0.20271453,-0.01914978,-0.2416687,9.808182,-5.1086426,16.357422,-44.361877,-0.022875128,-0.25077105,9.803417,-9.8925084e-05,-0.00017371774,0.0011386871,-3.0517578e-05,0.00018310547,-0.00015258789
2019-07-01T19:12:13.400Z,-0.012212459,0.0036896493,-0.20256077,-0.0143585205,-0.24406433,9.805786,-5.6884766,15.87677,-43.832397,-0.022341313,-0.24919982,9.803458,0.0012896024,0.00255616,-4.9591064e-05,-9.1552734e-05,0.0,-0.000289917
2019-07-01T19:12:13.605Z,-0.012250883,0.0036620516,-0.20251048,-0.021530151,-0.24885559,9.805786,-5.683899,16.026306,-44.180298,-0.021671453,-0.24982691,9.803444,0.0018092226,-0.0006528199,-0.00050640106,9.1552734e-05,0.00012207031,-3.0517578e-05
2019-07-01T19:12:13.806Z,-0.012261523,0.003639701,-0.20245878,-0.026321411,-0.25125122,9.7986145,-5.4473877,16.049194,-45.091248,-0.021213133,-0.24994132,9.803441,0.0011205263,-0.0003106743,-0.001294136,-3.0517578e-05,6.1035156e-05,-0.0004119873
2019-07-01T19:12:14.010Z,-0.012254384,0.003674973,-0.20254551,-0.021530151,-0.25125122,9.8033905,-5.3497314,16.342163,-44.432068,-0.021896752,-0.2499462,9.803439,-0.0017985012,0.00014810264,-0.0015029907,-0.00015258789,-0.00010681152,3.0517578e-05
2019-07-01T19:12:14.214Z,-0.01224705,0.0036888209,-0.20257714,-0.023925781,-0.2536316,9.796219,-6.1798096,15.852356,-44.874573,-0.022183767,-0.2498611,9.803441,-0.00055112876,0.0010133982,-0.0008325577,-9.1552734e-05,0.0,0.0002746582
2019-07-01T19:12:14.416Z,-0.012242976,0.0036937688,-0.20258766,-0.01914978,-0.24406433,9.796219,-5.9432983,15.649414,-44.548035,-0.0222923,-0.24980278,9.803443,0.00027448125,-0.0002360791,-7.915497e-05,3.0517578e-05,0.00018310547,9.1552734e-05
2019-07-01T19:12:14.618Z,-0.012253872,0.0036744266,-0.20254384,-0.028717041,-0.25842285,9.810577,-5.9432983,15.646362,-44.3985,-0.021888718,-0.24993418,9.80344,0.0010597631,0.00035333633,-0.0011663437,-0.00015258789,0.00012207031,9.1552734e-05
2019-07-01T19:12:14.821Z,-0.012241947,0.003710511,-0.20263009,-0.01914978,-0.2536316,9.7986145,-6.0928345,15.70282,-43.322754,-0.022607092,-0.24985053,9.803441,0.0017933138,0.0017033666,0.00029182434,-9.1552734e-05,0.00012207031,-3.0517578e-05
2019-07-01T19:12:15.013Z,-0.012237454,0.0036601992,-0.20249854,-0.023925781,-0.24885559,9.800995,-5.847168,16.01715,-44.40155,-0.021692269,-0.24956143,9.803451,0.0015958827,0.00045523047,0.00019359589,-0.00015258789,0.00012207031,9.1552734e-05
2019-07-01T19:12:15.221Z,-0.012193706,0.0036996277,-0.20257635,-0.021530151,-0.25125122,9.810577,-5.491638,16.693115,-43.826294,-0.02260351,-0.24887972,9.803466,-0.0015667062,0.001943484,0.0002965927,-3.0517578e-05,0.0,0.00015258789
2019-07-01T19:12:15.419Z,-0.012171936,0.003731292,-0.20264597,-0.0143585205,-0.25125122,9.829712,-5.278015,16.125488,-44.100952,-0.023280453,-0.24858913,9.803472,-0.000645414,0.0006939173,0.00019931793,-3.0517578e-05,0.00018310547,3.0517578e-05
2019-07-01T19:12:15.624Z,-0.012197728,0.0037310633,-0.20265917,-0.026321411,-0.25125122,9.791428,-5.5908203,16.401672,-44.787598,-0.023170166,-0.24908379,9.803459,0.00068145245,-0.00093249977,0.002371788,3.0517578e-05,6.1035156e-05,9.1552734e-05
2019-07-01T19:12:15.829Z,-0.012231432,0.0037560475,-0.20274134,-0.01914978,-0.24885559,9.791428,-5.168152,14.967346,-44.265747,-0.023495011,-0.24983217,9.803438,-0.0001834333,-0.0018580854,0.0002965927,9.1552734e-05,6.1035156e-05,-3.0517578e-05
2019-07-01T19:12:16.040Z,-0.012212543,0.0037123864,-0.20261917,-0.023925781,-0.24406433,9.805786,-5.9265137,16.012573,-44.325256,-0.02276278,-0.2492931,9.803455,0.0017087515,0.0009597689,3.4332275e-05,-3.0517578e-05,0.00018310547,3.0517578e-05
2019-07-01T19:12:16.241Z,-0.012230362,0.0036943364,-0.20258237,-0.011962891,-0.24645996,9.7986145,-5.72052,15.374756,-45.066833,-0.02235468,-0.2495627,9.803449,0.0010572243,-0.00044047832,0.000664711,-9.1552734e-05,6.1035156e-05,9.1552734e-05
2019-07-01T19:12:16.436Z,-0.012280501,0.0037163312,-0.20266566,-0.023925781,-0.24885559,9.810577,-5.204773,15.988159,-44.50836,-0.022556502,-0.25061473,9.80342,6.9646165e-05,-0.0015314519,0.00061130524,-0.00015258789,0.0,9.1552734e-05
2019-07-01T19:12:16.643Z,-0.01227374,0.0036805226,-0.20257011,-0.01675415,-0.2536316,9.805786,-5.1879883,16.349792,-44.059753,-0.02192013,-0.2503405,9.80343,0.0008696802,0.0010881722,0.0020093918,-0.00015258789,-4.5776367e-05,3.0517578e-05
2019-07-01T19:12:16.892Z,-0.012280984,0.003684669,-0.20258464,-0.026321411,-0.25125122,9.808182,-5.9417725,15.724182,-44.76013,-0.021967262,-0.2504964,9.803426,-0.00027346984,-0.00019147992,-0.0001039505,3.0517578e-05,0.0,-9.1552734e-05
2019-07-01T19:12:17.050Z,-0.012281325,0.0037321458,-0.2027067,-0.01914978,-0.25602722,9.805786,-6.1950684,15.409851,-44.20929,-0.022846432,-0.2506944,9.803419,-0.0010736845,-0.00025054812,-0.0010242462,-9.1552734e-05,0.00012207031,-0.00022888184
2019-07-01T19:12:17.250Z,-0.012264907,0.0037222072,-0.20267239,-0.028717041,-0.25125122,9.796219,-5.0598145,15.707397,-44.874573,-0.022729628,-0.25033885,9.803429,0.00047243573,0.0010694861,-0.00019168854,-9.1552734e-05,0.00012207031,3.0517578e-05
2019-07-01T19:12:17.457Z,-0.012272242,0.0037234176,-0.20267943,-0.023925781,-0.24406433,9.8033905,-5.987549,16.368103,-43.94684,-0.022721907,-0.25048465,9.803424,0.0007101763,0.00026860833,0.0011491776,-9.1552734e-05,0.00012207031,3.0517578e-05
2019-07-01T19:12:17.663Z,-0.012259063,0.003737644,-0.20270889,-0.028717041,-0.2536316,9.800995,-5.2841187,16.056824,-44.569397,-0.023039987,-0.25028884,9.803429,-0.00040734,0.0007750988,-0.0011434555,-9.1552734e-05,0.00012207031,-0.00010681152
2019-07-01T19:12:17.861Z,-0.012313643,0.0037227583,-0.20269988,-0.01675415,-0.24645996,9.805786,-4.5410156,16.470337,-44.664,-0.02253938,-0.25127745,9.803404,0.0017305054,-0.0018352568,-0.001086235,-0.00015258789,0.00018310547,0.00021362305
2019-07-01T19:12:18.066Z,-0.012305006,0.003702659,-0.20264366,-0.01914978,-0.25125122,9.808182,-6.2591553,15.768433,-44.20929,-0.022202143,-0.25103047,9.8034115,0.0011507496,0.0012784302,0.0015211105,-3.0517578e-05,0.00018310547,0.00015258789
2019-07-01T19:12:18.270Z,-0.012299132,0.003680886,-0.20258462,-0.028717041,-0.24885559,9.805786,-5.8639526,15.65094,-44.474792,-0.021822488,-0.25082985,9.803418,0.001485901,0.00033462048,-0.0020179749,-9.1552734e-05,0.0,0.00021362305
2019-07-01T19:12:18.473Z,-0.012286433,0.0036775756,-0.20256934,-0.023925781,-0.25602722,9.8033905,-5.152893,15.409851,-44.7052,-0.021813288,-0.25057247,9.803423,-0.00019991584,0.0010598004,0.0016908646,-0.00015258789,-6.1035156e-05,0.00015258789
2019-07-01T19:12:18.674Z,-0.012296557,0.0036719376,-0.20256028,-0.021530151,-0.24885559,9.817749,-7.1487427,15.711975,-44.335938,-0.0216671,-0.2507443,9.80342,-0.00034683757,0.00026229024,-0.0006284714,-9.1552734e-05,-0.00010681152,3.0517578e-05
2019-07-01T19:12:18.878Z,-0.012302122,0.0036920656,-0.20261493,-0.01914978,-0.2536316,9.810577,-6.138611,16.500854,-43.30902,-0.022017539,-0.25093234,9.803414,-0.00046909042,-0.00026389956,0.00022315979,-9.1552734e-05,0.00012207031,-0.00010681152
2019-07-01T19:12:19.076Z,-0.012326543,0.0036803428,-0.2025979,-0.0143585205,-0.2416687,9.812973,-5.8273315,16.378784,-43.951416,-0.021699706,-0.25135434,9.803405,0.00040514022,-0.0005363822,0.001748085,-9.1552734e-05,-0.00010681152,0.00021362305
2019-07-01T19:12:19.282Z,-0.012316695,0.0036838658,-0.20260167,-0.023925781,-0.24885559,9.810577,-5.3756714,15.605164,-43.67218,-0.021805536,-0.2511793,9.803409,-0.00020701066,0.0009572208,-0.0007419586,3.0517578e-05,6.1035156e-05,0.0001373291
2019-07-01T19:12:19.482Z,-0.012277851,0.0037220027,-0.2026788,-0.023925781,-0.25602722,9.7986145,-5.279541,16.052246,-44.041443,-0.022672597,-0.25058672,9.803422,-0.001018608,0.0010769069,-0.00034236908,-0.00015258789,0.00012207031,3.0517578e-05
2019-07-01T19:12:19.687Z,-0.012285281,0.003746496,-0.20274565,-0.01675415,-0.24885559,9.808182,-6.814575,15.953064,-44.37561,-0.023096308,-0.25082833,9.803415,-0.00059522875,-0.00012052059,-0.00037765503,-9.1552734e-05,0.0,0.00015258789
2019-07-01T19:12:19.883Z,-0.012271486,0.0037154146,-0.20265847,-0.01914978,-0.24885559,9.808182,-6.1187744,15.41748,-44.740295,-0.022576576,-0.25043786,9.803426,0.0008070264,0.0006735623,-0.000415802,9.1552734e-05,6.1035156e-05,9.1552734e-05
2019-07-01T19:12:20.097Z,-0.012241956,0.003747371,-0.2027247,-0.03111267,-0.24406433,9.8033905,-6.6329956,16.400146,-44.14215,-0.023290778,-0.24999939,9.803435,-0.001346305,0.0012067258,0.00084495544,-9.1552734e-05,-4.5776367e-05,0.0002746582
2019-07-01T19:12:20.296Z,-0.012232505,0.003718013,-0.20264429,-0.023925781,-0.25602722,9.810577,-6.5490723,16.481018,-44.352722,-0.022785079,-0.24969932,9.803444,0.0010178927,0.000921607,0.0012073517,-9.1552734e-05,6.1035156e-05,3.0517578e-05
2019-07-01T19:12:20.498Z,-0.012246818,0.0037459296,-0.2027236,-0.023925781,-0.25125122,9.810577,-6.340027,15.765381,-44.28253,-0.023244044,-0.250087,9.803433,-0.0006763581,-0.00061807036,-0.0015945435,-9.1552734e-05,0.0,9.1552734e-05
2019-07-01T19:12:20.699Z,-0.0122752795,0.0037144038,-0.20265791,-0.023925781,-0.24406433,9.793823,-5.3588867,16.197205,-44.83795,-0.022542236,-0.25050667,9.803425,0.0010159183,-0.00045779347,-0.0012130737,-3.0517578e-05,-0.00016784668,9.1552734e-05
2019-07-01T19:12:20.907Z,-0.012246813,0.003764396,-0.202771,-0.03111267,-0.24885559,9.815353,-5.635071,15.301514,-44.104004,-0.023586588,-0.25016144,9.803431,-0.0022593439,0.00037059188,-0.0012903214,9.1552734e-05,1.5258789e-05,9.1552734e-05
2019-07-01T19:12:21.103Z,-0.012216183,0.0037468474,-0.20270956,-0.023925781,-0.24406433,9.805786,-5.5130005,16.329956,-44.351196,-0.02338708,-0.24950208,9.803448,0.00041117333,0.001404509,0.001206398,-3.0517578e-05,0.00012207031,0.0002746582
2019-07-01T19:12:21.307Z,-0.012203559,0.0037221864,-0.20263952,-0.026321411,-0.25125122,9.808182,-6.0821533,16.143799,-44.06433,-0.022981511,-0.24916,9.803457,0.0026424378,0.00031407177,-0.003071785,3.0517578e-05,6.1035156e-05,0.00021362305
2019-07-01T19:12:21.513Z,-0.012219833,0.003742949,-0.20270151,-0.026321411,-0.24406433,9.808182,-6.437683,15.316772,-43.914795,-0.023299754,-0.24955647,9.803447,-0.00062393583,-0.00046691298,0.0009870529,-0.00015258789,-6.1035156e-05,0.00021362305
2019-07-01T19:12:21.713Z,-0.012217171,0.003702633,-0.20259662,-0.01914978,-0.2536316,9.8033905,-5.706787,15.513611,-44.13147,-0.022562819,-0.24934267,9.803453,0.0012643076,0.00076170266,0.0006608963,-0.00015258789,0.0,0.00015258789
2019-07-01T19:12:21.917Z,-0.012228479,0.0036908793,-0.2025725,-0.01914978,-0.24406433,9.812973,-4.5578003,16.104126,-44.589233,-0.02229829,-0.2495126,9.803451,0.00077153184,0.00046609342,0.00059986115,-0.00015258789,0.00012207031,0.00015258789
2019-07-01T19:12:22.122Z,-0.012257914,0.0036795149,-0.20255907,-0.021530151,-0.25125122,9.808182,-4.6432495,15.87677,-43.94989,-0.021966495,-0.25003237,9.803438,0.0009130016,-0.00046032667,0.0002527237,-0.00015258789,-6.1035156e-05,0.00021362305
2019-07-01T19:12:22.326Z,-0.01227885,0.0037064534,-0.20263942,-0.021530151,-0.24406433,9.812973,-5.8288574,16.38031,-44.100952,-0.02238009,-0.2505432,9.803424,-0.0008251574,-0.0004261434,-0.0003042221,-9.1552734e-05,0.00012207031,-0.00022888184
2019-07-01T19:12:22.524Z,-0.012270152,0.003693016,-0.20260027,-0.023925781,-0.2536316,9.805786,-6.4712524,16.41388,-44.37256,-0.022166617,-0.2503219,9.80343,0.0013572555,0.00079008937,0.00027942657,-3.0517578e-05,6.1035156e-05,3.0517578e-05
2019-07-01T19:12:22.730Z,-0.012257867,0.0037175964,-0.20265679,-0.026321411,-0.25125122,9.808182,-5.583191,16.394043,-43.65692,-0.022673056,-0.25018495,9.8034315,-0.001249548,0.00040313601,-0.00045394897,-0.00015258789,0.00012207031,9.1552734e-05
2019-07-01T19:12:22.925Z,-0.012264999,0.0037158818,-0.20265621,-0.01675415,-0.25125122,9.8033905,-6.3568115,15.39917,-44.3573,-0.022611931,-0.2503151,9.80343,0.00084174797,7.066131e-05,0.0008201599,-9.1552734e-05,0.00018310547,3.0517578e-05
2019-07-01T19:12:23.146Z,-0.012267877,0.0037097938,-0.20264211,-0.026321411,-0.25125122,9.810577,-5.522156,16.036987,-44.184875,-0.022487167,-0.25034586,9.803429,0.00071538985,0.00032806396,-0.0013628006,3.0517578e-05,0.00012207031,-9.1552734e-05
2019-07-01T19:12:23.338Z,-0.012218921,0.0037217655,-0.20264666,-0.033493042,-0.24885559,9.800995,-4.4158936,15.678406,-44.680786,-0.02291054,-0.24945349,9.803451,-0.0012543891,0.0016135573,0.0021219254,-3.0517578e-05,-0.000289917,9.1552734e-05
2019-07-01T19:12:23.542Z,-0.012233792,0.0037228593,-0.20265742,-0.01675415,-0.24645996,9.808182,-4.7439575,15.583801,-44.83795,-0.022869688,-0.24974361,9.803443,-0.00033359416,2.3841858e-07,0.0003004074,-0.00015258789,0.0,3.0517578e-05
2019-07-01T19:12:23.743Z,-0.0121983895,0.0037041097,-0.20259036,-0.028717041,-0.24406433,9.810577,-5.857849,15.571594,-43.35785,-0.02266741,-0.24898775,9.803462,0.00065445714,0.0011536628,0.00019741058,3.0517578e-05,0.0,0.00015258789
2019-07-01T19:12:23.939Z,-0.012170368,0.003669368,-0.20248622,-0.026321411,-0.25125122,9.805786,-5.1986694,15.98053,-43.528748,-0.022137988,-0.24830933,9.803481,0.000843443,0.0012076497,0.0012493134,3.0517578e-05,1.5258789e-05,0.0002593994
2019-07-01T19:12:24.149Z,-0.0122244805,0.0036963096,-0.2025843,-0.028717041,-0.26081848,9.796219,-5.9188843,16.156006,-44.21997,-0.02241546,-0.24945766,9.803452,-0.0003128741,-0.0019568652,0.00034809113,-3.0517578e-05,6.1035156e-05,0.00015258789
2019-07-01T19:12:24.363Z,-0.012274233,0.003674977,-0.20255613,-0.028717041,-0.24645996,9.808182,-5.9539795,15.504456,-44.87915,-0.021815246,-0.25032762,9.803431,0.001007149,-0.0013405383,-0.0019931793,-0.00015258789,-0.00010681152,0.0002593994
2019-07-01T19:12:24.554Z,-0.012322624,0.0037033139,-0.20265478,-0.021530151,-0.24885559,9.812973,-6.8878174,15.634155,-41.64276,-0.022141831,-0.2513716,9.803402,-0.0015346743,-0.0014997721,0.00010967255,-0.00015258789,-0.00022888184,3.0517578e-05
2019-07-01T19:12:24.758Z,-0.012308918,0.0036804231,-0.20258868,-0.023925781,-0.2536316,9.805786,-5.670166,14.49585,-44.039917,-0.021773664,-0.251016,9.803412,0.00096701644,0.0012722015,0.0011968613,-0.00015258789,6.1035156e-05,0.0001373291
2019-07-01T19:12:24.954Z,-0.012296071,0.0037038408,-0.20264192,-0.021530151,-0.24885559,9.800995,-5.796814,15.2908325,-44.099426,-0.02226081,-0.25086355,9.803415,-0.00071246736,0.0008905828,-9.536743e-07,-9.1552734e-05,0.00018310547,0.00021362305
2019-07-01T19:12:25.166Z,-0.012294056,0.0036903317,-0.20260616,-0.023925781,-0.24406433,9.7986145,-5.6884766,15.878296,-43.907166,-0.022018546,-0.2507704,9.803419,0.00049442425,7.611513e-05,-0.00031757355,3.0517578e-05,-6.1035156e-05,3.0517578e-05
2019-07-01T19:12:25.368Z,-0.0122770015,0.003694968,-0.20260894,-0.026321411,-0.24406433,9.8033905,-5.793762,15.287781,-43.64624,-0.02217466,-0.25046137,9.803426,-0.00031024963,0.00048953295,0.00042819977,-3.0517578e-05,6.1035156e-05,3.0517578e-05
2019-07-01T19:12:25.572Z,-0.01226885,0.00370274,-0.20262453,-0.023925781,-0.24406433,9.796219,-6.037903,15.350342,-44.602966,-0.022352329,-0.25033608,9.803429,0.000111741945,0.0003656447,0.00012397766,-3.0517578e-05,0.00012207031,3.0517578e-05
2019-07-01T19:12:25.772Z,-0.012241925,0.0036737267,-0.20253566,-0.01914978,-0.2416687,9.820145,-6.150818,14.537048,-44.08722,-0.021924838,-0.24970183,9.803447,0.0011181459,0.0013909638,-0.00023174286,-3.0517578e-05,6.1035156e-05,0.0002746582
2019-07-01T19:12:25.976Z,-0.012255391,0.0036628295,-0.20251489,-0.011962891,-0.25125122,9.815353,-5.4351807,16.113281,-43.86902,-0.021667352,-0.24991666,9.803441,0.0001276359,0.0001654476,-0.00047588348,-0.00015258789,-0.00016784668,0.00015258789
2019-07-01T19:12:26.174Z,-0.012269693,0.003624404,-0.20242389,-0.023925781,-0.24406433,9.8033905,-6.32782,16.05835,-44.374084,-0.020895809,-0.25003675,9.803439,0.0017533954,-0.00016501546,0.0017595291,3.0517578e-05,0.00012207031,-0.00010681152
2019-07-01T19:12:26.377Z,-0.0122318035,0.0036362822,-0.20243412,-0.021530151,-0.25125122,9.808182,-6.411743,15.979004,-44.311523,-0.02127179,-0.24935654,9.803456,-2.4037436e-05,0.0015260428,-0.0018568039,-3.0517578e-05,0.0,3.0517578e-05
2019-07-01T19:12:26.578Z,-0.012250656,0.0036554574,-0.20249343,-0.026321411,-0.24645996,9.815353,-4.7576904,15.138245,-44.021606,-0.02155006,-0.249796,9.803445,-0.0011825766,-0.00070376694,-0.0023460388,-9.1552734e-05,-6.1035156e-05,0.00015258789
2019-07-01T19:12:26.784Z,-0.0122275455,0.0036721905,-0.20252402,-0.023925781,-0.2416687,9.812973,-5.7174683,15.371704,-44.68994,-0.021955429,-0.24941932,9.8034525,-0.0010205787,0.0013232231,0.0006685257,-0.00015258789,-6.1035156e-05,0.00038146973
2019-07-01T19:12:26.990Z,-0.012233982,0.0036788464,-0.20254456,-0.023925781,-0.24645996,9.7986145,-5.6915283,15.879822,-44.20929,-0.022052454,-0.24956983,9.80345,0.00052637607,4.3183565e-05,0.0002965927,-9.1552734e-05,0.00018310547,3.0517578e-05
2019-07-01T19:12:27.188Z,-0.012265314,0.0036936,-0.20259918,-0.028717041,-0.25125122,9.805786,-5.9814453,16.589355,-44.277954,-0.022197334,-0.2502313,9.8034315,-4.5808032e-05,-0.000972867,3.8146973e-05,-3.0517578e-05,0.00012207031,9.1552734e-05
2019-07-01T19:12:27.399Z,-0.012239985,0.0036891773,-0.20257428,-0.028717041,-0.2416687,9.796219,-5.783081,15.657043,-44.477844,-0.022219421,-0.2497268,9.803445,0.0006772671,0.001380831,-0.00077438354,-9.1552734e-05,0.0,0.00021362305
2019-07-01T19:12:27.598Z,-0.012243073,0.0037268316,-0.20267259,-0.01914978,-0.25125122,9.800995,-5.6777954,16.171265,-44.14978,-0.022905199,-0.24993798,9.803438,-0.00054071285,0.001157105,0.0020570755,-3.0517578e-05,0.0,0.00015258789
2019-07-01T19:12:27.795Z,-0.012238516,0.0037487966,-0.20272651,-0.028717041,-0.24406433,9.805786,-6.0943604,16.004944,-45.074463,-0.023331378,-0.24993904,9.803437,-0.00036109425,-0.00030344725,-0.0021505356,3.0517578e-05,6.1035156e-05,1.5258789e-05
2019-07-01T19:12:27.994Z,-0.012295591,0.0037079095,-0.20265211,-0.01675415,-0.2536316,9.815353,-5.055237,15.628052,-43.833923,-0.022338243,-0.2508707,9.803414,0.0017589815,-0.0017604232,0.0004892349,3.0517578e-05,-6.1035156e-05,-3.0517578e-05
2019-07-01T19:12:28.201Z,-0.012272946,0.0036920644,-0.20259932,-0.01914978,-0.25125122,9.805786,-5.1101685,16.358948,-44.514465,-0.02213748,-0.25037175,9.803429,0.00084188953,0.00086322427,0.00080394745,-3.0517578e-05,0.00018310547,-0.00015258789
2019-07-01T19:12:28.404Z,-0.012253667,0.0036639713,-0.20251688,-0.026321411,-0.25602722,9.810577,-6.878662,16.235352,-43.785095,-0.021695618,-0.24988814,9.803442,0.0011167489,0.0010928661,-0.00026607513,-3.0517578e-05,-6.1035156e-05,-3.0517578e-05
2019-07-01T19:12:28.612Z,-0.012270828,0.0036363585,-0.20245518,-0.028717041,-0.2536316,9.805786,-5.7540894,16.238403,-43.90869,-0.021112902,-0.25010666,9.803437,0.0007790495,-0.000110805035,0.0009441376,-9.1552734e-05,-0.00016784668,0.0001373291
2019-07-01T19:12:28.814Z,-0.012273296,0.0036627203,-0.20252417,-0.01914978,-0.24885559,9.805786,-5.532837,15.895081,-44.74182,-0.021591747,-0.25026023,9.803432,-0.0016102623,-0.00019723177,0.00031471252,-3.0517578e-05,-0.00016784668,9.1552734e-05
2019-07-01T19:12:29.018Z,-0.012278914,0.0036459146,-0.20248404,-0.021530151,-0.25125122,9.808182,-5.683899,16.026306,-44.180298,-0.021256933,-0.25030053,9.803432,0.0004340317,-0.0001705885,-0.0010728836,3.0517578e-05,0.00012207031,-0.00015258789
2019-07-01T19:12:29.221Z,-0.0122922,0.0036877294,-0.20259848,-0.023925781,-0.24645996,9.805786,-6.8237305,15.808105,-44.55719,-0.02197791,-0.2507242,9.803419,-0.0007529296,-0.0009458065,-0.0007162094,-3.0517578e-05,6.1035156e-05,-0.00015258789
2019-07-01T19:12:29.420Z,-0.01227883,0.0036811754,-0.2025745,-0.01675415,-0.25602722,9.808182,-5.8288574,16.38031,-44.100952,-0.02191132,-0.2504409,9.803427,0.00014192984,0.0006800294,0.00016498566,-9.1552734e-05,0.00012207031,0.00038146973
2019-07-01T19:12:29.625Z,-0.012274589,0.0036905764,-0.20259638,-0.0143585205,-0.24645996,9.808182,-5.430603,16.33606,-44.352722,-0.022103123,-0.25039735,9.803429,-0.00013822876,0.0006479919,0.00091838837,-9.1552734e-05,6.1035156e-05,3.0517578e-05
2019-07-01T19:12:29.827Z,-0.01224002,0.0036939569,-0.20258656,-0.023925781,-0.24885559,9.8033905,-5.2764893,16.200256,-44.38629,-0.022307944,-0.24974672,9.803444,6.602891e-05,0.0016687661,-0.00050354004,-3.0517578e-05,0.00012207031,-3.0517578e-05
2019-07-01T19:12:30.034Z,-0.012246591,0.0036901,-0.20258018,-0.021530151,-0.24645996,9.808182,-5.1330566,15.924072,-45.129395,-0.022209385,-0.24985746,9.803442,0.0004411731,-0.000119924545,0.00062179565,3.0517578e-05,-6.1035156e-05,0.00015258789
2019-07-01T19:12:30.237Z,-0.012189847,0.0036826336,-0.20253067,-0.023925781,-0.24885559,9.8033905,-6.114197,15.567017,-45.159912,-0.022304077,-0.24873707,9.80347,4.8013404e-05,0.0023497194,0.000415802,-0.00015258789,0.00012207031,3.0517578e-05
2019-07-01T19:12:30.443Z,-0.012224211,0.0036893373,-0.20256625,-0.021530151,-0.24885559,9.8033905,-5.786133,15.509033,-43.97888,-0.022287225,-0.24942437,9.8034525,0.0002756454,-0.0010329932,0.00028038025,-3.0517578e-05,6.1035156e-05,3.0517578e-05
2019-07-01T19:12:30.641Z,-0.0122356685,0.0036705006,-0.20252402,-0.023925781,-0.25125122,9.805786,-5.1742554,16.641235,-44.151306,-0.021890704,-0.2495686,9.80345,0.0005962048,-0.0006441176,2.0980835e-05,3.0517578e-05,-0.00010681152,0.00038146973
2019-07-01T19:12:30.842Z,-0.012227411,0.0036583,-0.2024883,-0.023925781,-0.25602722,9.793823,-5.8563232,15.873718,-44.732666,-0.021698296,-0.2493608,9.803455,0.00040250644,0.00032404065,-0.0011062622,9.1552734e-05,6.1035156e-05,3.0517578e-05
2019-07-01T19:12:31.042Z,-0.012249593,0.0036734089,-0.20253894,-0.023925781,-0.24406433,9.808182,-5.94635,15.724182,-44.985962,-0.02188743,-0.24984784,9.803442,-0.000369519,-0.0006220192,6.9618225e-05,-9.1552734e-05,6.1035156e-05,0.00021362305
2019-07-01T19:12:31.250Z,-0.012272001,0.0036679115,-0.2025368,-0.023925781,-0.25125122,9.7986145,-5.7647705,16.098022,-44.6167,-0.021693362,-0.25025627,9.803432,0.0003970228,-0.00044980645,-0.0005912781,-3.0517578e-05,-6.1035156e-05,-4.5776367e-05
2019-07-01T19:12:31.444Z,-0.012239638,0.0036920032,-0.20258135,-0.01914978,-0.24645996,9.810577,-6.373596,16.627502,-42.973328,-0.02227327,-0.24973153,9.803445,-0.00068643875,0.001173526,-0.00022983551,-9.1552734e-05,0.00012207031,0.00015258789
2019-07-01T19:12:31.651Z,-0.012248741,0.0036593433,-0.20250238,-0.021530151,-0.24406433,9.8033905,-5.229187,15.475464,-44.462585,-0.021630013,-0.24977484,9.803445,0.0012950394,-0.00021328032,0.0003232956,3.0517578e-05,0.0,0.00021362305
2019-07-01T19:12:31.851Z,-0.012241831,0.0036779093,-0.20254634,-0.021530151,-0.24885559,9.808182,-6.3323975,15.910339,-44.102478,-0.022002812,-0.24971686,9.803446,-0.0007267408,-0.0002603382,0.0008535385,9.1552734e-05,0.0,9.1552734e-05
2019-07-01T19:12:32.050Z,-0.012246128,0.003687785,-0.20257398,-0.023925781,-0.24885559,9.815353,-6.739807,15.734863,-43.74237,-0.022168348,-0.24983922,9.803442,-0.00031673908,-0.000134781,0.0002450943,-3.0517578e-05,6.1035156e-05,9.1552734e-05
2019-07-01T19:12:32.259Z,-0.0122487405,0.0037326983,-0.20269068,-0.01914978,-0.25125122,9.805786,-5.065918,15.638733,-45.266724,-0.022990711,-0.25007054,9.803434,-0.0016444847,-0.00013506413,0.0009698868,-0.00015258789,-0.00010681152,3.0517578e-05
2019-07-01T19:12:32.459Z,-0.012291897,0.0036901748,-0.2026046,-0.021530151,-0.25125122,9.808182,-4.8675537,16.220093,-43.493652,-0.02202451,-0.25072828,9.80342,0.0016907509,-0.0011694729,-0.0011129379,-3.0517578e-05,6.1035156e-05,3.0517578e-05
2019-07-01T19:12:32.669Z,-0.012312618,0.0037158655,-0.20268165,-0.023925781,-0.24885559,9.8033905,-7.0999146,15.061951,-44.92035,-0.022415765,-0.25122997,9.803406,-0.0007862728,-0.00042051077,0.0002193451,-0.0002746582,-6.1035156e-05,-9.1552734e-05
2019-07-01T19:12:32.903Z,-0.012265659,0.003706851,-0.20263338,-0.021530151,-0.25842285,9.810577,-6.500244,15.67688,-43.76526,-0.022441704,-0.25029135,9.80343,-4.3056905e-05,0.0022275746,0.00014972687,9.1552734e-05,6.1035156e-05,3.0517578e-05
2019-07-01T19:12:33.073Z,-0.01226189,0.0037112355,-0.20264262,-0.023925781,-0.24885559,9.817749,-5.770874,15.72113,-43.25714,-0.02253853,-0.25023663,9.8034315,5.2617863e-05,0.00025239587,-0.0010175705,-9.1552734e-05,-6.1035156e-05,9.1552734e-05
2019-07-01T19:12:33.278Z,-0.012252027,0.00370386,-0.2026184,-0.026321411,-0.25125122,9.800995,-6.188965,15.557861,-44.404602,-0.022442281,-0.25001737,9.803437,-4.2254105e-05,0.0009947121,0.0012493134,-0.00021362305,6.1035156e-05,9.1552734e-05
2019-07-01T19:12:33.476Z,-0.012262692,0.0036815417,-0.20256682,-0.01914978,-0.25125122,9.805786,-5.7769775,15.957642,-45.39795,-0.021984449,-0.25013232,9.803435,0.0009330511,0.00038063526,-0.00092220306,-3.0517578e-05,-6.1035156e-05,9.1552734e-05
2019-07-01T19:12:33.682Z,-0.012251083,0.0036922274,-0.20258804,-0.021530151,-0.24885559,9.7986145,-5.2612305,16.4917,-44.178772,-0.022230385,-0.24995233,9.803439,-2.5663525e-05,0.0006970763,0.0006599426,-9.1552734e-05,0.00012207031,3.0517578e-05
2019-07-01T19:12:33.882Z,-0.012238989,0.003707492,-0.20262076,-0.023925781,-0.25125122,9.805786,-5.3253174,15.104675,-44.381714,-0.022563256,-0.2497815,9.803443,-0.00064080954,0.0005032867,-0.001786232,3.0517578e-05,-6.1035156e-05,0.00021362305
2019-07-01T19:12:34.126Z,-0.012244906,0.0037019078,-0.20260958,-0.021530151,-0.25125122,9.812973,-5.000305,15.122986,-44.013977,-0.022435341,-0.24987267,9.80344,-0.00029684976,-0.00013516843,-0.0001039505,-9.1552734e-05,0.0,0.0002746582
2019-07-01T19:12:34.347Z,-0.012259617,0.0036693767,-0.20253395,-0.01914978,-0.25125122,9.8033905,-4.536438,16.616821,-44.709778,-0.021771437,-0.25002423,9.803438,0.0009631086,-0.00045630336,0.0012111664,0.00015258789,-0.00010681152,0.00050354004
2019-07-01T19:12:34.539Z,-0.012273271,0.0036731127,-0.20255084,-0.01675415,-0.25125122,9.808182,-5.66864,16.241455,-43.380737,-0.021784617,-0.2503016,9.803431,0.00024318881,-0.0006597042,-0.0006275177,-3.0517578e-05,0.0,0.00021362305
2019-07-01T19:12:34.745Z,-0.0122761605,0.0036864702,-0.20258668,-0.026321411,-0.26560974,9.805786,-6.2072754,16.78772,-43.47534,-0.022020498,-0.25041097,9.803428,-0.00046756864,-0.00055757165,-0.00058460236,3.0517578e-05,0.00012207031,0.00015258789
2019-07-01T19:12:34.955Z,-0.012292642,0.0036986792,-0.20262684,-0.026321411,-0.2536316,9.800995,-5.430603,16.261292,-43.99109,-0.022179183,-0.25077686,9.803418,0.00016554072,-0.00017604232,0.00121212,-3.0517578e-05,0.00012207031,3.0517578e-05
2019-07-01T19:12:35.154Z,-0.012296693,0.0037022242,-0.2026381,-0.021530151,-0.24885559,9.805786,-5.944824,15.724182,-44.985962,-0.022228269,-0.25086898,9.803415,-0.0005019661,-0.0005505979,0.00047969818,3.0517578e-05,-0.00022888184,3.0517578e-05
2019-07-01T19:12:35.354Z,-0.012287517,0.0036632074,-0.20253304,-0.01914978,-0.24406433,9.7986145,-5.4901123,15.023804,-44.69452,-0.021542335,-0.25053543,9.803425,0.0009635836,0.00078082085,0.00016784668,3.0517578e-05,-6.1035156e-05,-0.00010681152
2019-07-01T19:12:35.559Z,-0.012262103,0.0036613308,-0.20251462,-0.01914978,-0.23928833,9.8033905,-5.1651,17.015076,-45.05768,-0.021611976,-0.2500396,9.803439,-0.0001605358,0.00096046925,-0.003235817,-9.1552734e-05,0.0,-4.5776367e-05
2019-07-01T19:12:35.759Z,-0.012266166,0.0036479495,-0.20248245,-0.01914978,-0.24645996,9.815353,-5.7373047,16.603088,-43.90869,-0.021347065,-0.25006375,9.803438,0.0007658284,0.00028049946,0.0010299683,-3.0517578e-05,-6.1035156e-05,-3.0517578e-05
2019-07-01T19:12:35.958Z,-0.01224356,0.0036559696,-0.20249094,-0.01914978,-0.24645996,9.808182,-6.248474,16.062927,-44.5282,-0.02158872,-0.24966168,9.803448,-0.0008976925,0.001108557,0.0019712448,3.0517578e-05,-6.1035156e-05,3.0517578e-05
2019-07-01T19:12:36.171Z,-0.012256205,0.0036580907,-0.20250314,-0.01675415,-0.24406433,9.805786,-6.1920166,15.635681,-45.295715,-0.021576108,-0.24991322,9.803442,0.0002781693,-0.0005822331,-0.0015649796,-9.1552734e-05,-6.1035156e-05,0.00021362305
2019-07-01T19:12:36.432Z,-0.012241039,0.0036467223,-0.20246586,-0.021530151,-0.25125122,9.805786,-5.8181763,16.523743,-43.545532,-0.021427523,-0.24957602,9.80345,-0.00034253113,0.0007697791,0.000869751,9.1552734e-05,0.0,3.0517578e-05
2019-07-01T19:12:36.620Z,-0.012266725,0.0036545617,-0.20249972,-0.023925781,-0.2416687,9.812973,-5.7754517,15.803528,-44.14673,-0.021467416,-0.25010112,9.803436,0.000168439,-0.0011233687,-0.0018110275,-0.00015258789,0.00012207031,9.1552734e-05
2019-07-01T19:12:36.827Z,-0.012244222,0.0036634593,-0.20251052,-0.021530151,-0.25602722,9.805786,-5.831909,16.384888,-44.628906,-0.021724937,-0.24970458,9.803447,0.00019803457,0.0013593584,0.0008735657,-3.0517578e-05,6.1035156e-05,3.0517578e-05
2019-07-01T19:12:37.027Z,-0.01221963,0.0036430834,-0.20244507,-0.026321411,-0.24645996,9.808182,-5.69458,15.884399,-44.737244,-0.021447966,-0.24915002,9.803461,-8.06395e-05,0.0010295361,-0.0014944077,-3.0517578e-05,-6.1035156e-05,0.00021362305
2019-07-01T19:12:37.228Z,-0.012200994,0.0036809642,-0.20253235,-0.023925781,-0.2536316,9.808182,-6.4956665,15.90271,-44.473267,-0.022227302,-0.24894454,9.803465,-0.0012225453,0.0003657043,-0.000869751,0.00015258789,0.00012207031,0.00015258789
2019-07-01T19:12:37.431Z,-0.012209101,0.0036964554,-0.20257644,-0.021530151,-0.2536316,9.815353,-6.4437866,15.324402,-44.81964,-0.022481384,-0.2491627,9.803458,-0.00072257407,-0.00035841763,0.0014858246,-0.00021362305,-0.00016784668,0.00032043457
2019-07-01T19:12:37.634Z,-0.0122175645,0.0036955653,-0.20257868,-0.026321411,-0.24885559,9.805786,-5.821228,16.525269,-43.84613,-0.02243008,-0.24932177,9.803455,-0.00030118413,4.1291118e-05,-0.0002784729,-9.1552734e-05,-6.1035156e-05,-3.0517578e-05
2019-07-01T19:12:37.839Z,-0.012225861,0.003702785,-0.20260166,-0.0143585205,-0.24645996,9.7986145,-5.6991577,15.585327,-43.740845,-0.02252991,-0.24951027,9.80345,-0.00043079257,0.00022347271,-0.00049591064,-0.00015258789,0.0,-0.00010681152
2019-07-01T19:12:38.041Z,-0.012260911,0.0037049428,-0.20262595,-0.01914978,-0.26081848,9.808182,-5.480957,15.24353,-44.726562,-0.022425834,-0.25019243,9.803432,0.00065531954,-0.0012455285,-1.4305115e-05,-3.0517578e-05,0.0,3.0517578e-05
2019-07-01T19:12:38.242Z,-0.012289591,0.0036828246,-0.2025845,-0.01675415,-0.24885559,9.808182,-5.6747437,16.168213,-43.77289,-0.021897662,-0.2506543,9.803421,0.0010725763,-0.0005607307,-0.00048446655,-9.1552734e-05,-6.1035156e-05,9.1552734e-05
2019-07-01T19:12:38.442Z,-0.012261581,0.0036672403,-0.20252952,-0.023925781,-0.24645996,9.8033905,-4.878235,16.004944,-43.914795,-0.021723734,-0.25005332,9.803436,-0.00051800907,0.0012618601,0.0022306442,3.0517578e-05,-0.00010681152,0.00021362305
2019-07-01T19:12:38.650Z,-0.012282893,0.003690165,-0.20259976,-0.028717041,-0.25602722,9.808182,-5.656433,16.68396,-44.19861,-0.02206135,-0.25055522,9.803424,-0.00042526424,-0.0008699298,-0.000749588,3.0517578e-05,0.0,0.00015258789
2019-07-01T19:12:38.853Z,-0.012272622,0.0036999132,-0.2026193,-0.021530151,-0.25125122,9.815353,-5.9417725,15.797424,-45.12329,-0.022284389,-0.25039718,9.803428,-0.00044526346,0.00017404556,0.00093364716,-3.0517578e-05,6.1035156e-05,-0.00015258789
2019-07-01T19:12:39.053Z,-0.012240377,0.0037089647,-0.20262527,-0.023925781,-0.24885559,9.7986145,-6.915283,15.660095,-45.33539,-0.022584861,-0.24981412,9.803442,-0.00061722845,0.0012748986,0.0004711151,3.0517578e-05,0.0,3.0517578e-05
2019-07-01T19:12:39.252Z,-0.012251415,0.0037011025,-0.202611,-0.01914978,-0.25842285,9.793823,-5.455017,15.675354,-43.95752,-0.022393642,-0.24999449,9.803437,0.0010984857,-0.00047132373,-0.0003271103,-3.0517578e-05,0.00012207031,0.00015258789
2019-07-01T19:12:39.460Z,-0.012250705,0.0037000387,-0.20260789,-0.01675415,-0.25125122,9.808182,-5.958557,15.356445,-44.682312,-0.022376832,-0.24997656,9.803438,-0.00059904344,0.0002028048,-0.00196743,3.0517578e-05,-0.00010681152,3.0517578e-05
2019-07-01T19:12:39.664Z,-0.012263783,0.0036918498,-0.20259386,-0.021530151,-0.25602722,9.8033905,-6.2423706,16.134644,-44.13452,-0.022171168,-0.25019482,9.803432,0.0006442722,-0.00077551603,-0.0005207062,-3.0517578e-05,6.1035156e-05,1.5258789e-05
2019-07-01T19:12:39.870Z,-0.012283093,0.0037494344,-0.20275201,-0.023925781,-0.24885559,9.7986145,-4.974365,15.708923,-44.273376,-0.023159802,-0.25079814,9.803415,-0.001966698,-0.0011190772,0.0010881424,3.0517578e-05,-0.00010681152,-3.0517578e-05
2019-07-01T19:12:40.071Z,-0.012261457,0.0037381449,-0.20271145,-0.021530151,-0.2416687,9.800995,-5.4641724,15.6814575,-44.93866,-0.023039429,-0.25033683,9.803427,-0.00040892884,0.00081190467,-0.00023174286,9.1552734e-05,0.0,-0.00010681152
2019-07-01T19:12:40.272Z,-0.012224612,0.003736575,-0.20268771,-0.026321411,-0.24885559,9.8033905,-6.083679,16.221619,-44.72809,-0.023161856,-0.24962258,9.803446,0.0004312154,0.0015375763,0.00048732758,-0.00015258789,0.00018310547,-0.00010681152
2019-07-01T19:12:40.475Z,-0.01222577,0.0037332252,-0.20267972,-0.01914978,-0.25602722,9.8033905,-4.638672,16.023254,-44.299316,-0.023094956,-0.24963133,9.803446,0.0006080661,0.00010794401,-0.00031471252,3.0517578e-05,0.00012207031,3.0517578e-05
2019-07-01T19:12:40.676Z,-0.012265783,0.0037395824,-0.20271745,-0.028717041,-0.24885559,9.808182,-5.2764893,16.05072,-43.66455,-0.023048298,-0.2504258,9.803426,0.00031761266,-0.0012451112,0.00027179718,-0.00015258789,0.0,-0.00022888184
2019-07-01T19:12:40.882Z,-0.012314705,0.003714023,-0.20267802,-0.026321411,-0.25125122,9.808182,-6.4208984,15.684509,-43.91632,-0.022373008,-0.25126266,9.803406,0.0017948244,-0.0011121929,0.0009899139,-3.0517578e-05,0.00018310547,1.5258789e-05
2019-07-01T19:12:41.081Z,-0.012298185,0.003720996,-0.20268708,-0.021530151,-0.2536316,9.8033905,-6.111145,15.567017,-44.859314,-0.022570282,-0.25097337,9.803412,0.00032729842,0.0007316172,-0.001414299,-0.00015258789,0.00018310547,-0.00022888184
2019-07-01T19:12:41.284Z,-0.012258167,0.0037228086,-0.20267034,-0.023925781,-0.24885559,9.805786,-6.404114,16.123962,-44.129944,-0.0227685,-0.25021178,9.8034315,0.00028099678,0.0018878877,-0.0003080368,-3.0517578e-05,6.1035156e-05,-0.00010681152
2019-07-01T19:12:41.489Z,-0.012273994,0.0037557622,-0.2027634,-0.01675415,-0.25125122,9.812973,-5.9310913,15.940857,-44.641113,-0.023314608,-0.25064886,9.803419,-0.0010792296,-0.0007778704,0.00075244904,-3.0517578e-05,6.1035156e-05,0.00021362305
2019-07-01T19:12:41.694Z,-0.012228456,0.003752635,-0.20273098,-0.028717041,-0.23928833,9.808182,-5.8410645,16.16211,-44.371033,-0.023443956,-0.24976125,9.803441,-0.00024854206,0.0016697049,-0.00045585632,-3.0517578e-05,6.1035156e-05,9.1552734e-05
2019-07-01T19:12:41.895Z,-0.0122474935,0.003748348,-0.20273016,-0.021530151,-0.24406433,9.805786,-4.966736,15.852356,-43.867493,-0.023286121,-0.25010973,9.803432,0.00079982914,-0.000597775,0.0006532669,3.0517578e-05,0.0,9.1552734e-05
2019-07-01T19:12:42.099Z,-0.0122396955,0.0037235175,-0.20266226,-0.026321411,-0.25125122,9.8033905,-4.890442,15.939331,-45.137024,-0.022857616,-0.2498597,9.80344,0.0010894388,0.0010709614,0.0009288788,-0.00021362305,0.00018310547,-3.0517578e-05
2019-07-01T19:12:42.302Z,-0.012233978,0.0037497594,-0.20272656,-0.028717041,-0.25125122,9.810577,-5.7495117,16.31012,-43.667603,-0.0233679,-0.24985574,9.803439,-0.0005514715,0.0005956739,0.00014591217,-3.0517578e-05,6.1035156e-05,-9.1552734e-05
2019-07-01T19:12:42.505Z,-0.012191239,0.0037584098,-0.20272589,-0.021530151,-0.25125122,9.8033905,-6.9259644,15.214539,-44.14215,-0.023704171,-0.24906945,9.803458,-0.0002158042,0.0012361705,-0.0005464554,-3.0517578e-05,6.1035156e-05,-0.00015258789
2019-07-01T19:12:42.707Z,-0.012222459,0.0037605108,-0.20274799,-0.023925781,-0.25125122,9.815353,-5.378723,15.684509,-44.563293,-0.02361472,-0.24967779,9.803442,0.0006386321,-0.0008176714,-0.0017957687,-9.1552734e-05,0.00024414062,-3.0517578e-05
2019-07-01T19:12:42.915Z,-0.012213713,0.0037261515,-0.20265512,-0.01914978,-0.2536316,9.793823,-6.8511963,16.818237,-43.518066,-0.023013322,-0.2493711,9.8034525,0.0017175544,0.00010213256,0.0016679764,0.00018310547,7.6293945e-05,-3.0517578e-05
2019-07-01T19:12:43.115Z,-0.012224722,0.0037503336,-0.20272307,-0.021530151,-0.2416687,9.7986145,-6.2927246,16.7099,-43.41278,-0.023416629,-0.24968022,9.803444,-0.0005056206,-0.0010450631,-0.0017604828,6.1035156e-05,1.5258789e-05,-0.00015258789
2019-07-01T19:12:43.318Z,-0.0121961525,0.0037581152,-0.20272776,-0.023925781,-0.24885559,9.808182,-5.744934,16.612244,-44.88983,-0.023678498,-0.24916269,9.803456,-1.5901402e-05,0.0012946874,-0.00085544586,0.0,0.0001373291,-0.00015258789
2019-07-01T19:12:43.519Z,-0.01223777,0.0037255131,-0.20266636,-0.021530151,-0.25602722,9.796219,-6.0073853,16.2323,-45.40863,-0.022902556,-0.24983075,9.803441,0.0013764296,-0.0016054511,0.0013399124,0.0,7.6293945e-05,9.1552734e-05
2019-07-01T19:12:43.762Z,-0.01219685,0.0037359304,-0.2026712,-0.01914978,-0.25125122,9.800995,-6.060791,16.583252,-44.126892,-0.02326407,-0.24908653,9.803458,0.0002875682,0.0002655834,-0.0009431839,6.1035156e-05,1.5258789e-05,3.0517578e-05
2019-07-01T19:12:43.959Z,-0.012226426,0.0037126332,-0.20262723,-0.023925781,-0.25125122,9.8033905,-6.793213,16.616821,-45.222473,-0.022710275,-0.24956083,9.803448,0.001411641,-0.0011731535,-0.00047779083,0.0,0.0001373291,3.0517578e-05
2019-07-01T19:12:44.185Z,-0.01220461,0.0037192444,-0.20263253,-0.03111267,-0.24645996,9.796219,-6.17218,15.922546,-44.33136,-0.022922613,-0.24916832,9.803457,-0.0010016356,0.0005735308,-0.00095176697,6.1035156e-05,-0.00021362305,9.1552734e-05
2019-07-01T19:12:44.378Z,-0.012222715,0.0037423414,-0.2027015,-0.01914978,-0.2536316,9.805786,-5.683899,15.872192,-43.154907,-0.02327663,-0.24960937,9.803445,-0.0006471947,-0.00018656254,0.0003271103,-0.00012207031,7.6293945e-05,3.0517578e-05
2019-07-01T19:12:44.581Z,-0.012200886,0.0037584922,-0.20273127,-0.023925781,-0.24645996,9.8033905,-4.978943,15.560913,-43.77594,-0.023666017,-0.24925517,9.803453,-0.0002561882,0.00091028214,0.0013399124,0.0,0.0001373291,-0.00015258789
2019-07-01T19:12:44.787Z,-0.012203391,0.0037473675,-0.20270406,-0.026321411,-0.2416687,9.791428,-5.2215576,15.391541,-43.118286,-0.023449346,-0.24925835,9.803453,0.00047402456,-2.3320317e-05,0.0007305145,-0.00012207031,-4.5776367e-05,-0.00010681152
2019-07-01T19:12:44.992Z,-0.012201534,0.003743839,-0.202694,-0.01675415,-0.2536316,9.8033905,-5.685425,16.027832,-44.406128,-0.023391522,-0.24920845,9.803455,-5.9127808e-05,0.0006194562,-0.0019102097,0.0,-4.5776367e-05,9.1552734e-05
2019-07-01T19:12:45.193Z,-0.012165388,0.0037126704,-0.20259468,-0.021530151,-0.24406433,9.789032,-5.795288,15.2908325,-44.023132,-0.02296188,-0.24838819,9.803477,0.00094342604,0.0016838759,-0.0017414093,-6.1035156e-05,7.6293945e-05,0.0002746582
2019-07-01T19:12:45.392Z,-0.012148121,0.0037142946,-0.20258962,-0.023925781,-0.24885559,9.808182,-5.0369263,16.296387,-45.28351,-0.02306298,-0.24806295,9.803485,0.0005718153,0.00017179549,0.00026988983,0.00024414062,0.00019836426,3.0517578e-05
2019-07-01T19:12:45.591Z,-0.012143381,0.0037214607,-0.20260547,-0.01914978,-0.24885559,9.805786,-6.0394287,16.946411,-43.450928,-0.023215426,-0.24800077,9.803486,7.8920275e-06,-0.0005991012,0.00065231323,0.0,-4.5776367e-05,0.0002593994
2019-07-01T19:12:45.790Z,-0.012147978,0.0037062755,-0.20256896,-0.0143585205,-0.25125122,9.7986145,-5.718994,15.525818,-45.715332,-0.022914775,-0.24802786,9.803486,0.00067015924,-0.00032551587,0.0013895035,0.00012207031,7.6293945e-05,0.00015258789
2019-07-01T19:12:45.997Z,-0.012150369,0.0037044992,-0.20256568,-0.023925781,-0.23928833,9.805786,-5.290222,15.908813,-44.371033,-0.022871992,-0.24806663,9.803485,-9.113364e-05,0.00018700957,-0.0011472702,-6.1035156e-05,1.5258789e-05,-0.00022888184
2019-07-01T19:12:46.206Z,-0.012141164,0.0036798508,-0.20249751,-0.021530151,-0.24885559,9.808182,-6.390381,14.746094,-45.092773,-0.022452455,-0.24779044,9.8034935,0.0011507068,0.00011974573,-0.001572609,6.1035156e-05,1.5258789e-05,0.00033569336
2019-07-01T19:12:46.403Z,-0.012166563,0.0037044296,-0.20257416,-0.021530151,-0.24645996,9.805786,-6.036377,15.423584,-44.589233,-0.022804152,-0.24837755,9.803478,-0.0001603216,-0.0009510219,0.00039863586,-0.00012207031,0.00019836426,3.0517578e-05
2019-07-01T19:12:46.614Z,-0.012166105,0.0037211648,-0.20261686,-0.023925781,-0.24645996,9.808182,-5.7510376,15.933228,-42.00592,-0.02311653,-0.24843623,9.803475,-0.00057854503,-0.00015562773,0.001537323,0.00012207031,1.5258789e-05,3.0517578e-05
2019-07-01T19:12:46.812Z,-0.0121487435,0.0037159224,-0.20259413,-0.028717041,-0.24885559,9.800995,-5.088806,14.97345,-44.49463,-0.023090627,-0.24808146,9.803484,0.0003578551,0.00021752715,0.0008583069,0.00024414062,1.5258789e-05,9.1552734e-05
2019-07-01T19:12:47.013Z,-0.012135114,0.0037293567,-0.20262131,-0.028717041,-0.24885559,9.8033905,-5.630493,15.447998,-44.377136,-0.023395916,-0.24787377,9.803489,-0.00052839145,-0.0009662062,-0.0011892319,0.00030517578,1.5258789e-05,0.00033569336
2019-07-01T19:12:47.214Z,-0.012154559,0.0037363153,-0.20264956,-0.023925781,-0.24885559,9.805786,-5.2703857,16.34674,-44.3573,-0.023445094,-0.2482755,9.803479,-6.3423067e-06,-0.0010391027,-0.00015354156,0.0,-4.5776367e-05,0.00021362305
2019-07-01T19:12:47.418Z,-0.012161287,0.0037263022,-0.20262747,-0.01914978,-0.24645996,9.800995,-6.7886353,14.71405,-44.40155,-0.023231655,-0.24836437,9.803477,0.0002551917,-0.00045621395,0.0016450882,0.0,1.5258789e-05,3.0517578e-05
2019-07-01T19:12:47.630Z,-0.012175682,0.003717352,-0.2026122,-0.023925781,-0.25842285,9.7986145,-5.7037354,15.740967,-44.992065,-0.023006426,-0.24860486,9.803472,4.4057146e-05,-0.0004568249,-0.0009794235,0.0,-0.00010681152,0.00021362305
2019-07-01T19:12:47.832Z,-0.012153504,0.0037260358,-0.20262262,-0.021530151,-0.24406433,9.8033905,-5.66864,16.394043,-44.406128,-0.023258703,-0.24821377,9.803481,-0.00042217597,0.00104478,-0.0011291504,-6.1035156e-05,7.6293945e-05,9.1552734e-05
2019-07-01T19:12:48.035Z,-0.012148253,0.0037048724,-0.2025655,-0.026321411,-0.25125122,9.808182,-5.9890747,16.369629,-44.096375,-0.022887615,-0.24802747,9.803486,0.000640532,0.00085285306,-0.0004234314,0.0,1.5258789e-05,3.0517578e-05
2019-07-01T19:12:48.236Z,-0.012164725,0.0036896202,-0.20253517,-0.026321411,-0.25842285,9.810577,-5.383301,15.687561,-45.16754,-0.022536932,-0.24828249,9.80348,0.0007649455,-0.0007918477,0.0017910004,0.0,-4.5776367e-05,0.00021362305
2019-07-01T19:12:48.436Z,-0.012220325,0.0037049423,-0.20260423,-0.01914978,-0.24645996,9.8033905,-5.055237,15.856934,-45.069885,-0.022592686,-0.2494126,9.803452,-0.0008582454,0.0008213073,-0.0008535385,-6.1035156e-05,0.0001373291,-0.00015258789
2019-07-01T19:12:48.639Z,-0.012170895,0.0037533673,-0.20270206,-0.023925781,-0.2536316,9.808182,-4.3441772,15.385437,-44.1391,-0.023694294,-0.24865818,9.803468,-0.0014347751,0.0015036762,0.00023555756,6.1035156e-05,0.00019836426,0.00015258789
2019-07-01T19:12:48.841Z,-0.012126107,0.0037656957,-0.20270973,-0.028717041,-0.24406433,9.805786,-5.6991577,15.585327,-43.740845,-0.024107216,-0.24784738,9.803488,-0.00030508637,0.0011613816,-0.00032520294,0.0,7.6293945e-05,-9.1552734e-05
2019-07-01T19:12:49.043Z,-0.012148762,0.003743291,-0.20266436,-0.026321411,-0.24885559,9.8033905,-6.373596,14.958191,-43.917847,-0.023598352,-0.24819225,9.80348,0.0011068303,-0.00041988492,-0.001496315,-6.1035156e-05,7.6293945e-05,0.00033569336
2019-07-01T19:12:49.242Z,-0.012145424,0.0037369286,-0.20264626,-0.021530151,-0.25125122,9.8033905,-5.9539795,15.4296875,-44.592285,-0.023494026,-0.24810244,9.803483,0.00028432347,0.0006697327,-0.00083065033,-0.00012207031,1.5258789e-05,0.00015258789
2019-07-01T19:12:49.449Z,-0.0121249,0.0037371728,-0.2026359,-0.021530151,-0.24406433,9.793823,-6.0394287,15.19928,-43.806458,-0.023582932,-0.24770905,9.803493,0.00012974255,0.0007715374,0.00056552887,6.1035156e-05,1.5258789e-05,9.1552734e-05
