timestamp,rotationVector_x,rotationVector_y,rotationVector_z,accelerometer_x,accelerometer_y,accelerometer_z,magneticField_x,magneticField_y,magneticField_z,gravity_x,gravity_y,gravity_z,linearAcceleration_x,linearAcceleration_y,linearAcceleration_z,gyroscope_x,gyroscope_y,gyroscope_z
2019-07-01T19:17:57.083Z,-0.012300288,0.0037236197,-0.20269495,-0.023925781,-0.25004578,9.805557,-4.1748047,15.693665,-44.688416,-0.022610296,-0.25102434,9.803411,-0.00059665926,0.0002798736,0.00069236755,-6.1035156e-05,-6.1035156e-05,7.6293945e-05
2019-07-01T19:17:57.285Z,-0.012266844,0.0037603956,-0.20277146,-0.023208618,-0.24932861,9.801956,-5.8258057,16.529846,-44.448853,-0.02342996,-0.25053015,9.803421,-0.0012109168,0.0009795129,0.00030899048,-6.1035156e-05,4.5776367e-05,6.1035156e-05
2019-07-01T19:17:57.491Z,-0.012254113,0.003744201,-0.20272307,-0.022491455,-0.2534027,9.800522,-5.4092407,16.697693,-43.676758,-0.02318197,-0.25022018,9.80343,0.000446748,0.0011244714,-0.0013875961,-0.00012207031,0.00016784668,0.00018310547
2019-07-01T19:17:57.694Z,-0.012311245,0.0037609083,-0.20279655,-0.0236969,-0.2524414,9.8029175,-5.7022095,15.663147,-44.55414,-0.023256741,-0.25138533,9.803399,0.0007629227,-0.0017987788,-0.002354622,-0.00012207031,-1.5258789e-05,0.00024414062
2019-07-01T19:17:57.926Z,-0.012352515,0.0037697654,-0.20284139,-0.02130127,-0.25076294,9.802673,-5.5358887,15.744019,-44.16809,-0.023251094,-0.25221407,9.803379,-0.00067680515,-0.00072333217,0.00018787384,-0.00012207031,-7.6293945e-05,-4.5776367e-05
2019-07-01T19:17:58.102Z,-0.01234064,0.0037266572,-0.20272435,-0.022018433,-0.2498169,9.802444,-6.311035,16.423035,-44.300842,-0.022500612,-0.2518119,9.8033905,0.0014420971,0.0007893145,0.00060367584,-0.00012207031,-7.6293945e-05,0.00018310547
2019-07-01T19:17:58.303Z,-0.012321862,0.003712794,-0.20267871,-0.023452759,-0.25219727,9.802673,-6.114197,17.086792,-43.418884,-0.022320779,-0.2513952,9.803402,0.00054426864,0.0015533268,-0.00069999695,0.0,4.5776367e-05,1.5258789e-05
2019-07-01T19:17:58.506Z,-0.0123295775,0.0037423335,-0.20275867,-0.021057129,-0.2514801,9.8029175,-5.6640625,16.542053,-44.604492,-0.022836838,-0.2516626,9.803394,-0.00086156465,-0.00055122375,0.0006418228,-0.00018310547,4.5776367e-05,-4.5776367e-05
2019-07-01T19:17:58.713Z,-0.012330842,0.0037224563,-0.20270832,-0.025604248,-0.25076294,9.803162,-5.4473877,15.9729,-44.65332,-0.022463022,-0.2516067,9.803396,0.00093131885,0.000582248,-4.5776367e-05,-6.1035156e-05,0.00010681152,7.6293945e-05
2019-07-01T19:17:58.913Z,-0.012323681,0.0037678466,-0.20282102,-0.022491455,-0.2524414,9.802673,-5.0064087,16.952515,-45.077515,-0.023334216,-0.25165233,9.803393,-0.0017988402,0.00038138032,-0.00017929077,-0.00018310547,-0.00018310547,-4.5776367e-05
2019-07-01T19:17:59.114Z,-0.012293371,0.0037227627,-0.20268905,-0.023452759,-0.2514801,9.802673,-5.9417725,15.644836,-44.17267,-0.022622854,-0.250888,9.803414,0.0008480903,0.0022713244,0.00018024445,0.0,-7.6293945e-05,-6.1035156e-05
2019-07-01T19:17:59.316Z,-0.012317815,0.003755109,-0.20278518,-0.022979736,-0.25196838,9.803146,-6.059265,16.578674,-43.598938,-0.023122156,-0.25148818,9.803398,-0.0012925845,-0.00096058846,-0.00019359589,0.0,4.5776367e-05,1.5258789e-05
2019-07-01T19:17:59.517Z,-0.01232499,0.0037405894,-0.20275174,-0.0236969,-0.25053406,9.801483,-5.809021,16.818237,-44.01245,-0.02282337,-0.25156742,9.803396,8.695386e-05,7.82907e-05,-0.00012683868,-6.1035156e-05,-0.00018310547,0.00024414062
2019-07-01T19:17:59.721Z,-0.012317078,0.0037536765,-0.2027811,-0.024169922,-0.25291443,9.801956,-5.7724,15.953064,-44.87152,-0.023098622,-0.2514682,9.803397,-0.00059997477,0.0006867945,-0.00072193146,-0.00012207031,4.5776367e-05,-4.5776367e-05
2019-07-01T19:17:59.936Z,-0.012338225,0.003776387,-0.20285073,-0.022735596,-0.2524414,9.804352,-5.2612305,16.567993,-44.46411,-0.023432713,-0.25196624,9.803385,-0.0004955176,-0.0007456541,-0.0006322861,-0.00012207031,-1.5258789e-05,7.6293945e-05
2019-07-01T19:18:00.139Z,-0.012347836,0.0037654391,-0.20282777,-0.021057129,-0.2498169,9.805542,-5.433655,16.11023,-43.492126,-0.023190137,-0.2521067,9.803382,0.00021030195,0.0001372397,0.0019731522,-0.00012207031,6.1035156e-05,0.00018310547
2019-07-01T19:18:00.339Z,-0.012325538,0.0037383952,-0.2027464,-0.024414062,-0.2498169,9.8029175,-5.357361,16.19873,-44.68689,-0.022780426,-0.25156912,9.803397,0.0019686464,0.0010484159,0.0011529922,0.00012207031,0.00022888184,-0.00012207031
2019-07-01T19:18:00.534Z,-0.0122648375,0.0037658846,-0.20278446,-0.023925781,-0.25172424,9.8022,-5.354309,16.345215,-44.883728,-0.023540024,-0.2505138,9.803422,-0.0011025239,0.0016624331,-0.00066947937,0.0,0.00010681152,-0.00010681152
2019-07-01T19:18:00.735Z,-0.012310076,0.003790534,-0.20287196,-0.022491455,-0.2529297,9.8022,-5.986023,16.519165,-44.4458,-0.02381095,-0.25148255,9.803396,-0.0003596414,-0.0014389455,-0.0009202957,-6.1035156e-05,4.5776367e-05,7.6293945e-05
2019-07-01T19:18:00.942Z,-0.012343083,0.0037946792,-0.20290029,-0.022735596,-0.24861145,9.8022,-5.6289673,15.446472,-44.075012,-0.023751894,-0.2521335,9.80338,0.0002975557,-0.00081297755,-0.0007715225,-0.00012207031,4.5776367e-05,0.00018310547
2019-07-01T19:18:01.146Z,-0.0122762425,0.0037479242,-0.20274447,-0.023452759,-0.25196838,9.8022,-5.3253174,17.079163,-45.413208,-0.02315998,-0.2506604,9.803418,0.0016270299,0.0027357936,-0.0009946823,0.0,0.00010681152,0.00024414062
2019-07-01T19:18:01.349Z,-0.012304779,0.0037589187,-0.20278797,-0.023208618,-0.2514801,9.804596,-6.0317993,17.23938,-43.99414,-0.023246458,-0.25125307,9.803403,-0.0004370436,-0.0012084544,0.0007715225,0.0,-7.6293945e-05,0.00012207031
2019-07-01T19:18:01.552Z,-0.012310072,0.0037715316,-0.20282318,-0.024169922,-0.25483704,9.804596,-4.9728394,15.859985,-44.77234,-0.023458578,-0.25140572,9.803399,-0.00023918413,-0.00032776594,0.0008401871,0.00012207031,-1.5258789e-05,0.00012207031
2019-07-01T19:18:01.799Z,-0.012360906,0.0037903185,-0.20289865,-0.022018433,-0.25076294,9.804108,-6.326294,16.131592,-44.58618,-0.023597628,-0.2524583,9.803371,-0.00032751635,-0.002371937,0.0011892319,-6.1035156e-05,-0.0001373291,0.00012207031
2019-07-01T19:18:01.955Z,-0.012337634,0.0037569287,-0.20280045,-0.022018433,-0.25028992,9.803879,-4.9468994,16.290283,-43.77899,-0.023074323,-0.25187632,9.803388,0.001057215,0.0018450022,0.0006456375,-0.00018310547,0.00022888184,7.6293945e-05
2019-07-01T19:18:02.157Z,-0.012321831,0.0037587632,-0.2027967,-0.023452759,-0.25125122,9.80603,-5.2734375,16.275024,-44.296265,-0.02317339,-0.2515801,9.803395,0.00043904223,0.00083070993,-4.4822693e-05,-6.1035156e-05,0.00010681152,6.1035156e-05
2019-07-01T19:18:02.364Z,-0.012319243,0.003757931,-0.20279318,-0.021530151,-0.2534027,9.800766,-5.432129,16.184998,-43.77899,-0.023168616,-0.251527,9.803397,0.00043552555,0.00079128146,0.0010852814,-0.00012207031,4.5776367e-05,7.6293945e-05
2019-07-01T19:18:02.562Z,-0.012356112,0.0037229462,-0.2027231,-0.022979736,-0.2514801,9.803635,-4.373169,16.627502,-44.49005,-0.022368133,-0.2520942,9.803384,0.0015549865,-0.0017833114,-0.0023040771,0.00018310547,-7.6293945e-05,1.5258789e-05
2019-07-01T19:18:02.777Z,-0.012343502,0.0037138723,-0.20269306,-0.02154541,-0.25291443,9.802673,-6.7123413,16.166687,-42.749023,-0.022251755,-0.25181532,9.803391,-0.00048375875,-0.00015214086,0.00020694733,0.00036621094,-7.6293945e-05,-4.5776367e-05
2019-07-01T19:18:02.968Z,-0.012347764,0.0037051481,-0.20267294,-0.0236969,-0.2514801,9.805069,-6.05011,16.802979,-43.93158,-0.022072438,-0.25186205,9.8033905,0.00077141076,-0.0003324449,0.00013637543,-0.00012207031,4.5776367e-05,-0.00010681152
2019-07-01T19:18:03.172Z,-0.012342723,0.0037358503,-0.20274907,-0.022262573,-0.25268555,9.804108,-5.4718018,15.538025,-45.191956,-0.022662515,-0.25188902,9.803389,-0.0012625474,0.00017276406,0.0004081726,0.00012207031,4.5776367e-05,-0.00010681152
2019-07-01T19:18:03.373Z,-0.012349143,0.003750468,-0.20279004,-0.022491455,-0.25268555,9.804108,-5.9799194,16.438293,-43.328857,-0.022907149,-0.25207135,9.803383,-0.0003007725,-0.0008354187,-4.673004e-05,-0.00012207031,-7.6293945e-05,0.00012207031
2019-07-01T19:18:03.575Z,-0.01236317,0.0037325176,-0.20275146,-0.022018433,-0.25053406,9.8033905,-6.4208984,15.834045,-44.56787,-0.022516567,-0.25226843,9.803379,0.0004989747,-0.00016355515,0.0001335144,6.1035156e-05,-1.5258789e-05,0.00018310547
2019-07-01T19:18:03.782Z,-0.012334307,0.0037246232,-0.20271574,-0.024642944,-0.25125122,9.804352,-5.496216,16.619873,-44.14215,-0.022488952,-0.251682,9.803394,0.00024290569,0.0011621714,0.0004043579,-6.1035156e-05,4.5776367e-05,7.6293945e-05
2019-07-01T19:18:03.984Z,-0.012321032,0.003751186,-0.20277682,-0.020812988,-0.25268555,9.804596,-6.1553955,16.285706,-44.032288,-0.023036163,-0.25153413,9.803396,-0.0013766699,0.0002963245,-5.6266785e-05,6.1035156e-05,-7.6293945e-05,0.00012207031
2019-07-01T19:18:04.183Z,-0.012338913,0.0036973176,-0.2026481,-0.022735596,-0.25125122,9.803162,-5.683899,16.026306,-44.180298,-0.021963635,-0.2516604,9.803396,0.0023432374,-0.0007534325,0.0010881424,0.0,4.5776367e-05,0.00012207031
2019-07-01T19:18:04.391Z,-0.012342209,0.0037281231,-0.20272896,-0.021057129,-0.25196838,9.80603,-5.606079,15.9591675,-44.122314,-0.022521337,-0.25184795,9.80339,-0.001175018,0.00037392974,-0.0016698837,-6.1035156e-05,4.5776367e-05,7.6293945e-05
2019-07-01T19:18:04.593Z,-0.012361587,0.0037179994,-0.20271334,-0.023452759,-0.2524414,9.801956,-5.6259155,15.672302,-45.08667,-0.022253877,-0.25217947,9.803383,0.0009549707,-0.00023514032,0.0016069412,-0.00018310547,-1.5258789e-05,1.5258789e-05
2019-07-01T19:18:04.822Z,-0.012348074,0.0037267283,-0.20272851,-0.024169922,-0.25219727,9.79837,-6.4956665,15.750122,-43.522644,-0.02247134,-0.251955,9.803387,-0.0007364247,0.00048443675,-0.001329422,6.1035156e-05,-1.5258789e-05,-0.00010681152
2019-07-01T19:18:05.005Z,-0.012349235,0.003760521,-0.20281589,-0.022491455,-0.25268555,9.803879,-6.074524,16.288757,-43.96057,-0.023093179,-0.2521137,9.803381,-0.0015487708,-0.00078985095,7.534027e-05,0.0,-7.6293945e-05,-4.5776367e-05
2019-07-01T19:18:05.201Z,-0.012361704,0.0037557704,-0.20281038,-0.024887085,-0.25123596,9.805313,-6.2454224,16.13617,-44.511414,-0.02295376,-0.25233412,9.803376,-1.3032928e-05,-0.00013270974,-0.0028266907,0.0,-7.6293945e-05,-0.00010681152
2019-07-01T19:18:05.400Z,-0.012334239,0.003784196,-0.20286864,-0.022735596,-0.2524414,9.802444,-6.512451,17.20581,-43.60199,-0.023593925,-0.2519212,9.803386,-0.00033348054,-0.00029340386,0.00045108795,0.00018310547,0.00016784668,-4.5776367e-05
2019-07-01T19:18:05.607Z,-0.012338088,0.003789689,-0.20288481,-0.020812988,-0.25076294,9.803879,-5.682373,16.099548,-44.3161,-0.02367993,-0.25201732,9.803382,0.0004698541,-0.00019547343,0.00013828278,-6.1035156e-05,0.00010681152,0.00012207031
2019-07-01T19:18:05.813Z,-0.012327602,0.0037349968,-0.20273878,-0.022018433,-0.2524414,9.804352,-6.340027,15.765381,-44.28253,-0.022708911,-0.25159505,9.803396,0.0021242239,0.00082567334,0.00073337555,6.1035156e-05,-7.6293945e-05,0.00012207031
2019-07-01T19:18:06.023Z,-0.012339825,0.0037245099,-0.2027184,-0.022018433,-0.25196838,9.805313,-5.975342,16.583252,-43.4494,-0.022464145,-0.25178757,9.803391,0.00021738186,-0.00064766407,0.00096416473,0.0,4.5776367e-05,0.00018310547
2019-07-01T19:18:06.217Z,-0.012330436,0.0037222544,-0.20270759,-0.022247314,-0.25172424,9.8029175,-5.342102,16.18042,-42.500305,-0.022460947,-0.2515981,9.803396,0.00019964948,0.00036114454,0.0006427765,-6.1035156e-05,-1.5258789e-05,0.0
2019-07-01T19:18:06.420Z,-0.012362798,0.0037160881,-0.20270908,-0.021530151,-0.25196838,9.802673,-6.0577393,16.506958,-43.312073,-0.022213455,-0.25219503,9.803383,0.0006841589,-0.00048080087,-0.00036907196,-0.00012207031,-1.5258789e-05,0.00024414062
2019-07-01T19:18:06.621Z,-0.012363798,0.003711891,-0.20269884,-0.022491455,-0.25291443,9.804108,-4.5806885,15.6692505,-45.051575,-0.022131512,-0.2521973,9.803382,-0.00011540018,4.61936e-06,-0.00039863586,0.0,4.5776367e-05,0.00018310547
2019-07-01T19:18:06.825Z,-0.012367733,0.0037138988,-0.2027061,-0.020339966,-0.25315857,9.803162,-5.982971,16.514587,-43.917847,-0.022152554,-0.252281,9.80338,0.00062213466,8.070469e-05,-0.00058841705,6.1035156e-05,0.00022888184,0.00012207031
2019-07-01T19:18:07.019Z,-0.0123883225,0.0037063058,-0.20269762,-0.022491455,-0.2514801,9.801239,-6.1935425,15.562439,-45.082092,-0.021927042,-0.25264597,9.80337,0.001114808,-0.0009921789,0.0008878708,-0.00018310547,0.00010681152,1.5258789e-05
2019-07-01T19:18:07.245Z,-0.012385686,0.0037065153,-0.20269676,-0.020095825,-0.25387573,9.802673,-4.928589,16.885376,-45.092773,-0.021941775,-0.25259617,9.803372,-0.0005507786,0.00061511993,-0.0016422272,6.1035156e-05,-0.00018310547,0.00012207031
2019-07-01T19:18:07.441Z,-0.012395156,0.0036700997,-0.2026083,-0.02130127,-0.2545929,9.806503,-5.708313,15.592957,-44.869995,-0.021227604,-0.25263134,9.803372,0.0011307504,-0.00053948164,2.002716e-05,6.1035156e-05,-1.5258789e-05,1.5258789e-05
2019-07-01T19:18:07.648Z,-0.012427203,0.0036731928,-0.2026334,-0.022735596,-0.25172424,9.804825,-5.593872,16.326904,-44.577026,-0.021153135,-0.25325954,9.803356,-0.00037558563,-0.0013162196,0.002240181,6.1035156e-05,-0.0001373291,7.6293945e-05
2019-07-01T19:18:07.843Z,-0.0123965945,0.003689291,-0.20265836,-0.021530151,-0.25028992,9.8033905,-4.8553467,16.668701,-44.763184,-0.021577526,-0.25273633,9.8033695,-0.0009122584,0.0012758076,0.00022411346,-0.00018310547,-1.5258789e-05,1.5258789e-05
2019-07-01T19:18:08.042Z,-0.012378831,0.00368804,-0.20264564,-0.023208618,-0.25196838,9.804352,-5.264282,16.571045,-44.992065,-0.021627402,-0.25239,9.803378,-0.00014561787,0.0016418993,-0.00032043457,-0.00024414062,-1.5258789e-05,0.00012207031
2019-07-01T19:18:08.248Z,-0.01237218,0.0037226635,-0.20273098,-0.026321411,-0.25172424,9.802673,-6.617737,15.020752,-44.647217,-0.022296771,-0.2524018,9.803376,-0.0011547394,0.00044754148,-4.673004e-05,-0.00012207031,-1.5258789e-05,7.6293945e-05
2019-07-01T19:18:08.453Z,-0.012341531,0.0037745645,-0.20284782,-0.022262573,-0.25053406,9.806274,-5.706787,15.513611,-44.0567,-0.023385307,-0.25202242,9.803384,-0.002691863,0.0014894307,-0.0009813309,-6.1035156e-05,-0.0001373291,0.00012207031
2019-07-01T19:18:08.655Z,-0.012344316,0.0037496309,-0.2027853,-0.021774292,-0.25315857,9.8029175,-5.0964355,16.499329,-43.730164,-0.022911495,-0.25197524,9.803386,0.0008957442,3.6358833e-05,0.0022144318,0.0,4.5776367e-05,0.00024414062
2019-07-01T19:18:08.857Z,-0.01235226,0.003730821,-0.20274127,-0.022964478,-0.25196838,9.8029175,-5.734253,15.007019,-44.76471,-0.022530004,-0.25205195,9.803384,0.00051297434,-0.0001296401,-0.0010766983,6.1035156e-05,-7.6293945e-05,0.00012207031
2019-07-01T19:18:09.059Z,-0.012355269,0.0037301322,-0.2027411,-0.022018433,-0.25172424,9.808655,-5.9936523,16.296387,-44.187927,-0.02250485,-0.252107,9.803383,-0.0002299808,-9.6946955e-05,-0.00055503845,-6.1035156e-05,-7.6293945e-05,0.00024414062
2019-07-01T19:18:09.256Z,-0.0123453345,0.003735332,-0.20274913,-0.023208618,-0.25004578,9.803635,-6.098938,15.933228,-45.16449,-0.022642154,-0.25193712,9.803388,0.00015488826,0.0007325113,0.002981186,-0.00024414062,4.5776367e-05,0.0004272461
2019-07-01T19:18:09.476Z,-0.012327431,0.0037406734,-0.20275326,-0.022735596,-0.2498169,9.801712,-6.524658,16.98761,-43.797302,-0.022814885,-0.2516147,9.803396,-0.00039038993,0.0011327565,-0.0007247925,6.1035156e-05,4.5776367e-05,6.1035156e-05
2019-07-01T19:18:09.672Z,-0.012312596,0.003726593,-0.20270917,-0.022964478,-0.25387573,9.8033905,-5.0598145,15.783691,-45.237732,-0.022614803,-0.25127283,9.803405,0.00012387708,0.0007446408,-0.0023956299,-0.00018310547,-0.0001373291,1.5258789e-05
2019-07-01T19:18:09.869Z,-0.012361841,0.0037472448,-0.20278856,-0.022247314,-0.25531006,9.803879,-5.21698,15.846252,-45.065308,-0.022795117,-0.25230232,9.803377,-0.00016951934,-0.0015751421,-0.00063610077,-6.1035156e-05,0.00010681152,0.00032043457
2019-07-01T19:18:10.073Z,-0.012416862,0.0037490465,-0.20282266,-0.020584106,-0.25053406,9.803162,-6.260681,15.69519,-44.073486,-0.022602001,-0.25336674,9.80335,0.00058462843,-0.0016873181,0.0010147095,-6.1035156e-05,-1.5258789e-05,1.5258789e-05
2019-07-01T19:18:10.275Z,-0.0123655405,0.0037171957,-0.20271339,-0.022018433,-0.24813843,9.8029175,-5.760193,16.169739,-44.45038,-0.022222707,-0.25225216,9.80338,0.00092300214,0.0024530292,0.00052547455,-0.00012207031,4.5776367e-05,-4.5776367e-05
2019-07-01T19:18:10.476Z,-0.012306664,0.0036824418,-0.20259266,-0.02154541,-0.25387573,9.802444,-5.0079346,16.801453,-44.27643,-0.021820372,-0.25098082,9.803413,0.0007624198,0.0028329194,-0.0020484924,-6.1035156e-05,4.5776367e-05,0.00018310547
2019-07-01T19:18:10.664Z,-0.012360451,0.0037055078,-0.20268066,-0.02130127,-0.25219727,9.803162,-5.255127,16.714478,-44.436646,-0.02202692,-0.25210726,9.803385,7.804483e-06,-0.0020204484,8.106232e-05,-6.1035156e-05,0.00010681152,1.5258789e-05
2019-07-01T19:18:10.873Z,-0.012369039,0.0036931757,-0.20265359,-0.021530151,-0.2524414,9.803635,-5.982971,16.514587,-43.91632,-0.021762913,-0.25222254,9.803382,0.0007049944,-0.00022801757,-0.00010871887,-6.1035156e-05,-1.5258789e-05,0.00012207031
2019-07-01T19:18:11.077Z,-0.01238682,0.0037048454,-0.20269307,-0.023208618,-0.2545929,9.803635,-5.239868,16.9281,-43.86444,-0.021906147,-0.25261122,9.803371,0.0001313407,-8.0257654e-05,0.000248909,-6.1035156e-05,0.00016784668,-0.00010681152
2019-07-01T19:18:11.284Z,-0.012406624,0.0037358548,-0.2027833,-0.022964478,-0.2514801,9.801712,-5.8258057,16.378784,-43.79883,-0.022399584,-0.2531168,9.803357,-0.0008098874,-0.0007686019,-0.00030994415,-0.00012207031,4.5776367e-05,7.6293945e-05
2019-07-01T19:18:11.493Z,-0.012382524,0.0037356962,-0.20276998,-0.021530151,-0.2514801,9.805069,-6.083679,16.297913,-45.240784,-0.02249585,-0.25265312,9.8033695,-0.00024012662,0.0006804168,0.00043201447,0.0,-0.0001373291,0.00018310547
2019-07-01T19:18:11.694Z,-0.012386416,0.0037141447,-0.20271674,-0.022018433,-0.25076294,9.803635,-6.613159,16.763306,-43.688965,-0.022080231,-0.25264096,9.80337,0.00030713715,0.00045740604,0.0014104843,0.0,-1.5258789e-05,1.5258789e-05
2019-07-01T19:18:11.896Z,-0.012332011,0.0037058222,-0.20266624,-0.022964478,-0.25291443,9.803635,-6.126404,16.944885,-44.200134,-0.022149738,-0.2515621,9.803398,0.0003770981,0.0005737841,-0.00049495697,6.1035156e-05,4.5776367e-05,-4.5776367e-05
2019-07-01T19:18:12.102Z,-0.012337288,0.0037122117,-0.20268548,-0.02154541,-0.25268555,9.805069,-5.923462,16.236877,-45.111084,-0.022246525,-0.25168923,9.803394,-0.00048741326,-0.0004892945,-1.7166138e-05,-0.00012207031,-0.0001373291,7.6293945e-05
2019-07-01T19:18:12.313Z,-0.012367742,0.003705188,-0.20268373,-0.020095825,-0.25100708,9.802673,-4.914856,15.2786255,-44.59076,-0.021990988,-0.25224605,9.803381,0.00044740736,-0.00064739585,0.00015544891,-0.00012207031,-1.5258789e-05,-4.5776367e-05
2019-07-01T19:18:12.506Z,-0.012358023,0.00366926,-0.20258628,-0.022018433,-0.25196838,9.804352,-5.038452,16.14685,-44.862366,-0.021364741,-0.2519145,9.8033905,0.0005523935,0.0011591315,-0.0010118484,-6.1035156e-05,-0.00024414062,0.0001373291
2019-07-01T19:18:12.711Z,-0.012364604,0.0036768664,-0.20260933,-0.02368164,-0.2524414,9.803879,-5.3894043,15.464783,-44.532776,-0.021478733,-0.25207162,9.803388,-0.00029353984,-0.00034609437,0.0012483597,0.00012207031,-1.5258789e-05,-0.00010681152
2019-07-01T19:18:12.915Z,-0.012357959,0.0037013458,-0.20266864,-0.022262573,-0.25219727,9.804352,-5.419922,16.481018,-44.021606,-0.021959994,-0.25204256,9.803386,-0.0012473986,-0.0006289184,-0.0007715225,0.0,-1.5258789e-05,0.00012207031
2019-07-01T19:18:13.112Z,-0.012343508,0.0037027579,-0.20266452,-0.022735596,-0.2536316,9.805542,-5.4992676,16.54663,-43.930054,-0.022045624,-0.25177065,9.803393,-0.00021596812,0.0010189116,-0.00019550323,-0.00012207031,4.5776367e-05,0.00024414062
2019-07-01T19:18:13.321Z,-0.0123899495,0.0037289306,-0.20275658,-0.020812988,-0.25125122,9.804596,-5.4000854,16.918945,-43.933105,-0.022339843,-0.25276852,9.803368,-0.00014888495,-0.0020376742,0.0014667511,0.00012207031,0.00010681152,0.00024414062
2019-07-01T19:18:13.517Z,-0.012366344,0.0036911634,-0.20264697,-0.023208618,-0.25053406,9.805557,-4.7714233,16.519165,-43.511963,-0.021736683,-0.25216264,9.803383,0.0006829072,0.0011944473,0.00066185,-0.00012207031,-0.00018310547,0.00012207031
2019-07-01T19:18:13.724Z,-0.012330496,0.003704476,-0.20266198,-0.019866943,-0.25268555,9.8033905,-5.7250977,16.973877,-44.439697,-0.022131005,-0.25152752,9.803398,-0.0010746475,0.0015154481,-0.0003604889,6.1035156e-05,-1.5258789e-05,-4.5776367e-05
2019-07-01T19:18:13.927Z,-0.012359763,0.0036775414,-0.20260848,-0.02130127,-0.25434875,9.80603,-6.4605713,16.706848,-44.46411,-0.021511156,-0.25198132,9.80339,0.0014179703,-0.0009021759,-0.00024032593,-0.00012207031,-1.5258789e-05,0.00018310547
2019-07-01T19:18:14.130Z,-0.012403956,0.0036786657,-0.20263502,-0.020339966,-0.25315857,9.803162,-5.6381226,15.455627,-45.281982,-0.02135024,-0.25283492,9.803367,5.1977113e-05,-0.001249373,0.00032138824,-0.00012207031,-7.6293945e-05,0.00024414062
2019-07-01T19:18:14.332Z,-0.012431624,0.0036501912,-0.2025767,-0.02130127,-0.2536316,9.805313,-5.543518,15.59906,-44.27185,-0.020708496,-0.25325182,9.803357,0.0006149877,-0.0003514588,-0.0005750656,0.0,-0.0001373291,0.00036621094
2019-07-01T19:18:14.537Z,-0.012433691,0.0036693607,-0.20262703,-0.021057129,-0.2524414,9.803879,-6.3964844,16.191101,-43.511963,-0.021055399,-0.25336877,9.803354,-0.00071643107,-4.3213367e-06,9.6321106e-05,-6.1035156e-05,-7.6293945e-05,0.00030517578
2019-07-01T19:18:14.739Z,-0.012412409,0.0036726717,-0.20262414,-0.022262573,-0.2536316,9.8033905,-5.026245,16.360474,-44.215393,-0.021204332,-0.2529732,9.803364,-0.0005674269,0.00031790137,6.0081482e-05,0.0,-0.0001373291,0.0004272461
2019-07-01T19:18:14.942Z,-0.012430661,0.003678292,-0.20264834,-0.023208618,-0.2545929,9.803162,-5.697632,15.885925,-44.963074,-0.021233449,-0.25334653,9.803354,-0.0005391203,-0.0002644956,-0.00076007843,-0.00018310547,4.5776367e-05,0.00024414062
2019-07-01T19:18:15.146Z,-0.012454154,0.0037096895,-0.20274156,-0.022247314,-0.25053406,9.804825,-4.6829224,16.897583,-44.57245,-0.021718847,-0.25392446,9.803338,-0.0010160543,-0.00041618943,-0.0009784698,-0.00012207031,-7.6293945e-05,0.00019836426
2019-07-01T19:18:15.348Z,-0.012422798,0.0037122204,-0.20273127,-0.019866943,-0.25125122,9.803162,-5.0582886,17.227173,-43.0542,-0.02189483,-0.2533322,9.803352,-0.00035112724,0.0018678308,0.0006351471,-0.00012207031,-7.6293945e-05,0.0005493164
2019-07-01T19:18:15.554Z,-0.0124040255,0.0036667234,-0.20260438,-0.022491455,-0.2555542,9.806259,-4.524231,16.757202,-43.928528,-0.02112852,-0.25278816,9.803369,0.0012627821,0.0017954707,-4.863739e-05,-0.00012207031,-0.00018310547,0.0001373291
2019-07-01T19:18:15.743Z,-0.012442781,0.0036854923,-0.20267333,-0.02154541,-0.25483704,9.8029175,-6.6101074,16.98761,-44.474792,-0.021317076,-0.2536084,9.803348,-0.0009274464,-0.001912564,0.0013990402,0.0,-0.0001373291,-0.00016784668
2019-07-01T19:18:15.948Z,-0.0124677075,0.0036898209,-0.2026978,-0.019866943,-0.2545929,9.802673,-4.7576904,16.964722,-44.32831,-0.021294743,-0.25410476,9.803334,-0.00047814846,-0.0009597242,-0.0013055801,0.0,-7.6293945e-05,7.6293945e-05
2019-07-01T19:18:16.168Z,-0.012460548,0.0036456913,-0.20258062,-0.021774292,-0.25221252,9.802673,-5.8776855,15.435791,-44.97223,-0.020506112,-0.25378942,9.803344,0.00088423677,0.000169307,-0.00039672852,6.1035156e-05,-0.0001373291,7.6293945e-05
2019-07-01T19:18:16.359Z,-0.012442349,0.0036637802,-0.20261733,-0.022018433,-0.25100708,9.802673,-6.8969727,15.795898,-43.649292,-0.020916324,-0.25351262,9.80335,-0.0011028219,0.0010625422,-0.0015325546,-6.1035156e-05,-7.6293945e-05,1.5258789e-05
2019-07-01T19:18:16.562Z,-0.012406949,0.0036659706,-0.20260401,-0.020584106,-0.2534027,9.8033905,-6.2942505,16.712952,-43.71338,-0.021102542,-0.2528413,9.803368,-0.00042861328,0.0013491809,-0.00022792816,6.1035156e-05,-1.5258789e-05,0.00012207031
2019-07-01T19:18:16.770Z,-0.012411077,0.0036693576,-0.20261492,-0.021774292,-0.25172424,9.805557,-6.5994263,15.460205,-44.86084,-0.021148361,-0.25293425,9.803365,9.16142e-05,-0.00021973252,0.001282692,6.1035156e-05,4.5776367e-05,0.00012207031
2019-07-01T19:18:16.968Z,-0.0123937195,0.0036720205,-0.20261247,-0.022491455,-0.25219727,9.802673,-5.673218,16.168213,-43.623352,-0.021269131,-0.2526115,9.803373,-0.0005049035,0.00064614415,-0.00010108948,-0.00018310547,-7.6293945e-05,0.00018310547
2019-07-01T19:18:17.174Z,-0.012382163,0.0036905527,-0.20265387,-0.022018433,-0.25028992,9.805786,-5.69458,15.730286,-43.86139,-0.02166029,-0.25246412,9.803376,-0.0008302834,0.00075012445,0.00057697296,-6.1035156e-05,4.5776367e-05,0.00018310547
2019-07-01T19:18:17.380Z,-0.012349884,0.0036973795,-0.20265412,-0.021774292,-0.25125122,9.806503,-4.8065186,15.943909,-44.761658,-0.02191966,-0.25187147,9.803391,-0.00056908093,0.0016127229,0.0016698837,-0.00018310547,-1.5258789e-05,7.6293945e-05
2019-07-01T19:18:17.576Z,-0.012354795,0.0036950249,-0.20265071,-0.025604248,-0.25315857,9.805069,-5.3604126,16.19873,-44.987488,-0.021855792,-0.25195628,9.803388,0.00031414442,0.00027540326,0.000954628,0.0,-1.5258789e-05,7.6293945e-05
2019-07-01T19:18:17.779Z,-0.012353557,0.0037366953,-0.20275705,-0.02130127,-0.2514801,9.804108,-5.5160522,16.412354,-45.46814,-0.022633597,-0.25210062,9.803384,-0.0022490192,-0.0010081828,0.00046730042,0.0,-0.00018310547,0.00024414062
2019-07-01T19:18:17.981Z,-0.012355866,0.003712242,-0.20269549,-0.020339966,-0.2536316,9.803635,-6.5719604,16.117859,-44.87915,-0.022170654,-0.25204632,9.803386,0.00039963983,0.0006034672,-0.00095653534,0.0,-0.0001373291,6.1035156e-05
2019-07-01T19:18:18.182Z,-0.01236608,0.0037107586,-0.20269714,-0.022491455,-0.25196838,9.805786,-5.580139,16.618347,-44.517517,-0.022101128,-0.2522366,9.803382,-0.0013503395,0.0005271137,-0.00079250336,6.1035156e-05,-7.6293945e-05,0.00012207031
2019-07-01T19:18:18.420Z,-0.012354595,0.0037181797,-0.20271006,-0.024169922,-0.25196838,9.805313,-6.539917,16.622925,-43.797302,-0.022285987,-0.2520458,9.803385,2.6093796e-05,0.00035190582,0.0012216568,-6.1035156e-05,0.00016784668,-4.5776367e-05
2019-07-01T19:18:18.651Z,-0.012347003,0.003762237,-0.20281911,-0.022247314,-0.25268555,9.801727,-5.7006836,15.737915,-44.6167,-0.023134187,-0.25207776,9.803382,-0.0012763292,0.00039216876,0.00065612793,-6.1035156e-05,-1.5258789e-05,0.00012207031
2019-07-01T19:18:18.843Z,-0.012361193,0.0037315104,-0.20274782,-0.022491455,-0.2536316,9.803635,-6.1035156,15.937805,-45.765686,-0.022506025,-0.25222638,9.80338,0.0009759944,-0.00045779347,-0.0029115677,6.1035156e-05,4.5776367e-05,-4.5776367e-05
2019-07-01T19:18:19.045Z,-0.012388487,0.0037363744,-0.20277493,-0.022018433,-0.25219727,9.804825,-5.934143,15.943909,-45.01648,-0.022483876,-0.25277042,9.803366,-7.275492e-06,-0.00085774064,0.00013637543,-0.00012207031,-1.5258789e-05,7.6293945e-05
2019-07-01T19:18:19.253Z,-0.012382315,0.0037339716,-0.20276545,-0.022491455,-0.24957275,9.804596,-4.951477,16.06903,-43.295288,-0.022464735,-0.25264212,9.8033695,0.000448158,0.00022158027,0.0013628006,6.1035156e-05,0.00010681152,0.00018310547
2019-07-01T19:18:19.455Z,-0.012324493,0.0037335888,-0.2027335,-0.02368164,-0.25315857,9.802673,-4.512024,17.126465,-44.53125,-0.022695586,-0.25152963,9.803397,-3.806688e-05,0.0022225678,0.00011539459,-0.00012207031,-1.5258789e-05,0.0
2019-07-01T19:18:19.656Z,-0.012362618,0.0037671607,-0.2028401,-0.022735596,-0.2524414,9.805069,-5.793762,15.592957,-45.47119,-0.023161197,-0.25239766,9.803374,-0.0007639732,-0.0009984076,-0.0011882782,6.1035156e-05,0.00016784668,-0.00012207031
2019-07-01T19:18:19.861Z,-0.012363466,0.0037630883,-0.2028301,-0.02154541,-0.25219727,9.803879,-5.496216,16.621399,-44.14215,-0.023082195,-0.25239754,9.803375,0.0005926695,-0.0002669096,0.00111866,0.0,4.5776367e-05,0.00036621094
2019-07-01T19:18:20.061Z,-0.012361375,0.003734498,-0.20275559,-0.022247314,-0.25172424,9.804825,-5.2124023,15.841675,-44.462585,-0.02256068,-0.2522419,9.803379,0.0012614038,0.0005399287,0.00010681152,-0.00012207031,0.00010681152,0.00030517578
2019-07-01T19:18:20.269Z,-0.012344227,0.0037323392,-0.20274086,-0.020812988,-0.2534027,9.805557,-4.8965454,15.716553,-44.65332,-0.022591213,-0.25190374,9.803388,0.00034595467,0.00067543983,7.1525574e-05,-6.1035156e-05,-1.5258789e-05,-0.00010681152
2019-07-01T19:18:20.471Z,-0.012392325,0.0037015916,-0.20268767,-0.022262573,-0.25315857,9.801956,-5.9906006,16.371155,-44.322205,-0.021823166,-0.25270388,9.8033695,0.0012418497,-0.001383692,0.0006904602,-6.1035156e-05,-1.5258789e-05,0.00012207031
2019-07-01T19:18:20.672Z,-0.012406847,0.0037291104,-0.2027661,-0.021774292,-0.25268555,9.8022,-4.8675537,16.297913,-44.158936,-0.022273622,-0.2530939,9.803359,-0.00093323924,-0.0002888739,-0.0009698868,-6.1035156e-05,-1.5258789e-05,0.00012207031
2019-07-01T19:18:20.876Z,-0.012424343,0.0036933867,-0.20268373,-0.020828247,-0.25315857,9.8033905,-6.0943604,15.931702,-44.78607,-0.021539299,-0.25328597,9.803355,0.0009551309,0.00012665987,-0.0015993118,-0.00012207031,-7.6293945e-05,0.00030517578
2019-07-01T19:18:21.073Z,-0.012398783,0.0036871128,-0.20265394,-0.022018433,-0.25172424,9.800995,-5.26886,14.677429,-45.152283,-0.021528138,-0.2527696,9.803369,-1.7656013e-05,0.00056782365,-0.00027656555,0.00018310547,-0.0001373291,-4.5776367e-05
2019-07-01T19:18:21.275Z,-0.012396536,0.0036744582,-0.20262024,-0.022262573,-0.25268555,9.805069,-6.2591553,15.693665,-43.84613,-0.021302748,-0.2526754,9.803371,-0.0002444666,0.0004567504,-0.0013017654,-0.00012207031,-0.0001373291,0.00012207031
2019-07-01T19:18:21.479Z,-0.012383188,0.0036744708,-0.20261313,-0.021530151,-0.254364,9.804596,-5.705261,15.512085,-43.90564,-0.021357875,-0.25241902,9.803378,-0.00017191656,0.00022599101,0.0019989014,0.0,-1.5258789e-05,7.6293945e-05
2019-07-01T19:18:21.682Z,-0.012405514,0.0036858285,-0.20265424,-0.02130127,-0.25219727,9.804352,-4.9575806,16.073608,-43.974304,-0.021476638,-0.25289372,9.803365,-0.00029649585,-0.00096836686,0.0007019043,6.1035156e-05,4.5776367e-05,0.00012207031
2019-07-01T19:18:21.885Z,-0.012408547,0.0036914202,-0.20267023,-0.022979736,-0.25219727,9.805069,-5.130005,15.9210205,-44.602966,-0.02156783,-0.25297454,9.803363,-0.00020513684,-0.00016850233,0.00014209747,6.1035156e-05,-7.6293945e-05,0.00036621094
2019-07-01T19:18:22.090Z,-0.0123748295,0.0037046056,-0.20268604,-0.020339966,-0.25268555,9.801727,-5.52063,16.033936,-43.807983,-0.021951035,-0.25237986,9.803377,-0.0010260157,0.0006864965,0.001209259,0.0,-1.5258789e-05,0.00024414062
2019-07-01T19:18:22.294Z,-0.0124173695,0.0036887203,-0.20266801,-0.023925781,-0.25508118,9.806259,-6.164551,16.065979,-44.076538,-0.021481477,-0.25313318,9.803359,0.00066853873,-0.0007419586,-0.002371788,-0.00018310547,-0.00024414062,0.00030517578
2019-07-01T19:18:22.496Z,-0.012434028,0.0037238982,-0.20276727,-0.021774292,-0.2498169,9.803879,-5.104065,16.430664,-44.34662,-0.022065103,-0.25359508,9.803346,-0.0018586181,-0.00050112605,0.0017690659,-0.00012207031,-7.6293945e-05,0.00012207031
2019-07-01T19:18:22.700Z,-0.012388861,0.003682465,-0.20263669,-0.020812988,-0.2534027,9.806274,-6.742859,15.890503,-45.14618,-0.021482777,-0.2525602,9.803373,0.00090084784,0.002768904,0.00022888184,-0.00018310547,-0.00018310547,0.00036621094
2019-07-01T19:18:22.956Z,-0.012397023,0.0036526427,-0.20256448,-0.024642944,-0.25028992,9.804108,-6.2576294,16.148376,-46.095276,-0.020896234,-0.2525969,9.803374,0.00031494722,0.0016239285,0.00037193298,-0.00018310547,-7.6293945e-05,6.1035156e-05
2019-07-01T19:18:23.154Z,-0.012372681,0.0036934908,-0.20265634,-0.021057129,-0.25506592,9.804825,-5.328369,16.778564,-43.966675,-0.021753777,-0.2522938,9.803381,-0.0019401144,0.0010774434,8.869171e-05,6.1035156e-05,4.5776367e-05,-0.00012207031
2019-07-01T19:18:23.352Z,-0.012397633,0.0036851175,-0.2026482,-0.022491455,-0.25387573,9.805313,-6.3674927,15.258789,-44.989014,-0.021495871,-0.25273943,9.803369,0.00044128858,-0.0013504922,-0.00042247772,0.0,-7.6293945e-05,0.00012207031
2019-07-01T19:18:23.558Z,-0.012418693,0.003711281,-0.20272666,-0.02130127,-0.25028992,9.804596,-6.161499,16.29181,-44.937134,-0.021894312,-0.25324956,9.803355,-0.0010815244,-0.0005810559,0.001156807,-0.00018310547,-1.5258789e-05,1.5258789e-05
2019-07-01T19:18:23.763Z,-0.012390233,0.003718938,-0.20273109,-0.022262573,-0.25531006,9.800766,-4.7302246,15.79895,-44.265747,-0.022153398,-0.25273362,9.803368,0.00013794936,0.001760602,-0.0008096695,-0.00018310547,0.00016784668,0.00012207031
2019-07-01T19:18:23.971Z,-0.012431738,0.003720701,-0.20275784,-0.02368164,-0.25196838,9.803162,-5.9020996,16.749573,-45.007324,-0.022015255,-0.2535382,9.803348,0.00048463233,-0.0010601282,-0.003088951,-0.00024414062,4.5776367e-05,0.00024414062
2019-07-01T19:18:24.161Z,-0.012405043,0.0037356077,-0.20278183,-0.020339966,-0.2534027,9.806992,-5.3894043,15.388489,-44.09485,-0.022401515,-0.2530854,9.803358,-0.0010510124,0.0011196434,0.00064849854,0.00018310547,-7.6293945e-05,0.00012207031
2019-07-01T19:18:24.367Z,-0.012421883,0.0037137598,-0.20273474,-0.022735596,-0.25268555,9.8033905,-6.462097,16.706848,-44.46411,-0.021927137,-0.25332084,9.803353,0.0011164788,-0.00028380752,0.0018787384,-0.00018310547,-1.5258789e-05,7.6293945e-05
2019-07-01T19:18:24.569Z,-0.012424932,0.0037241592,-0.20276307,-0.024414062,-0.25221252,9.802673,-6.098938,15.855408,-44.577026,-0.022107385,-0.25342134,9.8033495,-0.00085512735,4.1157007e-05,-0.00034236908,0.00012207031,-0.0001373291,0.00030517578
2019-07-01T19:18:24.774Z,-0.012366216,0.003747388,-0.20279127,-0.025360107,-0.25219727,9.804352,-6.150818,16.511536,-44.818115,-0.02277976,-0.25238696,9.803375,-0.001145428,0.0013864338,-0.001200676,0.0,-7.6293945e-05,0.00012207031
2019-07-01T19:18:24.980Z,-0.0123764565,0.003778298,-0.20287612,-0.022735596,-0.2536316,9.808426,-5.4901123,16.842651,-44.400024,-0.023310712,-0.25270852,9.803366,-0.0015749875,-0.00019088387,0.00064754486,6.1035156e-05,-7.6293945e-05,0.00024414062
2019-07-01T19:18:25.180Z,-0.012367147,0.0037735617,-0.20285897,-0.019622803,-0.2524414,9.805786,-5.3863525,17.286682,-44.236755,-0.023261232,-0.25251055,9.803371,-0.00018735602,-0.00060272217,0.0023355484,0.00012207031,-7.6293945e-05,-6.1035156e-05
2019-07-01T19:18:25.379Z,-0.012389233,0.0036942707,-0.2026672,-0.022018433,-0.2524414,9.80722,-6.2683105,15.550232,-44.252014,-0.021700144,-0.25261495,9.803371,0.0030440725,-7.4207783e-06,0.0013961792,-6.1035156e-05,-1.5258789e-05,-4.5776367e-05
2019-07-01T19:18:25.590Z,-0.0123893665,0.003712118,-0.2027131,-0.0236969,-0.2536316,9.803162,-4.6661377,17.108154,-43.473816,-0.022030514,-0.25268948,9.8033695,-0.0011720844,7.298589e-05,0.00045490265,-0.00012207031,-0.0001373291,0.00018310547
2019-07-01T19:18:25.787Z,-0.012383945,0.0037354429,-0.2027701,-0.021530151,-0.25125122,9.805786,-6.2332153,16.35437,-44.3161,-0.022485299,-0.2526794,9.803369,-0.00071865134,-0.00018253922,-0.0012960434,0.00018310547,4.5776367e-05,0.00012207031
2019-07-01T19:18:25.999Z,-0.012375965,0.003711151,-0.20270345,-0.022491455,-0.2545929,9.803162,-5.2963257,15.763855,-44.551086,-0.022067728,-0.25242805,9.803375,0.00054189004,0.00050899386,-0.00022315979,-0.00012207031,4.5776367e-05,0.0
2019-07-01T19:18:26.197Z,-0.012405878,0.0037289723,-0.20276523,-0.02368164,-0.2514801,9.804596,-5.5282593,15.887451,-43.836975,-0.022275051,-0.2530747,9.803359,1.4880672e-05,-0.0010178685,-0.0017433167,-6.1035156e-05,4.5776367e-05,0.00024414062
2019-07-01T19:18:26.399Z,-0.012377038,0.0037513676,-0.20280729,-0.021057129,-0.25076294,9.804596,-5.168152,15.04364,-44.552612,-0.022809,-0.25261098,9.80337,-0.0015868712,0.0013922453,0.0004386902,-0.00018310547,-0.00024414062,0.00024414062
2019-07-01T19:18:26.604Z,-0.012391161,0.0037065512,-0.20269978,-0.021774292,-0.25411987,9.806503,-5.97229,16.734314,-43.797302,-0.02191991,-0.2527015,9.803369,0.0013384,0.00076302886,-0.0001783371,-0.00012207031,-1.5258789e-05,0.00012207031
2019-07-01T19:18:26.812Z,-0.012379478,0.0036958107,-0.20266594,-0.021057129,-0.24957275,9.8029175,-5.885315,16.963196,-44.43512,-0.021768833,-0.25243372,9.803376,0.00024252944,3.6925077e-05,0.0011491776,6.1035156e-05,-7.6293945e-05,7.6293945e-05
2019-07-01T19:18:27.012Z,-0.012350473,0.0036757381,-0.20259887,-0.022735596,-0.25483704,9.805069,-5.5984497,16.25824,-45.04242,-0.021515917,-0.25179553,9.803393,0.00046147034,0.0015369952,-0.0009813309,0.0,4.5776367e-05,0.00012207031
2019-07-01T19:18:27.208Z,-0.012391284,0.0037102906,-0.20270944,-0.02130127,-0.2498169,9.804596,-5.290222,16.062927,-45.474243,-0.021988738,-0.25271893,9.803368,-0.00097295083,-0.0020860732,-1.5258789e-05,6.1035156e-05,-1.5258789e-05,0.00019836426
2019-07-01T19:18:27.413Z,-0.0123478295,0.0036742522,-0.20259365,-0.024414062,-0.25387573,9.806747,-6.2911987,15.1901245,-45.082092,-0.02149923,-0.25173876,9.803394,0.0004451126,0.0014841259,0.0003004074,6.1035156e-05,-1.5258789e-05,1.5258789e-05
2019-07-01T19:18:27.614Z,-0.012373745,0.0037399805,-0.20277628,-0.022247314,-0.2534027,9.805069,-4.840088,16.80603,-43.450928,-0.021679072,-0.25239572,9.803377,0.0013417695,0.00094661117,-0.0011911392,-6.1035156e-05,-0.00018310547,-4.5776367e-05
2019-07-01T19:18:27.814Z,-0.0124053145,0.0037189033,-0.20273907,-0.022262573,-0.2534027,9.805786,-6.0028076,16.001892,-43.79425,-0.022090688,-0.25302324,9.80336,-0.00064106844,-0.0012815297,0.0009660721,0.0,-1.5258789e-05,0.00036621094
2019-07-01T19:18:28.024Z,-0.012414955,0.0036987972,-0.2026926,-0.020812988,-0.2524414,9.804825,-4.7790527,16.4505,-44.129944,-0.021678243,-0.2531274,9.803359,0.00013695471,1.6957521e-05,0.0003194809,-6.1035156e-05,-0.0001373291,1.5258789e-05
2019-07-01T19:18:28.225Z,-0.012404258,0.0036885005,-0.20266043,-0.020828247,-0.25268555,9.802444,-5.267334,16.423035,-44.644165,-0.02153134,-0.25288036,9.803365,0.00047816522,0.0012025535,-9.6321106e-05,-0.00024414062,4.5776367e-05,0.00024414062
2019-07-01T19:18:28.428Z,-0.012422733,0.0036838013,-0.20265825,-0.022735596,-0.25100708,9.805313,-5.1330566,15.849304,-44.76776,-0.021368213,-0.25321642,9.803358,-0.0001750756,-0.00016114116,-0.001657486,-0.00012207031,-0.0001373291,0.00024414062
2019-07-01T19:18:28.632Z,-0.0123843625,0.0036789877,-0.20262535,-0.02130127,-0.25076294,9.804596,-5.732727,16.905212,-45.132446,-0.021436801,-0.25245976,9.803376,-0.0008077137,0.0017298162,0.00065612793,0.0,-0.00024414062,0.00036621094
2019-07-01T19:18:28.852Z,-0.012342112,0.0036579221,-0.20254865,-0.02130127,-0.25268555,9.804825,-6.010437,16.009521,-44.85016,-0.021219902,-0.25156316,9.803401,-7.8165904e-05,0.0013112128,0.00043296814,6.1035156e-05,-7.6293945e-05,7.6293945e-05
2019-07-01T19:18:29.034Z,-0.012373796,0.0036785852,-0.20261867,-0.023208618,-0.25196838,9.804352,-5.973816,16.659546,-43.6615,-0.021472795,-0.25225514,9.803382,-0.0005437974,-0.0008818209,-0.0013046265,-6.1035156e-05,4.5776367e-05,0.00024414062
2019-07-01T19:18:29.237Z,-0.012363323,0.003698029,-0.20266299,-0.022735596,-0.25172424,9.804596,-5.534363,17.564392,-43.94989,-0.021876425,-0.25213227,9.803384,-0.00036786683,0.00068700314,0.0010471344,-0.00012207031,0.00010681152,0.00019836426
2019-07-01T19:18:29.443Z,-0.012367154,0.003722017,-0.20272663,-0.022735596,-0.25315857,9.803879,-5.029297,16.441345,-45.10498,-0.022305464,-0.2523026,9.803378,-0.0004271511,-0.00010511279,-9.250641e-05,-6.1035156e-05,0.00016784668,0.00019836426
2019-07-01T19:18:29.647Z,-0.012369629,0.0037418858,-0.20277897,-0.024169922,-0.2514801,9.804108,-6.3339233,15.911865,-44.32831,-0.022663692,-0.25243032,9.803374,-0.00029892102,-0.0004633367,-0.0010194778,0.00012207031,-1.5258789e-05,0.00012207031
2019-07-01T19:18:29.844Z,-0.012343582,0.003766793,-0.20282897,-0.024887085,-0.25053406,9.805786,-5.871582,15.505981,-44.429016,-0.023232756,-0.25203043,9.803384,-0.0016524848,0.00032618642,-5.340576e-05,0.00012207031,-7.6293945e-05,0.00024414062
2019-07-01T19:18:30.054Z,-0.0122925015,0.0037841252,-0.2028461,-0.023925781,-0.25291443,9.8022,-5.5358887,15.896606,-45.118713,-0.023764456,-0.25111902,9.803407,-0.0006470382,0.0015734136,0.00060367584,0.0,0.00010681152,-4.5776367e-05
2019-07-01T19:18:30.254Z,-0.012330923,0.0037905094,-0.20288306,-0.024169922,-0.25196838,9.804596,-5.595398,16.482544,-45.75348,-0.023724647,-0.251883,9.803386,0.00027286075,-0.001021117,-0.0013427734,-6.1035156e-05,4.5776367e-05,0.00012207031
2019-07-01T19:18:30.457Z,-0.012338039,0.00379886,-0.20290832,-0.025131226,-0.25268555,9.805069,-6.5933228,15.454102,-44.107056,-0.02385018,-0.25205347,9.803381,-0.00031731464,-0.00060641766,0.0011777878,-6.1035156e-05,-1.5258789e-05,-4.5776367e-05
2019-07-01T19:18:30.659Z,-0.012339237,0.0038211963,-0.2029663,-0.024169922,-0.25125122,9.800995,-5.8013916,15.142822,-43.902588,-0.024259413,-0.25216678,9.803377,-0.0006248299,-9.536743e-07,0.00029850006,0.0,-1.5258789e-05,0.00030517578
2019-07-01T19:18:30.854Z,-0.012328516,0.0038205606,-0.20295893,-0.023452759,-0.25149536,9.801239,-5.8547974,15.72113,-43.707275,-0.024291797,-0.25195822,9.803383,0.00012179278,0.0004772842,-0.002354622,-6.1035156e-05,4.5776367e-05,-6.1035156e-05
2019-07-01T19:18:31.061Z,-0.012312483,0.003822765,-0.20295599,-0.022735596,-0.25004578,9.802444,-5.5770874,16.542053,-43.777466,-0.024398722,-0.2516591,9.8033905,0.00022694655,0.0006329119,-0.0014066696,6.1035156e-05,6.1035156e-05,0.00030517578
2019-07-01T19:18:31.266Z,-0.012294421,0.003779737,-0.20283586,-0.0236969,-0.25172424,9.805313,-5.04303,15.99884,-44.514465,-0.023675175,-0.25113815,9.803406,0.00093701296,0.0008209944,-0.00061511993,6.1035156e-05,4.5776367e-05,1.5258789e-05
2019-07-01T19:18:31.471Z,-0.012315008,0.003783553,-0.20285669,-0.021774292,-0.25315857,9.804352,-5.522156,16.18805,-44.909668,-0.02366118,-0.2515491,9.803394,-3.530085e-05,-0.00041481853,0.002462387,-0.00018310547,-0.00018310547,0.00012207031
2019-07-01T19:18:31.671Z,-0.012351903,0.0037395356,-0.20276344,-0.023208618,-0.25053406,9.8022,-5.4992676,16.622925,-44.519043,-0.022693066,-0.25208026,9.803383,0.0016369764,-0.001310885,0.0005197525,6.1035156e-05,4.5776367e-05,-4.5776367e-05
2019-07-01T19:18:31.881Z,-0.012326854,0.0037510868,-0.20277968,-0.023452759,-0.25387573,9.808899,-6.3339233,15.913391,-44.477844,-0.023010362,-0.25164562,9.803394,-0.00019814633,0.0013568997,-0.0007677078,0.0,-1.5258789e-05,0.00024414062
2019-07-01T19:18:32.079Z,-0.012364195,0.0037658513,-0.20283759,-0.021530151,-0.25387573,9.806259,-5.432129,16.184998,-43.704224,-0.023130426,-0.25242266,9.803373,-0.00054695085,-0.0018795431,0.0034732819,-6.1035156e-05,4.5776367e-05,-4.5776367e-05
2019-07-01T19:18:32.278Z,-0.01238436,0.0037449503,-0.20279473,-0.022018433,-0.25100708,9.806259,-5.102539,16.275024,-43.096924,-0.022659872,-0.25272572,9.803367,0.0011345688,-0.00062289834,0.00056552887,6.1035156e-05,4.5776367e-05,0.00012207031
2019-07-01T19:18:32.479Z,-0.012365186,0.0037279779,-0.20274088,-0.02130127,-0.25100708,9.804825,-6.9488525,16.601562,-44.389343,-0.022424094,-0.25228885,9.803379,0.0008840654,0.0006251633,0.0005273819,6.1035156e-05,0.00010681152,7.6293945e-05
2019-07-01T19:18:32.683Z,-0.012345162,0.0037153643,-0.20269778,-0.024887085,-0.25315857,9.804596,-5.503845,16.47644,-44.322205,-0.02227259,-0.25185326,9.8033905,0.0002584327,0.0008945167,-0.0009202957,0.00012207031,-1.5258789e-05,0.00012207031
2019-07-01T19:18:32.889Z,-0.012333593,0.0037759617,-0.20284715,-0.020812988,-0.2545929,9.801956,-6.5734863,15.968323,-44.306946,-0.023443898,-0.25187555,9.803388,-0.0016827695,-0.0009899139,2.002716e-05,6.1035156e-05,0.00016784668,0.00018310547
2019-07-01T19:18:33.092Z,-0.0123849595,0.0037396455,-0.20278142,-0.022735596,-0.25219727,9.804108,-5.583191,16.395569,-43.88275,-0.022559045,-0.25271586,9.803368,0.0019762497,-0.001145184,-0.0026979446,-6.1035156e-05,-7.6293945e-05,0.00030517578
2019-07-01T19:18:33.294Z,-0.012389299,0.0037347923,-0.20277129,-0.024169922,-0.2524414,9.803879,-6.70166,16.534424,-43.42804,-0.022451201,-0.25277963,9.803366,-0.0002831258,-0.0003646314,-4.1007996e-05,6.1035156e-05,-7.6293945e-05,7.6293945e-05
2019-07-01T19:18:33.495Z,-0.012351604,0.0037646082,-0.20282766,-0.023925781,-0.25053406,9.8022,-6.0546875,16.653442,-43.510437,-0.023159212,-0.25217572,9.803379,-0.0012524724,0.00095039606,0.00092697144,0.0,0.00010681152,-6.1035156e-05
2019-07-01T19:18:33.700Z,-0.0123462165,0.0037758602,-0.20285365,-0.024414062,-0.25315857,9.802673,-5.506897,16.325378,-43.673706,-0.023390038,-0.25211766,9.803381,-6.245263e-05,0.00086933374,-0.0017662048,-0.00012207031,4.5776367e-05,-0.00022888184
2019-07-01T19:18:33.902Z,-0.012353586,0.003790257,-0.20289457,-0.023925781,-0.2514801,9.805313,-5.1742554,16.642761,-44.151306,-0.023626635,-0.25231743,9.803375,-0.0010170601,-0.0003761351,-0.00086307526,-6.1035156e-05,-0.00018310547,-0.000289917
2019-07-01T19:18:34.166Z,-0.012334534,0.003751198,-0.20278409,-0.02130127,-0.25315857,9.804352,-6.237793,16.12854,-43.530273,-0.022980819,-0.25179362,9.8033905,0.0007189717,0.0005503595,-6.580353e-05,-0.00012207031,-0.00012207031,-4.5776367e-05
2019-07-01T19:18:34.364Z,-0.012367654,0.0037442164,-0.2027839,-0.023208618,-0.25100708,9.801956,-4.710388,16.235352,-44.25354,-0.022715036,-0.2524018,9.803375,0.00094143115,-0.00050500035,-3.71933e-05,-0.00018310547,0.00022888184,1.5258789e-05
2019-07-01T19:18:34.566Z,-0.012353745,0.0037363328,-0.20275621,-0.021057129,-0.25219727,9.8029175,-5.5786133,16.618347,-44.29016,-0.0226261,-0.25210273,9.803383,0.00036342256,0.00085031986,-0.0006637573,0.0,4.5776367e-05,0.0
2019-07-01T19:18:34.763Z,-0.012356916,0.0037290412,-0.20273918,-0.023925781,-0.2536316,9.804596,-5.1864624,16.348267,-43.90869,-0.022477841,-0.25213426,9.803383,0.0007034857,-6.368756e-05,3.528595e-05,-6.1035156e-05,0.00010681152,-0.00016784668
2019-07-01T19:18:34.969Z,-0.012374222,0.0037707791,-0.20285562,-0.024642944,-0.25125122,9.8029175,-4.6173096,16.687012,-45.07141,-0.023180509,-0.25263524,9.803369,-0.0012335628,-0.0007675588,2.5749207e-05,0.0,-1.5258789e-05,1.5258789e-05
2019-07-01T19:18:35.171Z,-0.012336903,0.0037749154,-0.20284624,-0.023925781,-0.25100708,9.8033905,-4.9346924,16.586304,-44.096375,-0.023410862,-0.25193492,9.803386,-0.00075926445,0.001169771,-0.00013828278,6.1035156e-05,-7.6293945e-05,7.6293945e-05
2019-07-01T19:18:35.373Z,-0.012325669,0.0037721356,-0.20283309,-0.022491455,-0.25291443,9.801956,-5.8685303,15.655518,-45.002747,-0.023405572,-0.25170782,9.803391,-0.0002760142,0.000213027,0.00022029877,0.00012207031,-6.1035156e-05,-4.5776367e-05
2019-07-01T19:18:35.578Z,-0.012347276,0.0037551227,-0.20280099,-0.022018433,-0.25125122,9.8033905,-5.430603,16.337585,-44.42749,-0.023001142,-0.2520543,9.803384,0.0009814631,-0.0013620555,-0.0011405945,0.00018310547,4.5776367e-05,1.5258789e-05
2019-07-01T19:18:35.778Z,-0.012333107,0.00373343,-0.2027377,-0.021057129,-0.25291443,9.805786,-5.2078247,15.989685,-44.810486,-0.022657203,-0.2516945,9.803393,0.00040998124,0.00068846345,0.001162529,0.00012207031,-0.0001373291,0.00024414062
2019-07-01T19:18:35.995Z,-0.012341025,0.0037140406,-0.20269217,-0.021057129,-0.25028992,9.803635,-4.9194336,17.028809,-44.535828,-0.022265064,-0.2517684,9.803392,0.000492299,-0.0006557405,0.0012483597,-6.1035156e-05,-1.5258789e-05,7.6293945e-05
2019-07-01T19:18:36.179Z,-0.012327783,0.003675646,-0.2025865,-0.022964478,-0.25291443,9.804108,-5.9402466,15.797424,-44.81964,-0.021607503,-0.25135922,9.803405,0.0010241866,0.0008343756,-0.0006017685,0.0,-1.5258789e-05,1.5258789e-05
2019-07-01T19:18:36.380Z,-0.012351384,0.003708527,-0.20268355,-0.023925781,-0.25123596,9.805313,-7.2235107,17.60254,-44.248962,-0.022120202,-0.25194523,9.803389,-0.0008428097,-0.0009524822,0.0005569458,0.0,4.5776367e-05,1.5258789e-05
2019-07-01T19:18:36.585Z,-0.012331115,0.0037436262,-0.20276281,-0.02130127,-0.2514801,9.802444,-5.982971,16.667175,-44.792175,-0.022854475,-0.25169736,9.803392,-0.00106957,0.0011976659,0.00021457672,-0.00024414062,4.5776367e-05,-0.00012207031
2019-07-01T19:18:36.793Z,-0.012357251,0.003720572,-0.20271762,-0.022491455,-0.25196838,9.802673,-5.5282593,16.041565,-44.86389,-0.022319423,-0.25210652,9.803384,0.00079006143,-0.00079900026,-0.0008134842,-6.1035156e-05,-1.5258789e-05,7.6293945e-05
2019-07-01T19:18:36.993Z,-0.012351058,0.0037210404,-0.2027155,-0.023208618,-0.2536316,9.802673,-5.94635,15.422058,-43.537903,-0.022353588,-0.25198942,9.803387,0.0001058951,0.00026091933,-0.0010204315,6.1035156e-05,-7.6293945e-05,7.6293945e-05
2019-07-01T19:18:37.199Z,-0.01235381,0.003724641,-0.20272623,-0.02130127,-0.25172424,9.806747,-4.838562,16.958618,-44.326782,-0.022409031,-0.2520568,9.803385,-0.0007994529,-0.00038310885,0.00043582916,0.0,-7.6293945e-05,0.00024414062
2019-07-01T19:18:37.400Z,-0.012377122,0.0037171145,-0.20271938,-0.02130127,-0.25219727,9.803635,-5.0979614,16.577148,-44.24286,-0.022173543,-0.2524744,9.803375,0.0011188686,-0.00065621734,0.0020427704,-0.00012207031,0.00016784668,7.6293945e-05
2019-07-01T19:18:37.603Z,-0.012369193,0.0037114106,-0.2027005,-0.021774292,-0.25076294,9.805313,-4.9682617,15.856934,-44.319153,-0.022100404,-0.25229904,9.80338,0.00057223253,0.0013145804,-0.00037956238,-0.00018310547,4.5776367e-05,-4.5776367e-05
2019-07-01T19:18:37.803Z,-0.012356629,0.0037012408,-0.20266765,-0.022491455,-0.25268555,9.802673,-5.7525635,16.313171,-44.044495,-0.021963516,-0.2520166,9.803387,0.0001915954,0.00079259276,0.00037956238,0.0,-1.5258789e-05,-4.5776367e-05
2019-07-01T19:18:38.008Z,-0.012357035,0.0037184719,-0.20271212,-0.02130127,-0.25219727,9.804825,-6.1187744,17.01355,-43.507385,-0.02228137,-0.25209388,9.803384,-0.00045386888,-0.00034347177,-0.0018138885,6.1035156e-05,4.5776367e-05,-4.5776367e-05
2019-07-01T19:18:38.212Z,-0.012369407,0.0037026524,-0.20267811,-0.021774292,-0.2524414,9.803879,-5.8288574,16.532898,-44.825745,-0.021937126,-0.25226784,9.803381,0.00088167004,8.97944e-05,0.0011854172,-0.00012207031,4.5776367e-05,0.00019836426
2019-07-01T19:18:38.415Z,-0.012372002,0.0037037383,-0.20268229,-0.022964478,-0.2524414,9.803864,-5.2734375,16.349792,-44.73419,-0.021946585,-0.25232208,9.80338,-7.018261e-05,-0.00034433603,-1.5258789e-05,6.1035156e-05,4.5776367e-05,1.5258789e-05
2019-07-01T19:18:38.619Z,-0.012372947,0.003725233,-0.20273799,-0.022262573,-0.25483704,9.806503,-5.314636,17.068481,-43.981934,-0.022341259,-0.2524269,9.803375,-0.00014814176,0.0002528131,0.0003194809,6.1035156e-05,0.00016784668,-4.5776367e-05
2019-07-01T19:18:38.820Z,-0.012421548,0.0037461424,-0.20281771,-0.022247314,-0.2534027,9.805069,-5.921936,16.082764,-44.084167,-0.022528863,-0.25344503,9.803348,-0.0006759111,-0.0023100674,0.0014820099,-6.1035156e-05,-0.0001373291,1.5258789e-05
2019-07-01T19:18:39.023Z,-0.012419866,0.0037574659,-0.20284589,-0.024169922,-0.25315857,9.803879,-6.4483643,16.999817,-44.630432,-0.022745717,-0.25345844,9.803348,-0.0009354465,-0.0004119575,-0.0018415451,-0.00012207031,0.00010681152,-0.00016784668
2019-07-01T19:18:39.230Z,-0.012408114,0.0037661025,-0.20286177,-0.022018433,-0.25172424,9.806747,-5.8135986,16.822815,-44.615173,-0.022954231,-0.25326753,9.803352,-0.00025349855,0.001080066,0.00037574768,-0.00018310547,4.5776367e-05,0.00012207031
2019-07-01T19:18:39.432Z,-0.012420665,0.0037680368,-0.20287345,-0.022491455,-0.25411987,9.805313,-7.043457,16.226196,-44.158936,-0.022938404,-0.2535165,9.803347,0.00044999272,0.0003915727,0.0018558502,-0.00018310547,-7.6293945e-05,0.00018310547
2019-07-01T19:18:39.630Z,-0.012426229,0.0037263639,-0.20276943,-0.023208618,-0.25053406,9.801956,-6.0928345,15.92865,-44.483948,-0.02214292,-0.2534552,9.8033495,0.0010897759,-0.00037494302,0.0009174347,6.1035156e-05,4.5776367e-05,0.00012207031
2019-07-01T19:18:39.841Z,-0.012352243,0.0037408117,-0.20276691,-0.022247314,-0.25123596,9.80603,-5.0369263,16.142273,-44.40918,-0.022715334,-0.25209194,9.803383,-0.0012090579,0.0030228794,-0.0022554398,6.1035156e-05,-7.6293945e-05,-4.5776367e-05
2019-07-01T19:18:40.033Z,-0.012357356,0.0037412005,-0.20277064,-0.022018433,-0.25172424,9.804825,-5.607605,15.884399,-44.062805,-0.0227015,-0.25219175,9.80338,-3.167428e-05,-0.00022274256,0.0008869171,-0.00012207031,4.5776367e-05,0.00012207031
2019-07-01T19:18:40.240Z,-0.012343346,0.0037248346,-0.20272112,-0.022491455,-0.25196838,9.80603,-5.8547974,15.8706665,-44.430542,-0.022455681,-0.25185654,9.80339,0.00068460964,0.000885576,0.0007457733,-0.00012207031,-1.5258789e-05,0.00018310547
2019-07-01T19:18:40.441Z,-0.01237183,0.0037304861,-0.20275088,-0.022018433,-0.25674438,9.805069,-6.1279297,17.02118,-44.789124,-0.02244326,-0.25242662,9.803375,0.00042882375,-0.00068697333,0.000664711,-0.00012207031,0.00016784668,-0.00012207031
2019-07-01T19:18:40.639Z,-0.012433684,0.0037480667,-0.20282915,-0.021774292,-0.24932861,9.804352,-5.3741455,15.985107,-45.559692,-0.022514569,-0.253686,9.803343,0.00027165003,-0.0020627975,0.00028514862,-0.00018310547,4.5776367e-05,-0.00010681152
2019-07-01T19:18:40.854Z,-0.012371316,0.003724023,-0.20273401,-0.023208618,-0.25434875,9.803146,-6.060791,16.583252,-43.97583,-0.022325538,-0.25239068,9.803377,0.00055428594,0.0030964315,-0.0010766983,0.0,0.00010681152,7.6293945e-05
2019-07-01T19:18:41.039Z,-0.012413069,0.0037485277,-0.20281929,-0.022491455,-0.25219727,9.803879,-5.657959,16.688538,-44.5755,-0.022608003,-0.25329176,9.803352,-0.00012546219,-0.0024827123,-0.00088596344,0.00012207031,-1.5258789e-05,0.00030517578
2019-07-01T19:18:41.256Z,-0.012381698,0.003747165,-0.20279899,-0.020111084,-0.25100708,9.804825,-5.6762695,16.171265,-43.99872,-0.022711894,-0.25268355,9.803369,-0.0004949365,0.001696378,-0.00026130676,-6.1035156e-05,-1.5258789e-05,7.6293945e-05
2019-07-01T19:18:41.462Z,-0.012367664,0.0036717989,-0.20259796,-0.023452759,-0.2555542,9.804825,-5.819702,16.523743,-43.69507,-0.021372175,-0.25210997,9.803386,0.0019803923,0.0013722479,0.00045776367,-0.00012207031,-0.00024414062,0.00024414062
2019-07-01T19:18:41.663Z,-0.0124210045,0.0037373262,-0.20279478,-0.022735596,-0.24932861,9.805069,-6.1828613,15.855408,-45.251465,-0.02236766,-0.25339904,9.80335,-0.0020435564,-0.0021229386,0.0004720688,-6.1035156e-05,0.00010681152,1.5258789e-05
2019-07-01T19:18:41.863Z,-0.012352151,0.0037275113,-0.20273271,-0.021774292,-0.25172424,9.803162,-5.732727,16.59851,-43.2312,-0.022469081,-0.2520365,9.803385,-1.9969419e-05,0.0027348697,-0.00032615662,0.00018310547,-0.0001373291,0.00012207031
2019-07-01T19:18:42.067Z,-0.012348637,0.0036960668,-0.20265009,-0.021057129,-0.2524414,9.80722,-6.552124,16.329956,-43.855286,-0.021900441,-0.25184217,9.8033905,0.0006018076,-0.0003248155,0.00025463104,6.1035156e-05,-1.5258789e-05,-4.5776367e-05
2019-07-01T19:18:42.269Z,-0.012350971,0.0036891259,-0.20263352,-0.024169922,-0.2534027,9.8033905,-5.735779,16.601562,-43.608093,-0.02176213,-0.25185907,9.803391,0.00046491437,-0.0003065765,0.0012865067,0.0,-1.5258789e-05,0.00012207031
2019-07-01T19:18:42.467Z,-0.012381385,0.0037269497,-0.20274691,-0.022018433,-0.2545929,9.804596,-4.876709,16.15448,-44.641113,-0.022338362,-0.25259593,9.80337,-0.0018276535,-0.0012356341,-0.0002603531,-6.1035156e-05,-0.0001373291,0.0001373291
2019-07-01T19:18:42.675Z,-0.012403109,0.0037288656,-0.20276347,-0.022262573,-0.25411987,9.805313,-5.987549,16.366577,-43.719482,-0.022284472,-0.2530211,9.803361,4.0167943e-05,-0.0010645986,-0.0008058548,0.0,-1.5258789e-05,-0.00010681152
2019-07-01T19:18:42.880Z,-0.012437351,0.0037146544,-0.20274532,-0.023925781,-0.2536316,9.805313,-6.4682007,16.56189,-44.64264,-0.021880055,-0.25362164,9.803346,0.00010777451,-0.0004749,-0.0008573532,-0.00012207031,-0.00018310547,1.5258789e-05
2019-07-01T19:18:43.080Z,-0.01241179,0.003753453,-0.20283125,-0.022735596,-0.25076294,9.803635,-5.7617188,16.247559,-44.88678,-0.022704583,-0.25328708,9.803352,-0.0014618803,0.00016710162,0.0011844635,6.1035156e-05,0.00010681152,0.00019836426
2019-07-01T19:18:43.279Z,-0.012380855,0.0037500819,-0.20280603,-0.021530151,-0.25291443,9.806747,-5.194092,16.203308,-44.088745,-0.022769442,-0.2526791,9.803368,3.689155e-05,0.0014616847,-0.0003271103,6.1035156e-05,4.5776367e-05,-0.00010681152
2019-07-01T19:18:43.484Z,-0.012391872,0.0037331483,-0.20276845,-0.021774292,-0.25387573,9.8022,-5.0369263,16.143799,-44.483948,-0.022410132,-0.25282243,9.803365,0.0008834675,-0.00029680133,0.00042247772,-6.1035156e-05,-7.6293945e-05,-4.5776367e-05
2019-07-01T19:18:43.706Z,-0.012407429,0.0037162413,-0.20273337,-0.021057129,-0.25219727,9.804352,-6.3796997,16.482544,-43.151855,-0.022032637,-0.25305313,9.80336,0.0005049817,-0.0003209114,-0.0008363724,3.0517578e-05,6.1035156e-05,-0.00035095215
2019-07-01T19:18:43.895Z,-0.012396819,0.003704557,-0.20269768,-0.023208618,-0.25291443,9.804352,-4.800415,15.936279,-43.85681,-0.021859659,-0.2528022,9.803368,0.0005607642,0.00038823485,-8.010864e-05,-9.1552734e-05,6.1035156e-05,-3.0517578e-05
2019-07-01T19:18:44.098Z,-0.012413025,0.003723907,-0.20275605,-0.02130127,-0.25268555,9.805069,-6.227112,16.194153,-42.46216,-0.02215172,-0.25319156,9.803355,-0.000581868,-0.0004170835,-0.00036525726,-9.1552734e-05,0.0,1.5258789e-05
2019-07-01T19:18:44.298Z,-0.012397214,0.0037221683,-0.20274311,-0.020584106,-0.25053406,9.806274,-6.0897827,15.927124,-44.259644,-0.022184562,-0.25288078,9.803364,0.00016909465,0.0007173121,0.00086688995,3.0517578e-05,-6.1035156e-05,-3.0517578e-05
2019-07-01T19:18:44.499Z,-0.012342807,0.0036725593,-0.2025866,-0.021774292,-0.25125122,9.805557,-6.225586,16.499329,-44.06128,-0.02148849,-0.25163546,9.803398,0.0013969894,0.0018692315,0.001376152,0.00015258789,6.1035156e-05,7.6293945e-05
2019-07-01T19:18:44.700Z,-0.012323856,0.003677525,-0.20258923,-0.022735596,-0.2514801,9.805069,-5.4748535,17.134094,-44.114685,-0.0216585,-0.25129133,9.803406,-0.00035543926,-0.00013664365,0.00011730194,0.00015258789,6.1035156e-05,-0.00010681152
2019-07-01T19:18:44.907Z,-0.012334005,0.0037117589,-0.20268255,-0.022491455,-0.25387573,9.801239,-5.5770874,16.615295,-43.989563,-0.022251626,-0.25162432,9.803395,-0.0009529963,-0.0002988875,-0.0005598068,3.0517578e-05,-6.1035156e-05,-3.0517578e-05
2019-07-01T19:18:45.099Z,-0.012364484,0.0037069726,-0.20268658,-0.022018433,-0.25387573,9.805542,-6.1950684,15.486145,-44.64569,-0.022037484,-0.25219065,9.803382,-0.00022348575,-0.0016667545,-0.0021390915,0.00021362305,-0.00012207031,-0.00021362305
2019-07-01T19:18:45.370Z,-0.012374207,0.0037349197,-0.20276354,-0.020584106,-0.25315857,9.80603,-6.590271,17.349243,-43.79883,-0.022515683,-0.25249022,9.803374,-0.0006906893,-0.0006431639,0.00048828125,3.0517578e-05,0.00012207031,-0.00010681152
2019-07-01T19:18:45.562Z,-0.012388593,0.0037044412,-0.20269299,-0.022247314,-0.25483704,9.803635,-5.8547974,15.8706665,-44.430542,-0.021891357,-0.25264364,9.80337,0.0010821577,-0.0002270639,0.0014352798,-3.0517578e-05,-4.5776367e-05,1.5258789e-05
2019-07-01T19:18:45.762Z,-0.012422517,0.0037137598,-0.20273507,-0.022491455,-0.2536316,9.808182,-7.032776,16.371155,-43.902588,-0.021924525,-0.253333,9.803352,0.0003971439,-0.0014720559,-0.00095653534,0.00015258789,0.0,-4.5776367e-05
2019-07-01T19:18:45.972Z,-0.012401095,0.003723373,-0.20274828,-0.023452759,-0.2514801,9.807709,-5.0613403,15.4800415,-43.637085,-0.022190923,-0.2529602,9.803362,-0.00078366697,0.00010445714,0.002073288,3.0517578e-05,6.1035156e-05,-9.1552734e-05
2019-07-01T19:18:46.176Z,-0.0123790195,0.0037279725,-0.20274828,-0.02130127,-0.2514801,9.801239,-5.4122925,16.548157,-43.25409,-0.022367062,-0.25255463,9.803372,-0.00011802651,0.0009022653,0.0010576248,-3.0517578e-05,0.0,1.5258789e-05
2019-07-01T19:18:46.371Z,-0.012367462,0.0037275588,-0.20274103,-0.020584106,-0.2524414,9.804352,-6.3476562,15.6188965,-44.387817,-0.022406956,-0.2523309,9.803378,0.00016300008,-7.2687864e-05,-0.0026464462,9.1552734e-05,0.00012207031,-9.1552734e-05
2019-07-01T19:18:46.576Z,-0.012369214,0.003699033,-0.20266873,-0.022018433,-0.2514801,9.805786,-6.3201904,16.278076,-44.55719,-0.021870805,-0.2522495,9.803381,0.0010598358,7.5519085e-05,-0.001124382,3.0517578e-05,0.0,-9.1552734e-05
2019-07-01T19:18:46.781Z,-0.012348819,0.0036963685,-0.20265096,-0.021774292,-0.25172424,9.803879,-5.3726196,15.678406,-43.736267,-0.021905294,-0.2518469,9.803391,0.00037896074,0.0013567805,0.0016469955,-0.00015258789,0.00012207031,-0.00015258789
2019-07-01T19:18:46.976Z,-0.0123633575,0.0037229545,-0.202727,-0.022247314,-0.2524414,9.804825,-5.0750732,17.23938,-45.014954,-0.02233847,-0.25223345,9.80338,-0.00039414503,-0.00017431378,-0.0008096695,-9.1552734e-05,0.00012207031,0.0001373291
2019-07-01T19:18:47.196Z,-0.01235627,0.0037027006,-0.20267121,-0.021057129,-0.25315857,9.804352,-5.091858,16.722107,-44.213867,-0.021992065,-0.25201562,9.803388,0.0011819322,7.995963e-05,-6.389618e-05,0.0002746582,0.00012207031,-4.5776367e-05
2019-07-01T19:18:47.449Z,-0.012357492,0.0037202113,-0.20271683,-0.02368164,-0.2524414,9.805069,-6.3339233,15.911865,-44.32831,-0.02231174,-0.25210968,9.803383,-0.00042081065,-0.001014471,0.000102996826,3.0517578e-05,0.00012207031,1.5258789e-05
2019-07-01T19:18:47.642Z,-0.012357546,0.003736308,-0.20275818,-0.02368164,-0.25100708,9.802673,-5.062866,15.635681,-44.888306,-0.02261,-0.25217566,9.803381,-0.00035222434,3.516674e-06,-0.0007238388,9.1552734e-05,-0.00012207031,7.6293945e-05
2019-07-01T19:18:47.840Z,-0.012339245,0.00373577,-0.202747,-0.023452759,-0.24980164,9.805786,-4.8431396,16.807556,-43.603516,-0.02267534,-0.25182185,9.80339,-0.001004424,0.00036260486,-0.0003232956,-3.0517578e-05,-0.00016784668,1.5258789e-05
2019-07-01T19:18:48.043Z,-0.012316518,0.0037401598,-0.20274611,-0.022247314,-0.25125122,9.8029175,-5.393982,15.316772,-44.26117,-0.02285026,-0.25140294,9.803401,-0.00035527535,0.0016352236,0.0010633469,-0.00015258789,0.0,-0.00021362305
2019-07-01T19:18:48.243Z,-0.012322383,0.0037104816,-0.20267305,-0.022735596,-0.25100708,9.802444,-5.531311,15.817261,-44.00177,-0.022275753,-0.25139588,9.803402,3.0072406e-05,0.00016310811,-0.001203537,-9.1552734e-05,-0.000289917,0.0001373291
2019-07-01T19:18:48.446Z,-0.012285352,0.0037314254,-0.202707,-0.022247314,-0.25172424,9.801239,-5.9906006,16.371155,-44.247437,-0.022816503,-0.25076884,9.803416,-0.0006332025,0.0009855032,0.0029802322,-3.0517578e-05,6.1035156e-05,1.5258789e-05
2019-07-01T19:18:48.649Z,-0.012316587,0.0037153484,-0.20268244,-0.023925781,-0.2536316,9.803635,-5.9188843,16.308594,-44.943237,-0.022389848,-0.25130415,9.803404,0.0003719628,-0.0006580651,-0.002161026,-3.0517578e-05,-0.00016784668,1.5258789e-05
2019-07-01T19:18:48.854Z,-0.012341405,0.0037572251,-0.20280324,-0.0236969,-0.2498169,9.804596,-6.7718506,15.078735,-44.252014,-0.023064299,-0.25194997,9.803386,-0.0013486072,-0.0009518564,0.0004749298,-9.1552734e-05,6.1035156e-05,-0.00015258789
2019-07-01T19:18:49.056Z,-0.012313035,0.0037617662,-0.20279971,-0.022964478,-0.2498169,9.8033905,-5.680847,16.177368,-44.677734,-0.023265285,-0.2514232,9.803399,5.8360398e-05,0.001395762,0.0004825592,3.0517578e-05,0.00012207031,-3.0517578e-05
2019-07-01T19:18:49.261Z,-0.012273434,0.0037517415,-0.20275277,-0.022262573,-0.25219727,9.802429,-6.4224243,15.684509,-44.06891,-0.02324234,-0.25062183,9.803419,3.387779e-05,0.000577718,-0.0012845993,0.00015258789,0.0,-0.00021362305
2019-07-01T19:18:49.462Z,-0.012284189,0.0037448625,-0.20274086,-0.023452759,-0.25219727,9.803879,-5.74646,16.537476,-44.75403,-0.023070501,-0.25080073,9.803415,0.0010514073,-0.00045767426,-0.0007047653,-3.0517578e-05,0.00018310547,7.6293945e-05
2019-07-01T19:18:49.675Z,-0.012325927,0.0037690443,-0.2028253,-0.023925781,-0.2534027,9.800049,-5.8776855,17.108154,-44.178772,-0.023347184,-0.25170028,9.803391,-0.00033448637,-0.0014586151,0.00049972534,-0.00015258789,6.1035156e-05,-0.0002746582
2019-07-01T19:18:49.870Z,-0.012347477,0.0037837669,-0.20287463,-0.022491455,-0.25125122,9.803635,-5.773926,15.95459,-45.021057,-0.02353146,-0.2521738,9.803379,-0.00016792677,-0.00053837895,-0.002064705,3.0517578e-05,0.0,-0.00047302246
2019-07-01T19:18:50.074Z,-0.012331192,0.0037525254,-0.2027857,-0.022964478,-0.25196838,9.805542,-5.760193,16.246033,-44.735718,-0.023019189,-0.25173476,9.803391,0.000527218,0.00072202086,0.0016536713,3.0517578e-05,-6.1035156e-05,-9.1552734e-05
2019-07-01T19:18:50.270Z,-0.012345511,0.00375051,-0.2027882,-0.023208618,-0.25028992,9.803162,-6.161499,16.139221,-44.21234,-0.02292288,-0.25200173,9.803385,0.00018770061,-0.0004350841,0.00078868866,3.0517578e-05,0.0,-9.1552734e-05
2019-07-01T19:18:50.475Z,-0.01231398,0.003769827,-0.2028209,-0.023208618,-0.25196838,9.801956,-4.937744,16.435242,-43.52112,-0.02341088,-0.2514739,9.803397,-0.00051464327,0.00094261765,-0.00011539459,3.0517578e-05,0.0,1.5258789e-05
2019-07-01T19:18:50.677Z,-0.012323365,0.0037597665,-0.2028001,-0.020584106,-0.25219727,9.804825,-6.0073853,16.00647,-44.396973,-0.023185678,-0.2516136,9.803393,0.00021987781,-0.0005980432,-0.0013513565,3.0517578e-05,0.0,-3.0517578e-05
2019-07-01T19:18:50.876Z,-0.012327974,0.0037136755,-0.20268424,-0.025604248,-0.2498169,9.802673,-5.1864624,16.273499,-43.544006,-0.022311984,-0.2515162,9.803399,0.0017284695,0.00027164817,0.0016536713,-9.1552734e-05,0.0,-0.0002746582
2019-07-01T19:18:51.091Z,-0.0123020215,0.0037496577,-0.20276272,-0.020095825,-0.2514801,9.802673,-4.714966,16.088867,-44.058228,-0.023086056,-0.2511627,9.803406,-0.0018017646,0.00062063336,-0.0011367798,3.0517578e-05,-0.00016784668,-0.00015258789
2019-07-01T19:18:51.290Z,-0.012299913,0.0037167885,-0.20267722,-0.022735596,-0.25315857,9.801483,-5.4779053,17.060852,-44.27948,-0.022485146,-0.2509896,9.803412,0.00095487013,-1.886487e-05,0.0005207062,0.00015258789,0.0,-3.0517578e-05
2019-07-01T19:18:51.491Z,-0.012343707,0.0037011504,-0.2026605,-0.02130127,-0.2524414,9.804596,-4.1641235,15.835571,-44.129944,-0.022015,-0.25176796,9.803393,0.00046810694,-0.0014075637,-0.0012493134,-9.1552734e-05,0.0,0.0001373291
2019-07-01T19:18:51.693Z,-0.012358391,0.0036961678,-0.20265557,-0.023452759,-0.2514801,9.802444,-5.26886,16.499329,-45.158386,-0.021862198,-0.25203,9.803386,0.0005597826,-0.00018048286,0.00028896332,-3.0517578e-05,0.00012207031,1.5258789e-05
2019-07-01T19:18:51.897Z,-0.012352789,0.003727943,-0.20273416,-0.022018433,-0.25196838,9.803635,-5.697632,15.885925,-44.963074,-0.02247446,-0.25205052,9.803385,-0.0012233946,7.143617e-05,0.00019359589,-9.1552734e-05,-0.00012207031,-9.1552734e-05
2019-07-01T19:18:52.100Z,-0.012366583,0.0037439382,-0.20278262,-0.022979736,-0.2529297,9.804825,-5.8425903,16.165161,-44.673157,-0.022714287,-0.2523801,9.803376,-0.00026625954,-0.00054332614,0.000120162964,-3.0517578e-05,0.00012207031,-9.1552734e-05
2019-07-01T19:18:52.303Z,-0.01235536,0.0037289308,-0.20273808,-0.022247314,-0.25196838,9.803635,-5.9188843,16.233826,-44.581604,-0.022482198,-0.2521039,9.803383,0.00023599155,0.00039207935,0.0016756058,3.0517578e-05,-0.00012207031,9.1552734e-05
2019-07-01T19:18:52.507Z,-0.012366178,0.0037152274,-0.20270868,-0.02368164,-0.25291443,9.805542,-6.9396973,16.744995,-44.207764,-0.022183584,-0.25225648,9.80338,-6.2998384e-05,0.0002964139,-0.00031280518,-9.1552734e-05,-0.00016784668,-0.00015258789
2019-07-01T19:18:52.716Z,-0.012383283,0.0037340303,-0.20276612,-0.022491455,-0.2514801,9.804596,-5.848694,16.020203,-44.703674,-0.022461833,-0.25266096,9.803369,-0.0007447917,-0.00071933866,0.0010738373,-9.1552734e-05,-0.00012207031,-0.00010681152
2019-07-01T19:18:52.911Z,-0.012343446,0.0037354776,-0.20274849,-0.022979736,-0.25172424,9.801239,-5.0445557,16.000366,-44.891357,-0.022652624,-0.2519014,9.803388,-0.0010420252,0.0011634827,0.00023365021,0.00021362305,-0.00012207031,-9.1552734e-05
2019-07-01T19:18:53.112Z,-0.012352809,0.0037303406,-0.20274033,-0.022735596,-0.25219727,9.803879,-5.505371,16.552734,-44.76013,-0.022518842,-0.2520606,9.803385,0.00025650114,-0.0010953844,-0.0017738342,9.1552734e-05,6.1035156e-05,-0.00033569336
2019-07-01T19:18:53.316Z,-0.01234488,0.0037320806,-0.20274055,-0.022735596,-0.25364685,9.801956,-6.248474,15.835571,-43.289185,-0.022583732,-0.25191525,9.803388,9.187311e-05,0.0006595254,-0.000538826,-9.1552734e-05,6.1035156e-05,-3.0517578e-05
2019-07-01T19:18:53.520Z,-0.0123853795,0.0037522505,-0.20281403,-0.022491455,-0.25172424,9.806992,-4.9942017,17.094421,-44.291687,-0.022791028,-0.2527748,9.803366,-0.00017423183,-0.0013537705,-0.00035572052,-9.1552734e-05,-6.1035156e-05,1.5258789e-05
2019-07-01T19:18:53.722Z,-0.012380208,0.003728505,-0.20275028,-0.020584106,-0.25291443,9.805069,-5.921936,16.160583,-44.522095,-0.022372046,-0.25257957,9.80337,0.0003567431,0.0008906424,0.0034399033,-0.00015258789,-6.1035156e-05,-0.00015258789
2019-07-01T19:18:53.926Z,-0.01239487,0.0036950903,-0.20267233,-0.023208618,-0.25172424,9.8022,-5.6640625,16.540527,-44.454956,-0.021692153,-0.25272655,9.8033695,0.0011106115,7.0899725e-05,-0.00042057037,-9.1552734e-05,-6.1035156e-05,-3.0517578e-05
2019-07-01T19:18:54.130Z,-0.012390212,0.0037254726,-0.20274785,-0.022964478,-0.25268555,9.803146,-6.0180664,15.711975,-44.003296,-0.022274645,-0.25275958,9.803367,-0.0011770763,0.00055882335,-0.0013942719,-9.1552734e-05,0.0,-0.00021362305
2019-07-01T19:18:54.330Z,-0.012369375,0.0037289513,-0.20274563,-0.022964478,-0.25076294,9.805542,-5.1742554,16.79535,-44.874573,-0.022424903,-0.25237325,9.803376,-0.00053869374,0.00065889955,-0.00012683868,3.0517578e-05,-0.00012207031,0.00019836426
2019-07-01T19:18:54.538Z,-0.012355189,0.0037112527,-0.20269258,-0.025131226,-0.25219727,9.8022,-5.644226,16.978455,-44.366455,-0.022155095,-0.2520293,9.803386,-0.0003352575,0.0010347664,0.00023365021,3.0517578e-05,-0.00012207031,-0.00015258789
2019-07-01T19:18:54.736Z,-0.012335638,0.0037728113,-0.20284016,-0.023208618,-0.25196838,9.8022,-5.432129,16.262817,-44.21692,-0.023377057,-0.2519021,9.803387,-0.002227351,-6.80089e-05,-0.00111866,-9.1552734e-05,0.0,-0.00021362305
2019-07-01T19:18:54.933Z,-0.012371223,0.003762954,-0.20283392,-0.022018433,-0.25125122,9.802429,-5.7876587,17.181396,-43.41278,-0.023047764,-0.252546,9.80337,0.00031069852,8.8483095e-05,-0.00054454803,-0.00015258789,0.0,-0.00021362305
2019-07-01T19:18:55.137Z,-0.012360841,0.0037331295,-0.20275179,-0.022262573,-0.25053406,9.801956,-4.6173096,16.381836,-43.321228,-0.022537498,-0.25222614,9.80338,0.0009914842,0.0012122989,0.0007610321,-9.1552734e-05,0.0,-9.1552734e-05
2019-07-01T19:18:55.337Z,-0.012341204,0.003740953,-0.20276135,-0.023452759,-0.25411987,9.804108,-6.8984985,15.950012,-44.825745,-0.022763385,-0.25188044,9.803389,-0.00044731237,0.00060620904,-0.0012540817,3.0517578e-05,6.1035156e-05,7.6293945e-05
2019-07-01T19:18:55.553Z,-0.012357065,0.0037395186,-0.20276617,-0.022018433,-0.25100708,9.805069,-6.188965,15.708923,-45.20569,-0.022671508,-0.25217938,9.803381,0.00042356923,-0.0005131066,0.0012407303,-9.1552734e-05,0.0,-3.0517578e-05
2019-07-01T19:18:55.751Z,-0.012351515,0.0037350177,-0.20275164,-0.023452759,-0.25076294,9.8033905,-4.7317505,15.800476,-44.41681,-0.022610892,-0.25205457,9.803384,0.00012012385,0.00033795834,0.0011434555,-9.1552734e-05,-6.1035156e-05,0.0001373291
2019-07-01T19:18:55.955Z,-0.012319653,0.0037515594,-0.20277704,-0.024169922,-0.25028992,9.804108,-5.883789,16.885376,-43.771362,-0.023048766,-0.25150916,9.803397,-0.0008771438,0.0014619529,-0.0006685257,-3.0517578e-05,0.00012207031,-0.00015258789
2019-07-01T19:18:56.155Z,-0.012303167,0.0037762432,-0.20283158,-0.023452759,-0.2524414,9.804825,-5.673218,16.397095,-45.010376,-0.023574376,-0.25129205,9.803401,-0.0010679029,0.0005362034,0.00067424774,3.0517578e-05,-0.00012207031,-0.00016784668
2019-07-01T19:18:56.365Z,-0.012326044,0.003748952,-0.20277378,-0.02130127,-0.25196838,9.8029175,-5.784607,15.583801,-44.34204,-0.022974106,-0.25162143,9.803394,0.000957435,-0.0012736917,0.00092220306,0.00021362305,0.0,-3.0517578e-05
2019-07-01T19:18:56.567Z,-0.012321627,0.0037304526,-0.20272392,-0.02130127,-0.2534027,9.806976,-5.5496216,15.527344,-44.43817,-0.022649223,-0.2514619,9.803399,0.0004026983,-9.447336e-06,-0.00082302094,3.0517578e-05,0.0,-3.0517578e-05
2019-07-01T19:18:56.768Z,-0.0123703405,0.0037008435,-0.20267397,-0.022262573,-0.2536316,9.804352,-5.6167603,15.893555,-45.26825,-0.021899747,-0.25227848,9.803381,0.0010896195,-0.0015642941,0.0018424988,3.0517578e-05,-0.00010681152,-4.5776367e-05
2019-07-01T19:18:56.970Z,-0.012391965,0.003716138,-0.20272481,-0.021774292,-0.2536316,9.803635,-5.2749634,16.19873,-44.16046,-0.022094358,-0.2527556,9.803368,-0.0003940612,-0.00084123015,0.00011062622,-0.00015258789,0.0,1.5258789e-05
2019-07-01T19:18:57.173Z,-0.012400813,0.003716412,-0.20273027,-0.023208618,-0.25315857,9.802444,-5.4901123,15.022278,-44.618225,-0.022063026,-0.25292674,9.803364,0.00053529814,-0.0009211898,-0.0005617142,0.00015258789,6.1035156e-05,-0.00015258789
2019-07-01T19:18:57.376Z,-0.012383143,0.003732631,-0.20276244,-0.022491455,-0.25291443,9.804108,-5.7678223,16.099548,-44.99359,-0.022436468,-0.25265265,9.8033695,-0.0007712301,0.00093877316,-0.0013275146,3.0517578e-05,6.1035156e-05,-0.00021362305
2019-07-01T19:18:57.581Z,-0.012411186,0.0037484162,-0.202818,-0.02130127,-0.25411987,9.8033905,-5.4611206,15.6814575,-44.71283,-0.022613687,-0.25325513,9.803353,0.00012328103,-0.0013259947,7.05719e-05,-3.0517578e-05,0.00012207031,1.5258789e-05
2019-07-01T19:18:57.772Z,-0.012417863,0.0037385747,-0.20279631,-0.021774292,-0.25196838,9.8033905,-5.7678223,15.948486,-44.117737,-0.02240374,-0.2533437,9.803351,0.00087431073,-5.081296e-05,-0.00027751923,9.1552734e-05,0.0,-0.00010681152
2019-07-01T19:18:57.983Z,-0.012392275,0.0037171848,-0.20272768,-0.02154541,-0.25291443,9.804352,-5.0445557,15.846252,-43.63861,-0.022112487,-0.25276577,9.803367,0.00033867545,0.00057402253,-0.00018978119,9.1552734e-05,6.1035156e-05,-3.0517578e-05
2019-07-01T19:18:58.193Z,-0.012389713,0.0037102161,-0.20270841,-0.02130127,-0.25172424,9.803146,-4.6798706,17.045593,-44.770813,-0.021993823,-0.25268847,9.8033695,0.00022077002,-0.0002117157,0.00067424774,-3.0517578e-05,-6.1035156e-05,-0.00015258789
2019-07-01T19:18:58.446Z,-0.012381099,0.0036828255,-0.20263347,-0.022735596,-0.25434875,9.804596,-5.4214478,16.404724,-43.659973,-0.021521384,-0.25241253,9.803377,0.000708675,0.0006915927,-0.000831604,3.0517578e-05,-0.00016784668,-3.0517578e-05
2019-07-01T19:18:58.645Z,-0.012401004,0.0036974514,-0.20268168,-0.020095825,-0.2514801,9.805313,-5.9143066,16.305542,-44.415283,-0.021710694,-0.25285393,9.803366,-0.0010241475,-0.0010130107,0.0004005432,-3.0517578e-05,-6.1035156e-05,7.6293945e-05
2019-07-01T19:18:58.851Z,-0.0123899635,0.0036619483,-0.2025846,-0.023925781,-0.25028992,9.804352,-7.0358276,16.375732,-44.355774,-0.021097811,-0.25249878,9.803377,0.0007600505,0.0005567968,0.0013847351,0.00015258789,-0.00012207031,0.0001373291
2019-07-01T19:18:59.052Z,-0.012347774,0.0036873696,-0.2026273,-0.023208618,-0.2498169,9.803635,-5.433655,16.415405,-45.24231,-0.021742715,-0.25179055,9.803393,-0.0019361917,0.0012881756,0.00044345856,3.0517578e-05,-0.00022888184,-0.00015258789
2019-07-01T19:18:59.253Z,-0.0122974105,0.0036935322,-0.20261617,-0.022491455,-0.25004578,9.804108,-5.7144165,15.52124,-45.036316,-0.022064112,-0.25084773,9.803416,-0.00066914596,0.0015456975,-0.00034809113,9.1552734e-05,6.1035156e-05,-0.00033569336
2019-07-01T19:18:59.453Z,-0.012272019,0.003720975,-0.20267303,-0.023452759,-0.25172424,9.800995,-6.4849854,16.117859,-44.05365,-0.02267752,-0.25047052,9.803425,-0.0010181796,0.00066685677,-0.0010261536,-9.1552734e-05,6.1035156e-05,-9.1552734e-05
2019-07-01T19:18:59.660Z,-0.012291127,0.0037262617,-0.20269683,-0.023452759,-0.25196838,9.801956,-5.4092407,16.697693,-43.676758,-0.022947157,-0.25149345,9.803398,-0.00050505996,-0.00046899915,0.00072193146,-0.00015258789,0.0,-9.1552734e-05
2019-07-01T19:18:59.856Z,-0.012332072,0.00375778,-0.20279966,-0.022979736,-0.25172424,9.801727,-4.6707153,15.216064,-43.782043,-0.023113009,-0.25177288,9.8033905,-0.00033975765,4.8547983e-05,-0.00047016144,-3.0517578e-05,-6.1035156e-05,-9.1552734e-05
2019-07-01T19:19:00.065Z,-0.012351467,0.003755167,-0.20280334,-0.025131226,-0.2524414,9.8022,-5.026245,16.360474,-44.06433,-0.022984711,-0.252135,9.803382,-0.00022557378,-0.0005688369,-0.0014314651,-0.00015258789,-6.1035156e-05,-0.00015258789
2019-07-01T19:19:00.277Z,-0.012349851,0.0038020937,-0.20292296,-0.024414062,-0.25053406,9.804596,-6.6482544,16.03241,-43.91327,-0.023861494,-0.25229353,9.803376,-0.0012728162,6.365776e-05,-0.0011138916,-9.1552734e-05,0.00012207031,7.6293945e-05
2019-07-01T19:19:00.462Z,-0.012304941,0.003818294,-0.20294046,-0.022247314,-0.25125122,9.801712,-5.19104,16.278076,-44.073486,-0.02434688,-0.2514961,9.803395,-0.0002970118,0.0016694069,0.0018119812,3.0517578e-05,0.00018310547,-0.00021362305
2019-07-01T19:19:00.673Z,-0.012312091,0.0037774835,-0.20283954,-0.02368164,-0.25172424,9.8033905,-6.5093994,15.763855,-45.407104,-0.023560641,-0.25146854,9.803397,0.002028523,0.0001963079,-0.0008659363,0.00015258789,0.0,-0.00015258789
2019-07-01T19:19:00.871Z,-0.012305255,0.0037823454,-0.20284836,-0.023208618,-0.24789429,9.802429,-5.441284,16.116333,-44.322205,-0.02367895,-0.25135684,9.8034,-0.0002477523,-0.0006213188,0.00086021423,-3.0517578e-05,0.00012207031,-3.0517578e-05
2019-07-01T19:19:01.079Z,-0.012245783,0.0037733,-0.2027933,-0.022018433,-0.25028992,9.803635,-5.366516,15.977478,-44.656372,-0.02375598,-0.25017762,9.803431,0.0007894393,0.0027346313,-0.00086688995,-9.1552734e-05,0.00024414062,-0.00015258789
2019-07-01T19:19:01.274Z,-0.012256517,0.0037570428,-0.20275731,-0.022735596,-0.24908447,9.804352,-5.5007935,16.548157,-44.081116,-0.023410268,-0.2503182,9.803427,0.0009183828,0.00026783347,0.0013494492,-0.00015258789,0.0,0.0001373291
2019-07-01T19:19:01.476Z,-0.012268236,0.003726643,-0.20268556,-0.021774292,-0.25172424,9.802673,-4.953003,16.299438,-44.682312,-0.02279821,-0.2504207,9.803426,0.0005511362,0.00037753582,0.0005788803,-9.1552734e-05,-0.00016784668,-0.00016784668
2019-07-01T19:19:01.680Z,-0.012295577,0.0037143407,-0.2026686,-0.023925781,-0.25172424,9.802444,-4.864502,16.296387,-43.70575,-0.022457585,-0.2508964,9.803414,0.00068327226,-0.00082811713,-0.00024318695,-9.1552734e-05,-0.00012207031,-9.1552734e-05
2019-07-01T19:19:01.895Z,-0.012316897,0.0037340221,-0.20273055,-0.02130127,-0.25219727,9.805313,-5.317688,15.402222,-45.07599,-0.02273488,-0.2513854,9.8034,-0.0011921935,-0.00059729815,-0.001115799,-9.1552734e-05,0.0,0.00019836426
2019-07-01T19:19:02.095Z,-0.012334717,0.0037203564,-0.20270501,-0.021530151,-0.25219727,9.804825,-6.149292,16.433716,-44.229126,-0.022408137,-0.2516727,9.803394,0.00087915175,-0.00051146746,0.00212574,9.1552734e-05,6.1035156e-05,1.5258789e-05
2019-07-01T19:19:02.299Z,-0.012327962,0.0037075067,-0.2026684,-0.022018433,-0.25100708,9.8029175,-5.003357,16.7984,-43.748474,-0.022197636,-0.25149107,9.8034,0.0006687958,-0.00046244264,0.00012874603,0.00021362305,6.1035156e-05,1.5258789e-05
2019-07-01T19:19:02.498Z,-0.012306615,0.003699479,-0.20263636,-0.022018433,-0.25196838,9.802673,-5.0338745,16.217041,-44.46869,-0.022136554,-0.25104856,9.8034115,0.00011933781,0.00029942393,-7.1525574e-05,3.0517578e-05,0.0,-3.0517578e-05
2019-07-01T19:19:02.700Z,-0.012333732,0.0036992398,-0.20265026,-0.025131226,-0.25028992,9.804108,-5.8914185,16.816711,-44.387817,-0.02202059,-0.25156862,9.803398,0.0004900042,-0.0011219084,-0.0014925003,0.00015258789,-0.00012207031,0.00019836426
2019-07-01T19:19:02.908Z,-0.012288719,0.0037378117,-0.20272519,-0.023452759,-0.24957275,9.799332,-5.4885864,16.842651,-44.322205,-0.022921097,-0.25085932,9.803414,-0.002682738,0.0010469258,0.0007610321,-3.0517578e-05,-0.00016784668,-9.1552734e-05
2019-07-01T19:19:03.110Z,-0.012266723,0.003755339,-0.2027584,-0.025604248,-0.25076294,9.803635,-6.349182,15.774536,-45.411682,-0.023336677,-0.25050744,9.803423,-0.0010805614,0.0009005964,-0.003001213,3.0517578e-05,0.0,1.5258789e-05
2019-07-01T19:19:03.310Z,-0.012254324,0.0037849052,-0.20282765,-0.022979736,-0.25076294,9.804352,-5.923462,16.313171,-45.622253,-0.023936074,-0.2503886,9.803424,-0.0009528287,0.00032380223,0.0011844635,3.0517578e-05,6.1035156e-05,1.5258789e-05
2019-07-01T19:19:03.509Z,-0.012274412,0.0037506667,-0.20275053,-0.022247314,-0.2498169,9.8029175,-6.2591553,15.844727,-44.57245,-0.02321838,-0.2506363,9.803419,0.00095481984,-0.001098603,0.0006322861,0.00015258789,-0.00012207031,-3.0517578e-05
2019-07-01T19:19:03.719Z,-0.012255492,0.003741779,-0.20271759,-0.022964478,-0.2524414,9.804352,-5.7525635,16.313171,-44.044495,-0.02313137,-0.2502369,9.80343,0.0003960263,0.00042271614,0.0010595322,-9.1552734e-05,0.00012207031,-0.0002746582
2019-07-01T19:19:03.921Z,-0.012285575,0.003749345,-0.20275311,-0.021530151,-0.2498169,9.804596,-5.2246094,15.625,-44.960022,-0.023147933,-0.25084546,9.803414,0.00041288324,-0.0006287396,0.00023365021,-9.1552734e-05,0.00012207031,-0.00015258789
2019-07-01T19:19:04.118Z,-0.012283568,0.0037237434,-0.20268632,-0.025131226,-0.25100708,9.801956,-5.9051514,16.448975,-44.161987,-0.022681363,-0.2507036,9.803419,0.0011515394,0.0001731813,-0.0001707077,3.0517578e-05,6.1035156e-05,-9.1552734e-05
2019-07-01T19:19:04.319Z,-0.01228456,0.0037763487,-0.20282188,-0.022018433,-0.2524414,9.803879,-5.105591,16.433716,-44.648743,-0.023652924,-0.250935,9.803411,-0.0014792345,-8.201599e-05,-0.0010671616,-3.0517578e-05,6.1035156e-05,-0.00015258789
2019-07-01T19:19:04.522Z,-0.012314364,0.0037661048,-0.20281155,-0.023925781,-0.25028992,9.802673,-5.8670044,15.50293,-43.97583,-0.023340274,-0.25146627,9.803398,0.00084916875,-0.0009713471,0.0010499954,3.0517578e-05,6.1035156e-05,-9.1552734e-05
2019-07-01T19:19:04.729Z,-0.012277931,0.0037554735,-0.20276475,-0.024414062,-0.25053406,9.8033905,-6.0043335,16.15448,-44.743347,-0.023293052,-0.25072333,9.803417,0.00031275116,0.0013886392,-0.0007352829,-3.0517578e-05,0.00012207031,-0.00021362305
2019-07-01T19:19:04.935Z,-0.012277266,0.0037925383,-0.20285954,-0.02368164,-0.24932861,9.801239,-5.9432983,15.649414,-44.548035,-0.023983201,-0.25086024,9.8034115,-0.0011484195,-0.0003950894,0.00014019012,-3.0517578e-05,6.1035156e-05,-0.00021362305
2019-07-01T19:19:05.139Z,-0.012258749,0.0037867161,-0.20283467,-0.023452759,-0.24885559,9.801483,-5.6869507,15.87677,-43.68286,-0.023951449,-0.25048095,9.803422,0.0009856839,0.0013677478,-0.0006942749,-9.1552734e-05,0.00024414062,-3.0517578e-05
2019-07-01T19:19:05.334Z,-0.012219087,0.0037987707,-0.20284437,-0.024642944,-0.24932861,9.804596,-6.6589355,15.892029,-44.621277,-0.024338288,-0.24976759,9.803439,-0.0003081672,0.0011201203,-0.0017471313,9.1552734e-05,0.00012207031,-0.00015258789
2019-07-01T19:19:05.542Z,-0.012211294,0.0038067938,-0.20286079,-0.0236969,-0.25268555,9.804352,-6.352234,15.548706,-44.703674,-0.024519188,-0.24965025,9.803441,-0.0001245495,-0.00017471611,0.0021896362,9.1552734e-05,-6.1035156e-05,0.0002593994
2019-07-01T19:19:05.754Z,-0.012264123,0.003795032,-0.2028589,-0.023925781,-0.25219727,9.8029175,-4.963684,16.15448,-45.31555,-0.02408356,-0.2506178,9.803418,0.0006304942,-0.001826793,0.0003414154,-3.0517578e-05,6.1035156e-05,-3.0517578e-05
2019-07-01T19:19:05.942Z,-0.012287105,0.0038057081,-0.2028986,-0.022491455,-0.24957275,9.804108,-7.0983887,16.427612,-42.227173,-0.024186935,-0.2511025,9.803405,0.0002613552,-0.0008637607,0.00039196014,-9.1552734e-05,0.00012207031,-0.00015258789
2019-07-01T19:19:06.189Z,-0.012251802,0.0037784504,-0.20280974,-0.024398804,-0.25004578,9.803635,-5.41687,16.477966,-43.571472,-0.023826735,-0.25031406,9.803426,-9.8319724e-05,0.00074893236,0.0003824234,-9.1552734e-05,0.0,-0.00010681152
2019-07-01T19:19:06.380Z,-0.0122511685,0.0037887273,-0.20283577,-0.020584106,-0.2524414,9.804352,-5.97229,16.810608,-44.38629,-0.024019955,-0.2503434,9.803425,-0.00014930777,6.0379505e-05,-5.9127808e-05,9.1552734e-05,0.0,7.6293945e-05
2019-07-01T19:19:06.579Z,-0.012289947,0.0037228628,-0.20268747,-0.023208618,-0.25053406,9.802673,-5.1193237,15.911865,-43.319702,-0.022638796,-0.25082257,9.803415,0.0023010913,-0.001349628,0.0013914108,3.0517578e-05,-0.00012207031,0.0001373291
2019-07-01T19:19:06.780Z,-0.012293508,0.0037341018,-0.20271823,-0.023208618,-0.25028992,9.800995,-4.890442,15.785217,-44.03534,-0.022832591,-0.25093636,9.803412,-0.00014712475,0.00017365813,-0.0019378662,-0.00021362305,6.1035156e-05,-9.1552734e-05
2019-07-01T19:19:06.979Z,-0.012291501,0.0037447105,-0.2027444,-0.024414062,-0.25219727,9.803146,-5.5664062,16.68396,-43.222046,-0.023037601,-0.25094062,9.803412,-0.00089006685,0.00038602948,-0.0016145706,9.1552734e-05,-6.1035156e-05,-0.00021362305
2019-07-01T19:19:07.179Z,-0.012299253,0.0037833825,-0.20284781,-0.022491455,-0.24957275,9.804108,-5.722046,16.74347,-42.674255,-0.02372289,-0.2512457,9.803403,-0.0009217281,-0.0004962683,0.00020694733,-9.1552734e-05,6.1035156e-05,-0.00015258789
2019-07-01T19:19:07.375Z,-0.0122698005,0.0037545168,-0.20275794,-0.024642944,-0.24957275,9.801727,-5.844116,15.861511,-43.074036,-0.023308767,-0.25056323,9.803421,0.0010458101,0.0009863675,0.0010919571,0.00015258789,6.1035156e-05,9.1552734e-05
2019-07-01T19:19:07.629Z,-0.012230743,0.0037744183,-0.20278811,-0.023925781,-0.25004578,9.8029175,-5.378723,15.684509,-44.56482,-0.023838608,-0.24989316,9.803437,-0.0008061901,0.0005450994,-0.0011911392,0.00021362305,0.0,1.5258789e-05
2019-07-01T19:19:07.828Z,-0.012250769,0.0037603832,-0.20276281,-0.022735596,-0.2534027,9.805313,-6.588745,15.679932,-44.74182,-0.023495883,-0.25022125,9.80343,4.2289495e-05,-0.0012677312,0.0007972717,9.1552734e-05,-6.1035156e-05,-0.00010681152
2019-07-01T19:19:08.030Z,-0.012281474,0.0037658333,-0.20279324,-0.021530151,-0.25076294,9.8022,-5.1345825,15.696716,-44.117737,-0.023470609,-0.2508332,9.803413,0.00026240014,-0.0011307895,0.0010108948,-3.0517578e-05,6.1035156e-05,-3.0517578e-05
2019-07-01T19:19:08.231Z,-0.012307403,0.0037283828,-0.20271099,-0.024887085,-0.25315857,9.804825,-5.4260254,16.331482,-43.75,-0.02266936,-0.25118026,9.803407,0.0016117673,-0.0007932782,-0.0007619858,3.0517578e-05,0.0,-3.0517578e-05
2019-07-01T19:19:08.432Z,-0.012321425,0.0037715673,-0.20282936,-0.02130127,-0.25028992,9.802444,-7.055664,15.859985,-43.85376,-0.023412501,-0.251624,9.803393,-0.0017173085,-0.0010463297,0.0015554428,9.1552734e-05,-0.00012207031,0.00019836426
2019-07-01T19:19:08.638Z,-0.012303346,0.0037215455,-0.20269126,-0.023452759,-0.24909973,9.802429,-5.1712036,15.122986,-45.516968,-0.022559244,-0.25107473,9.80341,0.0015015248,0.0010223985,-0.0016698837,-3.0517578e-05,0.0,0.00019836426
2019-07-01T19:19:08.838Z,-0.012280445,0.0037368054,-0.20271818,-0.024887085,-0.25053406,9.802673,-5.6793213,16.17279,-44.300842,-0.02293647,-0.25069624,9.803417,-0.0005171001,0.0011146069,-0.00015354156,-0.00021362305,0.0,-3.0517578e-05
2019-07-01T19:19:09.035Z,-0.012282642,0.003763752,-0.20278852,-0.023208618,-0.25053406,9.8033905,-5.545044,15.751648,-45.298767,-0.023427203,-0.25084725,9.803413,-0.0012176614,0.00078091025,-0.00089740753,-9.1552734e-05,0.0,-0.00010681152
2019-07-01T19:19:09.242Z,-0.012258547,0.0037628987,-0.20277344,-0.022979736,-0.25053406,9.802444,-5.152893,15.409851,-44.7052,-0.023510532,-0.25038087,9.803426,5.7019293e-05,0.0005559623,0.0009965897,-3.0517578e-05,0.0,-9.1552734e-05
2019-07-01T19:19:09.439Z,-0.012293063,0.0037602982,-0.20278524,-0.023925781,-0.25053406,9.803146,-5.7678223,15.948486,-44.117737,-0.023320258,-0.25103354,9.803409,0.00058341585,-0.0007041395,-0.00043964386,-9.1552734e-05,-6.1035156e-05,-0.00015258789
2019-07-01T19:19:09.658Z,-0.0122771,0.0037818416,-0.20283198,-0.024642944,-0.25100708,9.805313,-5.54657,17.27295,-44.007874,-0.023785505,-0.25081384,9.803413,-0.0011016838,0.00076696277,0.0009813309,-0.00015258789,0.00012207031,-3.0517578e-05
2019-07-01T19:19:09.912Z,-0.012288493,0.0037912163,-0.20286216,-0.024642944,-0.25291443,9.8029175,-5.9890747,16.29181,-43.432617,-0.023912467,-0.25107062,9.803407,-0.0002573412,6.4730644e-05,0.00018119812,3.0517578e-05,-6.1035156e-05,-3.0517578e-05
2019-07-01T19:19:10.054Z,-0.012313932,0.0038137706,-0.20293367,-0.024642944,-0.25172424,9.801956,-5.445862,15.969849,-44.125366,-0.024225965,-0.25165054,9.8033905,-0.0004168637,-0.0017509758,-4.673004e-05,3.0517578e-05,6.1035156e-05,-0.00033569336
2019-07-01T19:19:10.255Z,-0.012308289,0.0038198063,-0.20294614,-0.022735596,-0.25004578,9.804596,-6.642151,16.255188,-44.24591,-0.024361128,-0.25156653,9.803392,-0.00028293952,0.0005478561,-0.0009841919,-0.00015258789,-6.1035156e-05,-3.0517578e-05
2019-07-01T19:19:10.462Z,-0.012307043,0.003786124,-0.20285901,-0.022247314,-0.25268555,9.8022,-5.8135986,16.668701,-43.666077,-0.023741655,-0.25140646,9.803398,0.0007621348,0.00087469816,0.0011081696,-0.00015258789,-6.1035156e-05,-0.00015258789
2019-07-01T19:19:10.665Z,-0.012337084,0.003762072,-0.20281337,-0.022018433,-0.25196838,9.802673,-6.3171387,16.200256,-43.740845,-0.023171963,-0.25188652,9.803388,0.0011519808,-9.8735094e-05,-0.0014925003,-0.00015258789,6.1035156e-05,3.0517578e-05
2019-07-01T19:19:10.863Z,-0.012346346,0.003755737,-0.20280206,-0.024169922,-0.25483704,9.801712,-5.5267334,15.966797,-44.499207,-0.02212787,-0.25173223,9.803393,0.0013140384,0.00071555376,0.00061511993,-9.1552734e-05,-0.00016784668,7.6293945e-05
2019-07-01T19:19:11.063Z,-0.012369037,0.0037626242,-0.2028319,-0.023925781,-0.24765015,9.803635,-5.41687,16.781616,-45.01953,-0.023050657,-0.25250268,9.803372,-0.0015939437,-0.0018794835,-0.00071144104,3.0517578e-05,0.0,0.00019836426
2019-07-01T19:19:11.269Z,-0.012305354,0.0037728841,-0.20282413,-0.024887085,-0.25100708,9.804108,-4.0771484,15.911865,-43.588257,-0.023503084,-0.2513205,9.803401,-0.0011404678,0.0024584234,0.00096035004,3.0517578e-05,-6.1035156e-05,0.0001373291
2019-07-01T19:19:11.468Z,-0.012294668,0.0037697856,-0.20281045,-0.022018433,-0.25172424,9.800766,-5.0689697,17.082214,-43.46161,-0.023489607,-0.2511027,9.803407,3.565848e-05,0.00080004334,-0.00046539307,-3.0517578e-05,6.1035156e-05,7.6293945e-05
2019-07-01T19:19:11.673Z,-0.012309796,0.0037598195,-0.20279297,-0.022018433,-0.2514801,9.8033905,-6.037903,16.867065,-42.785645,-0.023242518,-0.2513531,9.803401,0.00026143529,-0.0006145835,-0.00015926361,3.0517578e-05,-6.1035156e-05,-9.1552734e-05
2019-07-01T19:19:11.875Z,-0.012312482,0.0037297683,-0.20271726,-0.022735596,-0.25100708,9.804108,-5.01709,16.505432,-43.884277,-0.022674162,-0.25128344,9.803404,0.0008984227,0.0002603233,-0.00010585785,3.0517578e-05,0.0,-0.00010681152
2019-07-01T19:19:12.078Z,-0.012299351,0.0037408294,-0.20273863,-0.02368164,-0.25268555,9.804108,-5.908203,16.375732,-44.17572,-0.02293332,-0.25107577,9.803409,-0.00027646683,5.5879354e-05,0.0002527237,3.0517578e-05,0.0,7.6293945e-05
2019-07-01T19:19:12.281Z,-0.012335179,0.0037490076,-0.2027788,-0.020812988,-0.24980164,9.803162,-6.1065674,17.156982,-43.025208,-0.022937538,-0.25179717,9.80339,-2.6574358e-05,-0.0013573766,0.0012788773,-9.1552734e-05,0.0,-0.0002746582
2019-07-01T19:19:12.481Z,-0.01230861,0.0037047158,-0.20265087,-0.020339966,-0.25196838,9.801483,-5.2352905,17.074585,-43.98346,-0.022225475,-0.251108,9.80341,0.0014115926,0.0015251338,-0.0010585785,9.1552734e-05,0.0,-9.1552734e-05
2019-07-01T19:19:12.688Z,-0.012331083,0.0036797258,-0.20259874,-0.023208618,-0.25196838,9.804596,-5.9310913,16.090393,-45.140076,-0.021669596,-0.25143906,9.803402,0.0010845605,-0.0005401075,-6.389618e-05,-3.0517578e-05,0.0,-0.00021362305
2019-07-01T19:19:12.894Z,-0.012339157,0.0037133396,-0.20268936,-0.024642944,-0.25053406,9.800995,-6.2835693,17.00592,-44.032288,-0.022259748,-0.2517297,9.803393,-0.00094912574,-0.0007146001,0.0005979538,-0.00015258789,0.0,7.6293945e-05
2019-07-01T19:19:13.097Z,-0.012306325,0.0037445931,-0.20275202,-0.023208618,-0.24909973,9.801727,-4.7546387,16.885376,-43.515015,-0.022974422,-0.25122496,9.803405,-0.0019141845,0.0013914406,-0.0010433197,3.0517578e-05,6.1035156e-05,-0.0002746582
2019-07-01T19:19:13.295Z,-0.012265363,0.0037394927,-0.202717,-0.025604248,-0.25196838,9.801712,-5.921936,15.931702,-43.359375,-0.02304836,-0.25041732,9.803425,0.00030982308,0.001529783,-0.0011644363,9.1552734e-05,-6.1035156e-05,1.5258789e-05
2019-07-01T19:19:13.501Z,-0.012289981,0.0037825424,-0.20284069,-0.020095825,-0.25196838,9.803635,-5.621338,15.592957,-44.044495,-0.023745477,-0.25106415,9.803407,-0.001861725,-0.00188151,1.2397766e-05,0.00015258789,0.0,1.5258789e-05
2019-07-01T19:19:13.705Z,-0.0123078665,0.003720641,-0.20269136,-0.023208618,-0.25125122,9.805786,-6.083679,16.149902,-44.517517,-0.022523876,-0.25115794,9.803408,0.0028997436,-0.00033697486,0.0012788773,-9.1552734e-05,0.00012207031,-0.00039672852
2019-07-01T19:19:13.909Z,-0.012307336,0.0037365546,-0.20273194,-0.021774292,-0.25076294,9.803162,-5.0598145,15.632629,-44.511414,-0.02282119,-0.25121194,9.803406,-0.00063117966,0.0002091527,0.001496315,3.0517578e-05,6.1035156e-05,-0.00021362305
2019-07-01T19:19:14.105Z,-0.012301635,0.0037376985,-0.20273182,-0.022735596,-0.25411987,9.804352,-4.9194336,15.205383,-44.67926,-0.02286586,-0.251107,9.803408,0.00037447177,0.000100672245,-0.0002746582,-3.0517578e-05,0.0,-3.0517578e-05
2019-07-01T19:19:14.311Z,-0.01235431,0.0037208558,-0.20271677,-0.0236969,-0.2505188,9.803635,-6.0577393,16.653442,-43.811035,-0.022336785,-0.25205114,9.803385,0.0005642064,-0.0018052459,0.0014047623,-3.0517578e-05,-6.1035156e-05,-0.00015258789
2019-07-01T19:19:14.515Z,-0.012316901,0.0037458425,-0.20276089,-0.023925781,-0.25004578,9.801956,-6.5719604,16.041565,-44.59381,-0.022954075,-0.25143322,9.8034,-0.001459593,0.0011476278,-0.0011396408,3.0517578e-05,-0.00012207031,7.6293945e-05
2019-07-01T19:19:14.715Z,-0.012301498,0.0037553043,-0.20277694,-0.022979736,-0.25172424,9.801239,-6.1035156,15.559387,-43.80493,-0.02319293,-0.25117546,9.803406,-0.00073297694,0.00041118264,-0.00043582916,-3.0517578e-05,0.0,-0.0002746582
2019-07-01T19:19:14.922Z,-0.012306733,0.0037646848,-0.20280382,-0.022979736,-0.25219727,9.806992,-5.644226,17.053223,-44.877625,-0.023345347,-0.25131392,9.803402,0.00013721362,-0.00040510297,0.00050258636,0.00015258789,0.00012207031,-0.0002746582
2019-07-01T19:19:15.124Z,-0.012320814,0.0037394662,-0.20274661,-0.022735596,-0.25219727,9.804352,-6.3049316,16.567993,-44.270325,-0.022819728,-0.25148267,9.803399,0.0010466892,-0.00047191978,0.00065898895,-3.0517578e-05,0.0,1.5258789e-05
2019-07-01T19:19:15.329Z,-0.012328612,0.003773846,-0.20283906,-0.0236969,-0.2534027,9.804352,-4.4692993,16.40625,-45.210266,-0.023425171,-0.25177127,9.80339,-0.0012176502,-0.0006687939,-0.0009965897,0.00015258789,-6.1035156e-05,-3.0517578e-05
2019-07-01T19:19:15.534Z,-0.012346908,0.0037525287,-0.20279413,-0.022964478,-0.25100708,9.803162,-5.503845,16.477966,-44.3985,-0.022954559,-0.25203675,9.803384,0.0004635863,-0.0008876622,0.00028896332,-9.1552734e-05,-6.1035156e-05,-0.00010681152
2019-07-01T19:19:15.733Z,-0.012338757,0.0037506076,-0.20278484,-0.021530151,-0.25125122,9.804596,-5.357361,16.119385,-44.099426,-0.022952484,-0.25187236,9.803388,0.00046302192,0.00041413307,0.0013027191,9.1552734e-05,0.00012207031,-0.00015258789
2019-07-01T19:19:15.937Z,-0.012322651,0.0037465917,-0.2027659,-0.022491455,-0.25268555,9.804596,-4.8080444,15.791321,-44.036865,-0.022944301,-0.2515467,9.803396,0.0004539881,7.9125166e-05,-0.00072288513,9.1552734e-05,0.00012207031,-0.0005187988
2019-07-01T19:19:16.140Z,-0.012326573,0.0037298538,-0.20272502,-0.021057129,-0.25028992,9.804108,-5.383301,15.612793,-44.729614,-0.022617772,-0.25155452,9.803397,0.0010892879,9.295344e-05,0.00047588348,0.00015258789,0.00018310547,-0.00033569336
2019-07-01T19:19:16.341Z,-0.012336299,0.003724765,-0.20271717,-0.023925781,-0.2524414,9.806274,-5.482483,16.836548,-43.644714,-0.02248338,-0.25172085,9.803392,0.00071130134,-0.0006957948,0.00046730042,-9.1552734e-05,-6.1035156e-05,-0.00010681152
2019-07-01T19:19:16.542Z,-0.012311742,0.003740491,-0.2027444,-0.022262573,-0.25053406,9.80101,-5.517578,16.334534,-44.87915,-0.022876063,-0.2513125,9.803403,-0.00081508793,0.001329869,0.0030326843,-0.00021362305,6.1035156e-05,-0.00022888184
2019-07-01T19:19:16.749Z,-0.01234606,0.0037497594,-0.20278656,-0.024887085,-0.2534027,9.804108,-5.532837,15.9713745,-45.17975,-0.0229067,-0.25200927,9.803385,0.00017086603,-0.00090777874,-0.005156517,3.0517578e-05,6.1035156e-05,-0.0002746582
2019-07-01T19:19:16.947Z,-0.01232493,0.0037760753,-0.2028428,-0.0236969,-0.25053406,9.803879,-5.534363,15.744019,-44.166565,-0.02348167,-0.25170955,9.803391,-0.0011606775,0.0004647076,0.00071144104,3.0517578e-05,6.1035156e-05,-0.00015258789
2019-07-01T19:19:17.151Z,-0.012299239,0.0037780148,-0.20283403,-0.025360107,-0.24789429,9.803879,-5.683899,15.873718,-43.304443,-0.023623401,-0.25122374,9.803403,-0.00030469894,0.0011533201,-0.0023927689,3.0517578e-05,0.0,-9.1552734e-05
2019-07-01T19:19:17.350Z,-0.012260506,0.003791367,-0.20284756,-0.0236969,-0.2498169,9.8029175,-4.4448853,16.687012,-43.64319,-0.024030475,-0.25053346,9.803419,0.00033255294,-0.00024011731,-0.0008029938,-0.00015258789,0.0,-4.5776367e-05
2019-07-01T19:19:17.557Z,-0.012255643,0.003802235,-0.20287284,-0.020095825,-0.25291443,9.805069,-5.7647705,16.17279,-44.976807,-0.024252066,-0.25048396,9.803421,-0.00016191974,0.00019481778,0.00090026855,3.0517578e-05,7.6293945e-05,-0.00021362305
2019-07-01T19:19:17.761Z,-0.012314356,0.003731761,-0.20272338,-0.023208618,-0.25100708,9.805069,-5.793762,15.438843,-44.522095,-0.022703405,-0.25132748,9.803403,0.0030812193,-0.0015801191,0.0004386902,-9.1552734e-05,0.0,-0.00010681152
2019-07-01T19:19:17.961Z,-0.01233347,0.003740926,-0.20275715,-0.021057129,-0.25219727,9.8022,-5.848694,16.018677,-44.55414,-0.022794716,-0.25173172,9.803392,-0.0006576367,0.00025612116,-0.00017642975,-0.00015258789,-6.1035156e-05,-9.1552734e-05
2019-07-01T19:19:18.163Z,-0.012334884,0.003684336,-0.20261261,-0.0236969,-0.25172424,9.803162,-6.074524,16.21399,-43.52112,-0.021739468,-0.25153068,9.8034,0.0018729474,0.00028434396,4.386902e-05,3.0517578e-05,-0.00016784668,-3.0517578e-05
2019-07-01T19:19:18.364Z,-0.012345151,0.003743125,-0.20276904,-0.022491455,-0.2505188,9.8029175,-5.2001953,16.133118,-44.631958,-0.022787416,-0.25196502,9.803386,-0.0025732927,-0.00072720647,-0.00092601776,-3.0517578e-05,0.0,7.6293945e-05
2019-07-01T19:19:18.566Z,-0.01231064,0.0037214865,-0.20269501,-0.022964478,-0.25028992,9.804825,-5.6030273,15.957642,-43.89496,-0.022528151,-0.25121465,9.803407,0.00050873496,0.0011579096,-0.00030517578,9.1552734e-05,0.0,-0.00015258789
2019-07-01T19:19:18.773Z,-0.012291503,0.0037206972,-0.20268275,-0.024169922,-0.25221252,9.802444,-5.958557,15.356445,-44.606018,-0.022592228,-0.25084376,9.803415,0.00010192022,0.0008107126,0.0018730164,-9.1552734e-05,-6.1035156e-05,-9.1552734e-05
2019-07-01T19:19:18.981Z,-0.012322448,0.003755722,-0.20278923,-0.024169922,-0.25100708,9.803162,-6.2469482,15.910339,-43.499756,-0.023114452,-0.25157967,9.803395,-0.0015280508,-0.0015740991,-0.000664711,-3.0517578e-05,-0.00016784668,7.6293945e-05
2019-07-01T19:19:19.176Z,-0.01228778,0.0037472248,-0.20274885,-0.021774292,-0.25076294,9.8029175,-5.2749634,16.278076,-44.673157,-0.023099544,-0.25087926,9.803413,-0.00059787,0.0017739534,-0.0007658005,-9.1552734e-05,-0.00016784668,9.1552734e-05
2019-07-01T19:19:19.379Z,-0.012330652,0.0037417973,-0.20275788,-0.024414062,-0.25196838,9.801956,-6.0684204,16.513062,-44.444275,-0.022822468,-0.2516811,9.803393,8.600019e-05,-0.0012429655,-0.0003452301,-9.1552734e-05,0.0,7.6293945e-05
2019-07-01T19:19:19.580Z,-0.012297122,0.0037585981,-0.20278305,-0.024398804,-0.2514801,9.8033905,-4.7821045,16.453552,-44.58313,-0.023272028,-0.25110468,9.803408,-0.0006547384,0.0003311038,-7.43866e-05,0.00045776367,6.1035156e-05,0.0001373291
2019-07-01T19:19:19.791Z,-0.012295949,0.0037873276,-0.20285617,-0.023925781,-0.25387573,9.803162,-5.003357,16.7984,-43.748474,-0.023809649,-0.25119817,9.803404,-0.00083395094,-0.0012501478,0.0002565384,9.1552734e-05,6.1035156e-05,1.5258789e-05
2019-07-01T19:19:20.054Z,-0.012331558,0.0037888337,-0.2028791,-0.021530151,-0.25125122,9.803879,-6.0684204,16.513062,-44.444275,-0.023690963,-0.25188845,9.803387,0.0002379939,-0.0012723505,0.00033473969,-9.1552734e-05,6.1035156e-05,-3.0517578e-05
2019-07-01T19:19:20.249Z,-0.012340409,0.0037649013,-0.20282242,-0.025848389,-0.2514801,9.802444,-5.97229,16.505432,-42.63611,-0.023210743,-0.25196183,9.803386,0.00094708987,0.0002258718,-0.00072956085,-9.1552734e-05,0.0,-9.1552734e-05
2019-07-01T19:19:20.452Z,-0.012312403,0.003810381,-0.20292415,-0.023925781,-0.25125122,9.8022,-5.7388306,16.60614,-43.984985,-0.024169406,-0.25160745,9.803391,-0.0019092187,0.0008304119,-0.00016975403,3.0517578e-05,-0.00012207031,0.00019836426
2019-07-01T19:19:20.651Z,-0.012319178,0.0037777952,-0.20284414,-0.024887085,-0.24932861,9.805542,-6.3415527,15.766907,-44.432068,-0.023537247,-0.251606,9.803394,0.00080058165,0.00011447072,0.00021266937,-9.1552734e-05,0.0,1.5258789e-05
2019-07-01T19:19:20.854Z,-0.012292876,0.0038220424,-0.20294362,-0.023208618,-0.25268555,9.807465,-5.001831,16.947937,-44.474792,-0.02446608,-0.25127944,9.8034,-0.0016111527,0.0007457733,0.0009365082,3.0517578e-05,6.1035156e-05,0.00019836426
2019-07-01T19:19:21.058Z,-0.012288491,0.0037812248,-0.2028365,-0.023208618,-0.24885559,9.802673,-5.8303833,16.381836,-44.326782,-0.023727175,-0.25103024,9.803409,0.001712611,6.4104795e-05,0.0031747818,9.1552734e-05,6.1035156e-05,-9.1552734e-05
2019-07-01T19:19:21.261Z,-0.012257439,0.0037819562,-0.20282175,-0.023208618,-0.2545929,9.804108,-5.899048,16.668701,-44.192505,-0.023868553,-0.25043654,9.803423,0.00018869527,0.00088247657,-0.0017108917,0.0002746582,0.00012207031,-3.0517578e-05
2019-07-01T19:19:21.457Z,-0.012283603,0.0037929264,-0.20286392,-0.025604248,-0.25028992,9.804825,-6.324768,16.207886,-44.796753,-0.023964316,-0.25098357,9.803409,0.00026943162,-0.002626896,0.000118255615,0.00021362305,6.1035156e-05,7.6293945e-05
2019-07-01T19:19:21.677Z,-0.012279833,0.003821615,-0.20293553,-0.02130127,-0.25004578,9.802429,-7.687378,16.261292,-44.578552,-0.024511876,-0.25102708,9.803406,-0.0008462649,-0.0002039969,-8.4877014e-05,-3.0517578e-05,0.00012207031,0.0001373291
2019-07-01T19:19:21.869Z,-0.012264371,0.0037905315,-0.20284748,-0.024414062,-0.2514801,9.803635,-6.541443,16.622925,-43.797302,-0.023999073,-0.25060436,9.803418,-0.00088734366,0.00032141805,-0.0003004074,-3.0517578e-05,0.00018310547,1.5258789e-05
2019-07-01T19:19:22.083Z,-0.012281325,0.0037932275,-0.20286347,-0.023452759,-0.25100708,9.804596,-6.123352,15.348816,-45.20569,-0.023979276,-0.250941,9.80341,-0.00019039586,-0.00030758977,-0.00034999847,-3.0517578e-05,-6.1035156e-05,1.5258789e-05
2019-07-01T19:19:22.279Z,-0.012276916,0.003786939,-0.20284498,-0.024642944,-0.25028992,9.8033905,-6.227112,16.653442,-45.088196,-0.0238808,-0.2508309,9.803412,0.00018540211,0.00031259656,0.001039505,-3.0517578e-05,-6.1035156e-05,-9.1552734e-05
2019-07-01T19:19:22.533Z,-0.012280857,0.0037717817,-0.20280819,-0.022735596,-0.25268555,9.804352,-5.302429,15.692139,-44.943237,-0.023583468,-0.2508454,9.803413,0.00013206527,0.0003257692,-9.8228455e-05,-0.00021362305,0.0,1.5258789e-05
2019-07-01T19:19:22.732Z,-0.012320407,0.0037823778,-0.20285656,-0.023452759,-0.2536316,9.806747,-6.3446045,15.615845,-44.085693,-0.023617161,-0.2516481,9.803392,0.0004100427,-0.0010214746,9.250641e-05,-9.1552734e-05,-6.1035156e-05,0.0001373291
2019-07-01T19:19:22.932Z,-0.012365735,0.0037737417,-0.20285867,-0.022247314,-0.25315857,9.802673,-5.130005,16.075134,-45.62683,-0.023270385,-0.25248414,9.803372,6.488338e-05,-0.001357764,0.0013456345,-3.0517578e-05,-6.1035156e-05,0.0001373291
2019-07-01T19:19:23.133Z,-0.012376273,0.0037493643,-0.20280173,-0.0236969,-0.25125122,9.804352,-5.2749634,16.351318,-44.885254,-0.022775004,-0.25258815,9.8033695,0.00075880997,-7.2568655e-05,-0.0006990433,-3.0517578e-05,0.0,1.5258789e-05
2019-07-01T19:19:23.336Z,-0.012355038,0.0037650852,-0.20283072,-0.022247314,-0.25172424,9.804825,-5.1086426,16.511536,-45.3125,-0.023153922,-0.25224364,9.803378,-5.1865354e-05,0.0007944107,0.0004911423,-9.1552734e-05,0.00018310547,-3.0517578e-05
2019-07-01T19:19:23.544Z,-0.01233856,0.0037708017,-0.20283657,-0.021057129,-0.2498169,9.805542,-6.0058594,16.079712,-44.60907,-0.02332776,-0.25195014,9.803386,0.0001212284,0.0007214844,-0.0006275177,9.1552734e-05,0.00012207031,-3.0517578e-05
2019-07-01T19:19:23.744Z,-0.012317044,0.0037205194,-0.20269597,-0.022247314,-0.25004578,9.80603,-4.550171,16.098022,-43.684387,-0.022483869,-0.25133377,9.803403,0.0016743783,0.0010829866,0.0013303757,-3.0517578e-05,0.0,-0.00035095215
2019-07-01T19:19:23.945Z,-0.012289144,0.0037136644,-0.20266344,-0.023925781,-0.25172424,9.805786,-4.672241,17.037964,-43.789673,-0.022471493,-0.25077006,9.803417,-1.5841797e-05,0.0009991527,0.00057029724,9.1552734e-05,-6.1035156e-05,-9.1552734e-05
2019-07-01T19:19:24.151Z,-0.012289765,0.003735394,-0.20271954,-0.0236969,-0.25053406,9.804825,-5.1361084,15.776062,-44.631958,-0.022871954,-0.25086966,9.803414,-0.00057595596,-0.00080141425,0.0005378723,0.00021362305,0.00012207031,-0.00021362305
2019-07-01T19:19:24.350Z,-0.01226571,0.0037525697,-0.20275076,-0.020812988,-0.25053406,9.805557,-5.49469,16.77246,-44.639587,-0.02328948,-0.2504768,9.803424,-0.00015982985,0.00046813488,-0.0012407303,3.0517578e-05,0.00018310547,-0.00045776367
2019-07-01T19:19:24.552Z,-0.012298834,0.003723406,-0.20269363,-0.02130127,-0.2534027,9.8029175,-5.9066772,16.601562,-45.036316,-0.022612311,-0.25099552,9.803411,0.0010860618,-0.00092956424,0.00045490265,-9.1552734e-05,-0.00012207031,-0.00021362305
2019-07-01T19:19:24.757Z,-0.012340394,0.0037129368,-0.20268899,-0.021774292,-0.25196838,9.80603,-5.0186157,16.430664,-43.67218,-0.022247195,-0.25175184,9.803393,0.00047585554,-0.0013733208,-0.00081539154,3.0517578e-05,0.0,-0.00021362305
2019-07-01T19:19:24.959Z,-0.01231122,0.0036973378,-0.20263334,-0.022964478,-0.2534027,9.805786,-5.3848267,15.536499,-44.21692,-0.022077909,-0.2511284,9.80341,0.0007803682,0.00040787458,0.0007209778,0.0002746582,0.00012207031,-0.00015258789
2019-07-01T19:19:25.167Z,-0.012349564,0.003708635,-0.20268285,-0.021774292,-0.2529297,9.805542,-6.0546875,16.807556,-44.685364,-0.022129698,-0.2519107,9.80339,-0.00011346489,-0.00216192,0.00031280518,3.0517578e-05,0.0,-3.0517578e-05
2019-07-01T19:19:25.367Z,-0.012365908,0.00371931,-0.20271902,-0.022979736,-0.25004578,9.805069,-5.5160522,16.334534,-44.87915,-0.022260398,-0.25226775,9.803379,-0.00047057867,-0.0006096065,0.00037193298,-3.0517578e-05,-0.00016784668,0.0001373291
2019-07-01T19:19:25.564Z,-0.012337876,0.0037169643,-0.20269799,-0.023208618,-0.25172424,9.805069,-5.480957,15.24353,-44.726562,-0.02233224,-0.2517197,9.803394,7.345341e-05,0.0014724731,-0.0007047653,9.1552734e-05,0.00024414062,-0.0002746582
2019-07-01T19:19:25.768Z,-0.012310979,0.0037349171,-0.20272967,-0.023925781,-0.25291443,9.805069,-5.6915283,15.879822,-44.20929,-0.022775829,-0.2512753,9.803403,-0.0006730631,6.67572e-05,9.536743e-07,-3.0517578e-05,-0.00016784668,-0.00015258789
2019-07-01T19:19:25.971Z,-0.012332637,0.0037527457,-0.20278704,-0.022491455,-0.25268555,9.801712,-6.0516357,15.211487,-45.614624,-0.023017328,-0.25176343,9.803391,-0.0006752722,-0.00063094497,0.0003194809,-3.0517578e-05,0.00012207031,-0.00015258789
2019-07-01T19:19:26.175Z,-0.012352993,0.0037647448,-0.20282875,-0.023208618,-0.2514801,9.8033905,-5.4138184,16.854858,-45.228577,-0.023156032,-0.252203,9.80338,0.00017770194,-0.00069612265,-0.002491951,3.0517578e-05,0.00012207031,-0.00021362305
2019-07-01T19:19:26.380Z,-0.012349591,0.0037688545,-0.20283748,-0.022964478,-0.25053406,9.805069,-6.6726685,15.59906,-44.606018,-0.023246242,-0.2521542,9.80338,0.00026821345,-2.4527311e-05,0.00025081635,-9.1552734e-05,0.00012207031,-3.0517578e-05
2019-07-01T19:19:26.578Z,-0.012317144,0.0037609136,-0.20279971,-0.019622803,-0.2514801,9.799561,-5.999756,16.073608,-43.704224,-0.023232557,-0.25149873,9.803397,0.0007420201,0.00097462535,-0.0006389618,0.00015258789,0.00018310547,-0.00015258789
2019-07-01T19:19:26.779Z,-0.01234172,0.003705555,-0.20267075,-0.024169922,-0.25291443,9.803162,-5.517578,16.181946,-44.07959,-0.022104852,-0.25174755,9.803393,0.00033029355,-0.00045272708,0.0013208389,3.0517578e-05,-6.1035156e-05,9.1552734e-05
2019-07-01T19:19:26.982Z,-0.012357904,0.003737521,-0.20276149,-0.023925781,-0.25196838,9.8029175,-4.7592163,16.964722,-44.480896,-0.022631017,-0.25218743,9.803381,-0.0012956467,-0.0014539957,-0.00056934357,0.00021362305,0.0,1.5258789e-05
2019-07-01T19:19:27.195Z,-0.012325994,0.0037624582,-0.20280842,-0.021530151,-0.25172424,9.803879,-6.4819336,16.267395,-44.552612,-0.023224777,-0.25167498,9.803392,-0.001418585,0.00041922927,0.00041866302,3.0517578e-05,0.0,-3.0517578e-05
2019-07-01T19:19:27.392Z,-0.012337517,0.00372174,-0.20271005,-0.022262573,-0.25076294,9.804825,-5.94635,15.496826,-43.824768,-0.022422276,-0.25173208,9.803393,0.0020822342,-0.00071018934,0.0002746582,9.1552734e-05,0.00012207031,7.6293945e-05
2019-07-01T19:19:27.601Z,-0.012311467,0.0037340021,-0.20272759,-0.020584106,-0.24957275,9.802673,-6.414795,15.982056,-44.839478,-0.022756852,-0.25128102,9.803404,-0.00045091473,0.0010005236,0.0008249283,-3.0517578e-05,0.0,-0.00015258789
2019-07-01T19:19:27.825Z,-0.0122996345,0.0036796324,-0.20258167,-0.023452759,-0.25028992,9.804596,-6.2042236,16.783142,-42.947388,-0.021797169,-0.25083444,9.803417,0.0014575366,0.0010213554,-0.00040531158,3.0517578e-05,-0.00022888184,7.6293945e-05
2019-07-01T19:19:28.003Z,-0.012287157,0.0037019865,-0.2026324,-0.024414062,-0.25100708,9.802429,-6.2026978,16.783142,-42.871094,-0.022263078,-0.2506848,9.80342,-0.0011889357,0.00017437339,0.00035953522,9.1552734e-05,6.1035156e-05,-0.0002746582
2019-07-01T19:19:28.209Z,-0.012273593,0.0037461945,-0.20273861,-0.024887085,-0.25125122,9.803162,-5.305481,17.289734,-44.163513,-0.023138802,-0.2506025,9.80342,-0.0017483402,-0.00040522218,-0.00072193146,9.1552734e-05,6.1035156e-05,-4.5776367e-05
2019-07-01T19:19:28.408Z,-0.012282212,0.0037877841,-0.20284998,-0.026321411,-0.24957275,9.804352,-4.701233,16.456604,-44.284058,-0.023874672,-0.2509361,9.803411,-0.001485873,-7.557869e-05,-0.00031375885,-0.00021362305,0.0,-3.0517578e-05
2019-07-01T19:19:28.610Z,-0.012259141,0.0038136852,-0.20290409,-0.022018433,-0.24909973,9.803879,-5.82428,16.377258,-43.574524,-0.024450028,-0.25059745,9.803417,-0.0011543594,0.0012674034,0.00027370453,-0.00015258789,-6.1035156e-05,7.6293945e-05
2019-07-01T19:19:28.817Z,-0.012252942,0.0037691987,-0.2027866,-0.022964478,-0.25172424,9.802444,-5.012512,16.50238,-43.50586,-0.023650447,-0.2502986,9.803427,0.0016314965,0.00072035193,-0.00029468536,-0.00015258789,0.0,0.00019836426
2019-07-01T19:19:29.018Z,-0.0122670885,0.0037685505,-0.20279251,-0.022979736,-0.25028992,9.804352,-6.2973022,16.714478,-44.091797,-0.023580205,-0.2505678,9.80342,0.00037179329,3.59416e-05,0.0006017685,9.1552734e-05,6.1035156e-05,-3.0517578e-05
2019-07-01T19:19:29.220Z,-0.012274601,0.0037554742,-0.20276298,-0.023452759,-0.24957275,9.802673,-4.634094,16.171265,-44.49463,-0.023306768,-0.25065932,9.803418,0.00032868423,-0.0008030236,0.0011997223,9.1552734e-05,0.0,0.0001373291
2019-07-01T19:19:29.419Z,-0.012252284,0.003740184,-0.20271178,-0.021530151,-0.25196838,9.806503,-5.8135986,16.822815,-44.615173,-0.023114985,-0.25016883,9.8034315,0.00062532537,0.000859648,0.00015830994,-3.0517578e-05,0.0,0.0002593994
2019-07-01T19:19:29.624Z,-0.012283905,0.0037274975,-0.20269614,-0.022018433,-0.25004578,9.8033905,-5.834961,16.386414,-44.854736,-0.022749608,-0.25072524,9.803419,0.00073273294,-0.0012259781,-0.00021076202,3.0517578e-05,-6.1035156e-05,-3.0517578e-05
2019-07-01T19:19:29.826Z,-0.012261744,0.0036893238,-0.2025863,-0.019622803,-0.24885559,9.800522,-5.9570312,17.098999,-43.94989,-0.022132698,-0.25014547,9.803434,0.0006031431,0.0012966096,-0.00078105927,-9.1552734e-05,-0.00012207031,0.0001373291
2019-07-01T19:19:30.029Z,-0.012289997,0.0036550406,-0.20251338,-0.022247314,-0.25076294,9.803879,-5.114746,16.212463,-44.39087,-0.021380667,-0.2505502,9.803426,0.0015133806,2.7388334e-05,-0.0008392334,-0.00015258789,0.0,0.0001373291
2019-07-01T19:19:30.234Z,-0.012290997,0.0036801267,-0.20257832,-0.022979736,-0.25291443,9.802444,-6.0012817,16.30249,-45.01648,-0.021841845,-0.2506705,9.803422,-0.00089488924,-0.00010553002,-0.00071048737,-3.0517578e-05,6.1035156e-05,0.0001373291
2019-07-01T19:19:30.435Z,-0.012322953,0.0037076767,-0.20266615,-0.022491455,-0.25053406,9.803635,-5.744934,16.459656,-44.166565,-0.022221388,-0.25139552,9.803402,-0.0007603578,-0.0013127625,-0.000787735,9.1552734e-05,0.0,-3.0517578e-05
2019-07-01T19:19:30.643Z,-0.012297242,0.0037073118,-0.20265146,-0.022735596,-0.25100708,9.803162,-4.63562,16.247559,-45.007324,-0.022320375,-0.25090003,9.803414,-0.00041605718,0.00084486604,0.0010604858,-3.0517578e-05,-0.00012207031,0.00032043457
2019-07-01T19:19:30.844Z,-0.012302786,0.003699127,-0.20263341,-0.022979736,-0.25172424,9.802673,-4.974365,15.708923,-44.273376,-0.022145769,-0.25097358,9.803413,0.00012695976,-0.000510782,0.00038814545,3.0517578e-05,-0.00012207031,-3.0517578e-05
2019-07-01T19:19:31.049Z,-0.012315421,0.0037297728,-0.20271885,-0.023208618,-0.25315857,9.804596,-4.423523,15.455627,-44.34662,-0.02266215,-0.25133994,9.803403,-0.0012638886,-0.00038713217,9.8228455e-05,9.1552734e-05,6.1035156e-05,7.6293945e-05
2019-07-01T19:19:31.252Z,-0.012329682,0.0037254924,-0.20271549,-0.021774292,-0.25028992,9.800995,-5.393982,15.393066,-44.699097,-0.022524096,-0.25159666,9.803396,0.0005051531,-0.0013387203,-0.0002565384,9.1552734e-05,6.1035156e-05,3.0517578e-05
2019-07-01T19:19:31.447Z,-0.012314717,0.0037220628,-0.20269868,-0.022491455,-0.25172424,9.802444,-4.800415,15.936279,-43.85681,-0.02252206,-0.2512953,9.803404,0.0002730973,0.0007428229,-0.0009737015,-0.00015258789,-6.1035156e-05,0.00019836426
2019-07-01T19:19:31.647Z,-0.012335445,0.0037260272,-0.20271996,-0.024887085,-0.25053406,9.803635,-4.849243,16.659546,-43.632507,-0.022510301,-0.25170955,9.803393,1.8298626e-05,-0.00026494265,0.00095272064,3.0517578e-05,6.1035156e-05,-3.0517578e-05
2019-07-01T19:19:31.852Z,-0.0122783715,0.0037770255,-0.2028203,-0.024414062,-0.25004578,9.801483,-5.407715,16.848755,-44.40155,-0.02369095,-0.2508188,9.803412,-0.0019152574,0.0012252927,-0.00111866,3.0517578e-05,0.00018310547,-0.00033569336
2019-07-01T19:19:32.067Z,-0.0122897895,0.0037708005,-0.20281045,-0.023925781,-0.25100708,9.800522,-5.7113647,15.519714,-44.810486,-0.02352851,-0.25101307,9.80341,0.00031723827,0.00045070052,-0.0005760193,-3.0517578e-05,6.1035156e-05,-3.0517578e-05
2019-07-01T19:19:32.266Z,-0.0122799305,0.0037928647,-0.2028618,-0.025604248,-0.24885559,9.803879,-5.378723,15.911865,-45.651245,-0.023978291,-0.25091276,9.803411,-0.0001949966,-0.00037369132,-0.00055122375,9.1552734e-05,0.00012207031,3.0517578e-05
2019-07-01T19:19:32.465Z,-0.012228221,0.0038193485,-0.20290206,-0.022018433,-0.25100708,9.8033905,-4.951477,16.448975,-45.33081,-0.024682378,-0.25002626,9.8034315,-0.0013970565,0.0013928711,0.0010633469,9.1552734e-05,-0.00012207031,7.6293945e-05
2019-07-01T19:19:32.669Z,-0.0122614065,0.0037721929,-0.20279881,-0.02607727,-0.25172424,9.803635,-6.033325,15.420532,-44.213867,-0.023671145,-0.25047332,9.803422,0.0014069956,-0.0010234416,0.00039196014,-9.1552734e-05,-6.1035156e-05,0.00032043457
2019-07-01T19:19:32.873Z,-0.012267722,0.003816616,-0.20291622,-0.025848389,-0.25315857,9.803162,-4.823303,15.501404,-44.247437,-0.024469046,-0.25077417,9.803412,-0.0011364818,-0.0004901588,0.00026226044,3.0517578e-05,6.1035156e-05,-0.00016784668
2019-07-01T19:19:33.075Z,-0.012291654,0.00382927,-0.20296152,-0.019866943,-0.2498169,9.804596,-5.66864,16.392517,-44.25659,-0.024605148,-0.25128517,9.803399,-3.7830323e-05,-0.001400739,0.0009660721,3.0517578e-05,0.0,1.5258789e-05
2019-07-01T19:19:33.276Z,-0.012301564,0.0037688727,-0.2028118,-0.021774292,-0.25076294,9.802673,-5.7647705,15.94696,-43.89038,-0.02344429,-0.25123152,9.803404,-7.3090196e-06,0.00048100948,0.00021839142,-3.0517578e-05,0.00012207031,1.5258789e-05
2019-07-01T19:19:33.481Z,-0.012316113,0.003750543,-0.20277254,-0.025604248,-0.2514801,9.801956,-5.415344,16.625977,-43.992615,-0.02304449,-0.25143704,9.803399,0.0007977523,-0.0002808869,-0.00048351288,-9.1552734e-05,-6.1035156e-05,-0.00010681152
2019-07-01T19:19:33.734Z,-0.012307759,0.0037858384,-0.20285867,-0.021057129,-0.25053406,9.803635,-5.7022095,15.586853,-44.11621,-0.023733411,-0.25141907,9.803398,-0.0013978072,0.00016790628,-0.00048351288,-3.0517578e-05,6.1035156e-05,-9.1552734e-05
2019-07-01T19:19:33.938Z,-0.012319006,0.0037529897,-0.20278037,-0.022247314,-0.24932861,9.804596,-5.2627563,17.93518,-42.29889,-0.023077954,-0.2515025,9.803398,0.0017748047,-0.00024220347,-0.0016050339,0.00015258789,0.00012207031,-0.00015258789
2019-07-01T19:19:34.140Z,-0.012248947,0.0037180756,-0.20265324,-0.022018433,-0.25125122,9.802673,-6.159973,16.215515,-44.422913,-0.022718625,-0.25001553,9.803436,0.0011880938,0.0021170676,0.0013237,0.00015258789,0.00012207031,0.0001373291
2019-07-01T19:19:34.342Z,-0.012273617,0.0037079412,-0.20264043,-0.022735596,-0.25125122,9.8033905,-5.8258057,16.453552,-44.08722,-0.022429202,-0.25044864,9.803426,0.00018327497,-0.0012601018,0.0015096664,0.00015258789,-0.00012207031,9.1552734e-05
2019-07-01T19:19:34.543Z,-0.012282105,0.0037071211,-0.20264287,-0.0236969,-0.25004578,9.800995,-6.248474,16.064453,-44.677734,-0.022379084,-0.25060844,9.803422,0.000116515905,-0.0006427169,-0.0012245178,3.0517578e-05,0.0,0.0002593994
2019-07-01T19:19:34.747Z,-0.012255201,0.0037809021,-0.20281784,-0.027999878,-0.25076294,9.801727,-5.418396,14.884949,-45.103455,-0.023858218,-0.25038928,9.803424,-0.002219664,0.0005660057,-0.00049972534,3.0517578e-05,1.5258789e-05,0.00032043457
2019-07-01T19:19:34.945Z,-0.012248918,0.0037608144,-0.20276293,-0.004547119,-0.2514801,9.793579,-5.352783,16.114807,-43.569946,-0.023511492,-0.25018746,9.803431,-0.00018871762,0.00057950616,-0.002245903,-0.00015258789,0.00012207031,-9.1552734e-05
2019-07-01T19:19:35.149Z,-0.011988416,0.004470705,-0.20029843,0.13040161,0.19381714,10.44635,-4.7698975,14.923096,-44.519043,-0.038804352,-0.247911,9.803439,0.47212902,-0.11776674,-0.020809174,0.15208435,0.2756958,-0.62538147
2019-07-01T19:19:35.353Z,0.054986916,0.027803807,-0.32867068,0.66999817,-0.44386292,11.722443,-8.724976,12.765503,-44.41681,-0.86839455,0.83715767,9.732186,0.6112408,-0.63875747,0.84972,0.6409607,-0.33322144,-1.6796265
2019-07-01T19:19:35.599Z,-0.12012881,-0.07532828,-0.5850193,1.713501,-2.798645,10.71315,-27.580261,22.485352,-30.641174,2.5581515,-1.0171013,9.412319,-1.7861321,0.60509753,2.3557615,-2.6241302,-1.8776245,-1.8641663
2019-07-01T19:19:35.761Z,-0.31225777,0.102376215,-0.3662398,-1.4048309,-6.9059296,5.59993,-2.305603,43.95294,-16.130066,0.49496377,-6.067076,7.688692,1.1075381,2.7194495,2.348104,-2.4487457,1.6324921,3.1433105
2019-07-01T19:19:35.962Z,-0.4445202,0.30188406,-0.1500853,-3.7050476,-6.4139557,2.1061707,8.77533,45.869446,1.020813,-3.6052995,-8.124179,4.1436586,1.8552768,1.3943167,0.993392,-1.7654877,0.68252563,0.9169922
2019-07-01T19:19:36.162Z,-0.51466984,0.33825102,-0.08058175,-4.8294373,-7.4476624,2.2399292,11.14502,44.02008,5.986023,-4.3859086,-8.4457,2.3673491,0.5132823,1.877223,-0.32101345,-0.36244202,0.017303467,0.2540741
2019-07-01T19:19:36.368Z,-0.52390486,0.3479912,-0.05856626,-4.7028503,-7.795105,1.780014,9.62677,43.600464,9.509277,-4.689408,-8.365703,2.0481346,-0.22653818,0.77979946,0.223526,-0.3394165,0.029022217,-0.06283569
2019-07-01T19:19:36.566Z,-0.54875076,0.33479095,-0.061725475,-4.7358704,-8.316727,1.3464355,10.379028,43.927002,11.358643,-4.3492675,-8.623039,1.7021918,-0.40128565,0.68622875,0.038164854,-0.09831238,-0.08105469,-0.11885071
2019-07-01T19:19:36.769Z,-0.55009365,0.33787495,-0.052466515,-4.63179,-8.61058,1.2918854,9.916687,44.10553,12.774658,-4.4828925,-8.567893,1.6325623,-0.28303242,0.14812374,-0.30646515,-0.10850525,0.061706543,0.022735596
2019-07-01T19:19:36.974Z,-0.5482236,0.3408463,-0.06455092,-4.7645874,-8.781662,0.09260559,8.6883545,43.88733,11.494446,-4.393237,-8.614071,1.6332915,-0.28266048,-0.15669346,-0.36089683,0.03694153,0.08265686,-0.086120605
2019-07-01T19:19:37.177Z,-0.5578534,0.3510062,-0.07398059,-4.40567,-8.934326,0.8003998,8.848572,43.748474,11.839294,-4.3429155,-8.69795,1.2865194,-0.44124413,-0.16051865,-1.2517886,0.07505798,0.12890625,-0.0010223389
2019-07-01T19:19:37.379Z,-0.5495951,0.3596615,-0.08748267,-4.5554504,-8.598846,1.0983124,6.536865,42.65442,10.806274,-4.3402414,-8.690396,1.3452536,-0.1254549,-0.25445652,-0.41023767,0.0021209717,0.08644104,-0.08049011
2019-07-01T19:19:37.575Z,-0.55673903,0.356542,-0.09617305,-4.755966,-8.475143,1.2399597,7.0388794,43.052673,10.940552,-4.153236,-8.79762,1.2340579,-0.44669104,0.1362114,-0.120087504,0.036087036,0.006790161,0.03312683
