timestamp,rotationVector_x,rotationVector_y,rotationVector_z,accelerometer_x,accelerometer_y,accelerometer_z,magneticField_x,magneticField_y,magneticField_z,gravity_x,gravity_y,gravity_z,linearAcceleration_x,linearAcceleration_y,linearAcceleration_z,gyroscope_x,gyroscope_y,gyroscope_z
2019-07-01T19:21:20.821Z,-0.009389371,-0.0073207724,0.4975104,0.03302002,-0.23138428,9.800522,18.266296,26.437378,-93.80493,0.032921996,-0.23116782,9.80387,0.0008185692,0.0014382452,-0.0011501312,4.5776367e-05,-4.5776367e-05,0.00012207031
2019-07-01T19:21:21.021Z,-0.009380641,-0.0073163235,0.49749002,0.032302856,-0.23257446,9.802673,17.832947,25.831604,-94.4397,0.03293694,-0.23097517,9.803875,8.8807195e-05,-0.00022043288,-0.0014028549,0.000289917,7.6293945e-05,6.1035156e-05
2019-07-01T19:21:21.222Z,-0.009402179,-0.0073203132,0.4975253,0.034698486,-0.23210144,9.801239,17.965698,27.079773,-94.71893,0.032785214,-0.23138177,9.803865,-0.000232853,-0.00075753033,0.00018405914,-0.0001373291,7.6293945e-05,0.00012207031
2019-07-01T19:21:21.429Z,-0.009412502,-0.0073548127,0.49761224,0.033981323,-0.23330688,9.800995,18.359375,26.89209,-95.00122,0.03324808,-0.23189728,9.803851,0.0019294396,-0.00096327066,-0.00036621094,4.5776367e-05,0.00019836426,0.0
2019-07-01T19:21:21.631Z,-0.00941705,-0.0073664156,0.49764282,0.03541565,-0.22972107,9.8033905,19.236755,26.80664,-95.05463,0.03339288,-0.23208906,9.803847,0.00035155937,-0.00030693412,-0.00072193146,-1.5258789e-05,1.5258789e-05,0.00012207031
2019-07-01T19:21:21.828Z,-0.0093918415,-0.007380787,0.4976424,0.033493042,-0.23138428,9.801712,18.986511,26.341248,-93.855286,0.033883516,-0.2318005,9.803851,0.0012937002,0.0003771782,0.0009613037,0.00010681152,7.6293945e-05,6.1035156e-05
2019-07-01T19:21:22.032Z,-0.00937507,-0.0073758624,0.49761102,0.03302002,-0.23210144,9.803879,18.617249,27.11792,-93.98346,0.033971854,-0.23146598,9.80386,1.5769154e-05,0.00026765466,-0.00032901764,-1.5258789e-05,-0.00010681152,0.00018310547
2019-07-01T19:21:22.235Z,-0.009387546,-0.0073531056,0.4975776,0.03062439,-0.23114014,9.805069,18.927002,26.620483,-92.81464,0.033471894,-0.23145482,9.803862,-0.0011654496,4.5746565e-05,0.0015411377,-1.5258789e-05,-4.5776367e-05,0.00012207031
2019-07-01T19:21:22.437Z,-0.00940242,-0.0073177805,0.49752018,0.033737183,-0.23210144,9.8033905,19.329834,26.800537,-93.62335,0.032741144,-0.23136096,9.803865,-0.0016271807,0.00068467855,0.0013475418,-0.00019836426,1.5258789e-05,0.0
2019-07-01T19:21:22.641Z,-0.009437642,-0.007348723,0.49763036,0.029678345,-0.23066711,9.802444,18.344116,26.219177,-93.17322,0.032894246,-0.23226616,9.803844,0.00037099048,-0.0010483265,0.00011062622,-0.0001373291,-4.5776367e-05,6.1035156e-05
2019-07-01T19:21:22.844Z,-0.009417778,-0.007284704,0.49746814,0.032546997,-0.23042297,9.801239,18.153381,25.704956,-94.177246,0.032042477,-0.23129758,9.80387,-0.0016436316,0.001323536,-0.0013656616,0.00016784668,1.5258789e-05,0.00012207031
2019-07-01T19:21:23.055Z,-0.009386036,-0.0072738365,0.4974054,0.03326416,-0.22972107,9.8029175,17.938232,26.499939,-95.06378,0.032184042,-0.23064929,9.803885,-0.000120438635,0.0009084493,-0.0009126663,0.00016784668,1.5258789e-05,6.1035156e-05
2019-07-01T19:21:23.250Z,-0.009373897,-0.007282505,0.497409,0.03277588,-0.23042297,9.8033905,17.32788,25.515747,-95.46661,0.032449007,-0.23052745,9.803886,0.000819508,5.827844e-05,0.00034618378,4.5776367e-05,-4.5776367e-05,-0.00018310547
2019-07-01T19:21:23.460Z,-0.009367064,-0.007269238,0.497372,0.031585693,-0.22947693,9.8033905,17.767334,26.3443,-95.46661,0.0322998,-0.23028044,9.803893,-0.00023764744,-0.00016704202,0.00054073334,0.000289917,1.5258789e-05,6.1035156e-05
2019-07-01T19:21:23.655Z,-0.009342812,-0.007253204,0.49730745,0.032546997,-0.2328186,9.802673,18.771362,27.134705,-94.89288,0.032280724,-0.22970909,9.803906,2.3949891e-05,0.00070749223,0.000998497,-7.6293945e-05,1.5258789e-05,0.00012207031
2019-07-01T19:21:23.861Z,-0.009367499,-0.0072872583,0.49741125,0.033981323,-0.23066711,9.801483,18.824768,26.40686,-94.4397,0.032591697,-0.23046505,9.803887,0.0004316345,-0.0019039363,-0.00093460083,4.5776367e-05,-0.00010681152,-0.00024414062
2019-07-01T19:21:24.062Z,-0.009366587,-0.0073230513,0.49748704,0.034454346,-0.23091125,9.801956,18.533325,27.194214,-94.79675,0.03318934,-0.23080158,9.803877,0.0005517006,-0.00013650954,-0.00029277802,-0.0001373291,-4.5776367e-05,0.00016784668
2019-07-01T19:21:24.269Z,-0.00936641,-0.007371863,0.49759167,0.03326416,-0.23138428,9.8029175,19.151306,26.499939,-94.20624,0.033993505,-0.23127888,9.803864,0.0014280751,-0.0006340295,-0.0011587143,-1.5258789e-05,-4.5776367e-05,-0.00019836426
2019-07-01T19:21:24.470Z,-0.00937384,-0.0073411707,0.49753496,0.034210205,-0.23402405,9.804108,18.98346,26.191711,-93.507385,0.03341402,-0.2311036,9.80387,-0.0015791953,0.00063084066,0.0005121231,-7.6293945e-05,-0.00010681152,0.00024414062
2019-07-01T19:21:24.673Z,-0.009393002,-0.0073676878,0.4976157,0.034698486,-0.2311554,9.8029175,18.760681,26.53656,-92.90161,0.033656508,-0.23169138,9.803855,0.0008000247,-0.0018594563,0.0016069412,0.000289917,7.6293945e-05,6.1035156e-05
2019-07-01T19:21:24.872Z,-0.009388035,-0.007394006,0.49766606,0.036605835,-0.23210144,9.802673,19.038391,27.281189,-92.38129,0.034139194,-0.2318657,9.803849,0.0012795366,-0.00074495375,-0.0005197525,0.00010681152,7.6293945e-05,0.00024414062
2019-07-01T19:21:25.075Z,-0.009348785,-0.0074092075,0.49765,0.03302002,-0.22947693,9.801483,17.295837,26.300049,-93.71948,0.03478522,-0.23134585,9.80386,0.0015952289,0.00016720593,-0.00020122528,4.5776367e-05,7.6293945e-05,6.1035156e-05
2019-07-01T19:21:25.279Z,-0.00936673,-0.0073590092,0.49756446,0.031585693,-0.23066711,9.799561,17.816162,25.466919,-94.514465,0.03377899,-0.23115782,9.803866,-0.0017149709,0.00069853663,-0.0010881424,-1.5258789e-05,7.6293945e-05,0.0
2019-07-01T19:21:25.484Z,-0.009373438,-0.0073274598,0.497505,0.033493042,-0.2311554,9.801727,18.167114,26.300049,-95.41626,0.033192694,-0.2309618,9.803873,-0.0008825697,0.00024414062,-0.0012054443,4.5776367e-05,0.0001373291,-6.1035156e-05
2019-07-01T19:21:25.690Z,-0.009387292,-0.0073221684,0.49751082,0.03302002,-0.23330688,9.805069,17.837524,25.979614,-94.636536,0.03296593,-0.23114608,9.80387,6.2372535e-05,-0.0002962798,-0.00064086914,-7.6293945e-05,1.5258789e-05,6.1035156e-05
2019-07-01T19:21:25.886Z,-0.009398952,-0.0073435465,0.49757123,0.03326416,-0.2311554,9.803879,18.070984,25.852966,-95.35065,0.03319966,-0.23155531,9.80386,0.0005411543,-0.0010597408,0.002755165,0.00010681152,1.5258789e-05,0.0
2019-07-01T19:21:26.090Z,-0.009387155,-0.0073458333,0.49756148,0.03492737,-0.23258972,9.801727,18.867493,25.764465,-95.780945,0.0333563,-0.23137659,9.803864,0.00014106557,0.0001911968,-0.00039196014,4.5776367e-05,1.5258789e-05,-0.00012207031
2019-07-01T19:21:26.288Z,-0.009394058,-0.0073859845,0.49765632,0.032546997,-0.23114014,9.800766,18.86444,27.282715,-94.11011,0.033946563,-0.23188949,9.803849,0.0012289099,-0.0014444888,0.00021362305,4.5776367e-05,-0.00010681152,0.0
2019-07-01T19:21:26.489Z,-0.009393331,-0.0073412666,0.49755934,0.032302856,-0.23330688,9.803635,18.59436,26.760864,-94.885254,0.033218917,-0.23143697,9.803862,-0.001872316,0.0009788424,-0.0006608963,4.5776367e-05,1.5258789e-05,0.00012207031
2019-07-01T19:21:26.691Z,-0.009426587,-0.0073417206,0.4976016,0.034225464,-0.2318573,9.803879,19.770813,25.959778,-94.41681,0.03347682,-0.23143092,9.803863,0.0016989298,0.0012075156,0.0002965927,4.5776367e-05,3.0517578e-05,6.1035156e-05
2019-07-01T19:21:26.902Z,-0.009372046,-0.0073709046,0.4975966,0.03277588,-0.23330688,9.804825,18.49823,26.237488,-93.933105,0.03392088,-0.2313656,9.803863,-0.00017975271,-0.00028970838,0.00019550323,-7.6293945e-05,-0.00021362305,6.1035156e-05
2019-07-01T19:21:27.104Z,-0.009417031,-0.007383707,0.49767992,0.03326416,-0.23258972,9.802444,19.818115,26.829529,-93.33649,0.03367723,-0.23225892,9.803842,-0.00041190535,-0.001529023,0.0015668869,-1.5258789e-05,-4.5776367e-05,-7.6293945e-05
2019-07-01T19:21:27.305Z,-0.009405302,-0.0073863594,0.49767107,0.033737183,-0.23091125,9.800522,19.477844,26.441956,-93.325806,0.03383922,-0.23208494,9.803844,-9.8805875e-05,0.00043438375,-0.0011825562,-1.5258789e-05,-4.5776367e-05,0.00012207031
2019-07-01T19:21:27.515Z,-0.009398687,-0.00735494,0.49759537,0.029907227,-0.23162842,9.800766,16.9693,26.20697,-93.722534,0.033389606,-0.23166288,9.803856,-0.00036394224,0.0004683435,-0.0014333725,4.5776367e-05,0.00019836426,0.00018310547
2019-07-01T19:21:27.711Z,-0.009419485,-0.007305302,0.49751455,0.03326416,-0.23138428,9.801956,17.76123,25.816345,-93.46008,0.03236384,-0.2315293,9.803864,-0.0022064485,0.00010192394,-0.00032615662,4.5776367e-05,-4.5776367e-05,0.00012207031
2019-07-01T19:21:27.914Z,-0.009397986,-0.0073336926,0.49754885,0.034942627,-0.2328186,9.801712,18.515015,25.00763,-95.31555,0.033047445,-0.2314419,9.803864,0.0011845268,-0.00023210049,-0.00022029877,0.00016784668,-4.5776367e-05,-0.00018310547
2019-07-01T19:21:28.118Z,-0.009409527,-0.0073639126,0.4976281,0.033981323,-0.23091125,9.802673,18.458557,25.58899,-95.34607,0.033427667,-0.23193611,9.80385,0.00103347,-0.00092960894,-0.00014686584,4.5776367e-05,1.5258789e-05,-6.1035156e-05
2019-07-01T19:21:28.313Z,-0.009388111,-0.0073608323,0.4975949,0.033737183,-0.23138428,9.804596,17.915344,26.139832,-96.04187,0.033593208,-0.2315405,9.80386,0.00039347634,0.00059229136,0.00086688995,4.5776367e-05,7.6293945e-05,6.1035156e-05
2019-07-01T19:21:28.532Z,-0.009384076,-0.007364773,0.49759835,0.03565979,-0.23258972,9.805069,17.869568,26.786804,-95.00275,0.033698697,-0.23151046,9.80386,0.00028563663,-0.00038278103,0.0013685226,4.5776367e-05,1.5258789e-05,0.0
2019-07-01T19:21:28.727Z,-0.009382148,-0.0073972624,0.49766573,0.03541565,-0.23114014,9.804596,18.984985,26.342773,-94.00482,0.034252137,-0.23179737,9.803851,0.0011643916,-0.00031003356,0.0012407303,4.5776367e-05,-4.5776367e-05,-6.1035156e-05
2019-07-01T19:21:28.921Z,-0.009357865,-0.0073949667,0.4976307,0.03517151,-0.23042297,9.8033905,18.136597,27.159119,-93.73016,0.034459505,-0.23136054,9.803861,0.00023928657,0.00021834671,0.000333786,-1.5258789e-05,1.5258789e-05,0.00012207031
2019-07-01T19:21:29.137Z,-0.009327203,-0.00739443,0.4975915,0.034698486,-0.2311554,9.8033905,18.65387,26.023865,-93.30139,0.034760118,-0.2308322,9.803871,0.0008999035,0.00088070333,5.8174133e-05,0.00010681152,1.5258789e-05,0.00012207031
2019-07-01T19:21:29.334Z,-0.009331202,-0.0074086143,0.4976269,0.036376953,-0.23187256,9.803162,19.459534,26.078796,-93.6264,0.03495292,-0.23104008,9.803866,0.00021930411,-0.0003489256,-0.00027561188,0.00010681152,1.5258789e-05,-6.1035156e-05
2019-07-01T19:21:29.541Z,-0.009338059,-0.0074359057,0.49769402,0.034454346,-0.23162842,9.804825,18.60962,26.8219,-93.36395,0.0353323,-0.23142576,9.803856,0.0008029565,-0.0006917119,-0.0009765625,-7.6293945e-05,-4.5776367e-05,-7.6293945e-05
2019-07-01T19:21:29.742Z,-0.009357073,-0.007419054,0.49768144,0.036605835,-0.23258972,9.805069,18.351746,26.364136,-92.84363,0.034863394,-0.23158419,9.803854,-0.0008819029,-0.00028948486,0.0012617111,-7.6293945e-05,7.6293945e-05,-6.1035156e-05
2019-07-01T19:21:29.947Z,-0.009345145,-0.007450622,0.49773443,0.03302002,-0.23114014,9.802673,17.95044,26.564026,-93.992615,0.03550264,-0.23169154,9.803848,0.0015903823,-0.0006468892,0.00067424774,0.00010681152,0.0001373291,0.00012207031
2019-07-01T19:21:30.150Z,-0.009360688,-0.0073992135,0.49764332,0.03517151,-0.23042297,9.801239,17.922974,25.979614,-93.96057,0.034500815,-0.2314505,9.803858,-0.0014812276,0.0003132671,-0.00034618378,0.00022888184,7.6293945e-05,-6.1035156e-05
2019-07-01T19:21:30.348Z,-0.009330883,-0.007364504,0.49753177,0.028961182,-0.23091125,9.800278,17.687988,26.261902,-94.8761,0.034231037,-0.2306004,9.803878,-0.0002466254,0.00062964857,-0.001999855,4.5776367e-05,1.5258789e-05,6.1035156e-05
2019-07-01T19:21:30.554Z,-0.009386264,-0.007300531,0.49746305,0.03326416,-0.23042297,9.8029175,17.82074,25.61493,-94.86084,0.032620605,-0.23091573,9.803878,-0.0031799302,-0.0007585138,-0.0021276474,4.5776367e-05,7.6293945e-05,-0.00012207031
2019-07-01T19:21:30.754Z,-0.009351643,-0.0073056757,0.49743116,0.03277588,-0.23042297,9.805069,17.936707,26.576233,-95.72754,0.033054437,-0.23037575,9.803888,0.0009310283,0.0008699447,0.0014486313,0.00016784668,1.5258789e-05,0.0
2019-07-01T19:21:30.961Z,-0.009366515,-0.007308652,0.497456,0.032073975,-0.22970581,9.801727,17.744446,25.682068,-94.921875,0.032953344,-0.23065874,9.803883,6.99535e-05,-0.000992626,0.00048351288,0.00010681152,-4.5776367e-05,-0.00019836426
2019-07-01T19:21:31.162Z,-0.009354698,-0.0072676097,0.49735317,0.032546997,-0.23330688,9.805786,18.908691,26.411438,-94.06433,0.032397743,-0.23005345,9.803897,-0.0012818091,0.0012705177,7.6293945e-06,-7.6293945e-05,7.6293945e-05,0.00018310547
2019-07-01T19:21:31.358Z,-0.009392389,-0.007320809,0.49751422,0.036376953,-0.23234558,9.803879,19.091797,27.08435,-94.841,0.03289215,-0.23121965,9.803868,0.0008450337,-0.0023161322,0.001917839,-7.6293945e-05,-4.5776367e-05,0.00012207031
2019-07-01T19:21:31.555Z,-0.009397401,-0.0073692743,0.49762455,0.03302002,-0.22923279,9.800995,18.614197,26.96991,-93.71185,0.033638187,-0.23178203,9.803853,0.0017784871,-0.001287803,-0.00063610077,0.00010681152,1.5258789e-05,0.0
2019-07-01T19:21:31.760Z,-0.009345433,-0.007352604,0.49752426,0.036132812,-0.2311554,9.8029175,19.761658,27.334595,-92.92908,0.033888604,-0.23073152,9.803877,9.594858e-05,0.0017208755,-0.0012302399,0.00010681152,-0.00010681152,6.1035156e-05
2019-07-01T19:21:31.979Z,-0.0093325395,-0.0073842527,0.49757627,0.033737183,-0.23114014,9.804596,19.66095,26.887512,-92.79022,0.034538973,-0.23082307,9.803873,0.0013532899,-0.00035631657,-0.00018024445,0.00016784668,-4.5776367e-05,-6.1035156e-05
2019-07-01T19:21:32.173Z,-0.009348856,-0.0073763966,0.49757963,0.03326416,-0.23210144,9.804108,18.051147,27.008057,-93.907166,0.034245178,-0.23102409,9.803869,-0.0012242086,-0.0010837764,0.0014724731,-1.5258789e-05,-0.00010681152,6.1035156e-05
2019-07-01T19:21:32.380Z,-0.009358649,-0.007365931,0.4975693,0.03326416,-0.23114014,9.800293,17.814636,25.468445,-94.66553,0.033974323,-0.23108812,9.803868,-0.0004798323,-6.186962e-05,-0.00028896332,4.5776367e-05,7.6293945e-05,6.1035156e-05
2019-07-01T19:21:32.580Z,-0.009367294,-0.0073561245,0.49755895,0.034210205,-0.23187256,9.805069,18.295288,25.354004,-94.633484,0.03372589,-0.23113908,9.803868,-0.0004585795,-2.2664666e-05,-0.000995636,4.5776367e-05,1.5258789e-05,4.5776367e-05
2019-07-01T19:21:32.772Z,-0.0093601495,-0.0073550893,0.49754786,0.032302856,-0.23258972,9.8022,18.414307,26.31073,-94.74335,0.033780966,-0.23100702,9.803871,0.00067520514,-0.00016085804,0.00076675415,0.00022888184,0.0001373291,0.00018310547
2019-07-01T19:21:32.980Z,-0.009417518,-0.007317709,0.49753875,0.03277588,-0.23234558,9.80101,18.260193,26.521301,-95.147705,0.032587618,-0.23161778,9.803861,-0.0007544197,-0.000751704,6.866455e-05,0.00016784668,-4.5776367e-05,-0.00018310547
2019-07-01T19:21:33.178Z,-0.009429724,-0.007365625,0.49765682,0.03517151,-0.23306274,9.801483,18.354797,26.74408,-94.72809,0.033251937,-0.23229745,9.803843,0.00049071014,-0.0008034855,-0.0012207031,-0.0001373291,-0.00021362305,0.00016784668
2019-07-01T19:21:33.391Z,-0.009425369,-0.007394221,0.49771285,0.032546997,-0.23162842,9.800522,19.290161,26.150513,-95.03784,0.033765838,-0.2325046,9.803835,0.0011670925,-0.00035229325,-2.002716e-05,0.00010681152,0.0001373291,-6.1035156e-05
2019-07-01T19:21:33.597Z,-0.009422564,-0.00736676,0.49765038,0.03517151,-0.23425293,9.800522,19.799805,26.690674,-94.49768,0.03334288,-0.23218648,9.803844,-0.00055876,2.7641654e-05,-0.001616478,0.00010681152,7.6293945e-05,4.5776367e-05
2019-07-01T19:21:33.798Z,-0.009449021,-0.0073947883,0.49774343,0.029434204,-0.23019409,9.805542,19.290161,25.77362,-93.15338,0.03353635,-0.2329136,9.803826,0.00045257434,-0.0021092892,0.00035190582,0.000289917,-0.00010681152,6.1035156e-05
2019-07-01T19:21:34.054Z,-0.009398236,-0.007327247,0.49753532,0.033737183,-0.23043823,9.8022,19.204712,25.92163,-94.32678,0.032938965,-0.2313827,9.803864,-0.0015934408,0.0023661554,0.0021429062,-1.5258789e-05,1.5258789e-05,0.00012207031
2019-07-01T19:21:34.252Z,-0.009400686,-0.0073189246,0.49752048,0.032546997,-0.23210144,9.804352,17.314148,26.739502,-93.85681,0.032777455,-0.23134264,9.803866,-0.0007139705,0.00015360117,-0.00048351288,0.00010681152,-0.0002746582,0.00024414062
2019-07-01T19:21:34.458Z,-0.009379827,-0.0073419088,0.49754396,0.034210205,-0.23306274,9.804352,18.580627,26.316833,-94.21997,0.033365738,-0.23121296,9.803866,0.00012916699,-0.00042836368,0.0017490387,0.00016784668,-9.1552734e-05,0.0
2019-07-01T19:21:34.661Z,-0.009382174,-0.0073544243,0.49757376,0.033981323,-0.23138428,9.803879,18.125916,25.119019,-94.1452,0.033547778,-0.23137617,9.803863,0.0004350245,-0.0009796321,0.00020503998,0.00016784668,1.5258789e-05,0.00012207031
2019-07-01T19:21:34.864Z,-0.0093947165,-0.00735982,0.4976009,0.031585693,-0.2328186,9.802673,19.258118,25.346375,-94.82422,0.03350989,-0.2316432,9.803857,-1.5910715e-05,-0.00095300376,0.0002965927,4.5776367e-05,-4.5776367e-05,0.0
2019-07-01T19:21:35.067Z,-0.009388003,-0.007324809,0.49751738,0.036849976,-0.22994995,9.804108,17.822266,25.767517,-95.510864,0.033002168,-0.23118418,9.803869,-0.0016599931,0.00026857853,0.00019359589,0.00022888184,-0.00016784668,0.0
2019-07-01T19:21:35.271Z,-0.009337589,-0.0074050464,0.49762717,0.034698486,-0.23210144,9.802673,17.753601,25.823975,-94.51599,0.034829814,-0.2311139,9.8038645,0.003943749,-3.273785e-05,-0.00019836426,-7.6293945e-05,0.00015258789,0.0
2019-07-01T19:21:35.472Z,-0.00936037,-0.007385951,0.49761444,0.033737183,-0.23402405,9.805313,18.395996,25.869751,-94.60602,0.034286026,-0.23131453,9.803862,-0.0007909611,-0.00032752752,-0.00061035156,-1.5258789e-05,1.5258789e-05,6.1035156e-05
2019-07-01T19:21:35.674Z,-0.009425523,-0.0073988494,0.49772298,0.03326416,-0.23138428,9.8033905,19.084167,26.863098,-94.50836,0.033840336,-0.2325528,9.803834,-0.00081935525,-0.0021950006,0.00055217743,-1.5258789e-05,0.0001373291,6.1035156e-05
2019-07-01T19:21:35.878Z,-0.009405922,-0.00737887,0.49765575,0.032058716,-0.2328186,9.802444,19.407654,26.657104,-93.43109,0.03370989,-0.23202182,9.803847,0.00050039217,0.00063702464,0.0005264282,4.5776367e-05,0.0001373291,-7.6293945e-05
2019-07-01T19:21:36.079Z,-0.009421374,-0.007358504,0.49763116,0.03565979,-0.23306274,9.806747,19.006348,26.70288,-93.403625,0.033219203,-0.23208493,9.803847,-0.00067030266,-0.00027394295,-0.0010852814,4.5776367e-05,0.0001373291,0.00010681152
2019-07-01T19:21:36.281Z,-0.009435295,-0.007415619,0.49777114,0.03302002,-0.23402405,9.805069,18.89801,25.96283,-92.87109,0.034017228,-0.23288457,9.803825,0.002357591,-0.0015978813,0.0023069382,0.00016784668,0.0002593994,0.00016784668
2019-07-01T19:21:36.485Z,-0.009456002,-0.007338805,0.49763182,0.03302002,-0.23258972,9.802673,19.561768,26.519775,-93.08624,0.032545924,-0.23248172,9.803841,-0.0019239746,0.00015357137,0.00024986267,0.00016784668,1.5258789e-05,6.1035156e-05
2019-07-01T19:21:36.677Z,-0.009443021,-0.0073682675,0.49767902,0.034210205,-0.23306274,9.803146,17.89093,25.17395,-93.66913,0.033161122,-0.23255023,9.803836,0.00081982836,-0.00075404346,-0.0012722015,4.5776367e-05,-4.5776367e-05,0.0
2019-07-01T19:21:36.897Z,-0.009433119,-0.0073484574,0.49762416,0.03086853,-0.23187256,9.801239,17.52472,26.023865,-93.85834,0.03293554,-0.23218638,9.803845,-0.00038826838,0.0003271401,-0.00037288666,4.5776367e-05,1.5258789e-05,0.00018310547
2019-07-01T19:21:37.085Z,-0.009439255,-0.0073626675,0.4976623,0.03111267,-0.23210144,9.8029175,18.045044,26.863098,-93.93616,0.03310712,-0.2324309,9.80384,-8.480996e-05,-0.00040377676,-0.0012044907,4.5776367e-05,-0.00010681152,-1.5258789e-05
2019-07-01T19:21:37.291Z,-0.009449362,-0.007321942,0.49758735,0.034454346,-0.2280426,9.804596,17.651367,25.384521,-94.67468,0.032335818,-0.23220254,9.803847,-0.0017073192,0.00054460764,-0.0011177063,-1.5258789e-05,-4.5776367e-05,-6.1035156e-05
2019-07-01T19:21:37.495Z,-0.009419436,-0.0073159947,0.49753743,0.031585693,-0.2328186,9.800766,17.419434,25.740051,-95.425415,0.03254009,-0.23163363,9.803861,9.95025e-06,0.0014178753,0.0006914139,-1.5258789e-05,-0.00010681152,4.5776367e-05
2019-07-01T19:21:37.741Z,-0.009394093,-0.007273976,0.49741572,0.028244019,-0.22947693,9.803162,18.920898,25.183105,-95.67413,0.032105062,-0.23078811,9.803883,-0.0021928884,0.00080262125,-0.0011329651,0.00010681152,7.6293945e-05,-0.00018310547
2019-07-01T19:21:37.962Z,-0.009391874,-0.007261184,0.49738547,0.034454346,-0.22947693,9.803162,17.800903,26.77002,-93.64319,0.031917132,-0.23062445,9.803886,-0.0005704798,-0.00032363832,-0.00011920929,0.00022888184,3.0517578e-05,-6.1035156e-05
2019-07-01T19:21:38.159Z,-0.009367692,-0.0072906944,0.49741888,0.031829834,-0.23257446,9.800995,18.598938,26.679993,-93.9209,0.032646235,-0.23050219,9.803887,0.0013388507,0.00028152764,0.0008773804,-0.00019836426,-0.00016784668,-0.00012207031
2019-07-01T19:21:38.365Z,-0.009404811,-0.007301061,0.49748722,0.027755737,-0.22994995,9.8029175,18.87207,27.352905,-93.79425,0.032442182,-0.23123726,9.803869,-0.00060671195,-0.0011484772,-0.0011720657,4.5776367e-05,-0.00010681152,-0.00024414062
2019-07-01T19:21:38.566Z,-0.009414382,-0.0072353566,0.49735788,0.031585693,-0.23187256,9.8022,19.099426,26.92566,-93.0603,0.031265475,-0.23075442,9.8038845,-0.0025440156,0.00077186525,0.00066185,-1.5258789e-05,7.6293945e-05,6.1035156e-05
2019-07-01T19:21:38.769Z,-0.00945528,-0.0072462456,0.49743202,0.03302002,-0.23066711,9.8022,18.141174,27.22931,-93.64014,0.031031912,-0.23155902,9.803866,-0.00015847944,-0.0015403032,-0.00036239624,0.00010681152,7.6293945e-05,0.0
2019-07-01T19:21:38.971Z,-0.009386193,-0.007209394,0.4972671,0.03062439,-0.22947693,9.804825,18.371582,26.727295,-92.39197,0.031122882,-0.23001842,9.803904,0.00071159005,0.002429843,0.00023078918,0.00016784668,1.5258789e-05,6.1035156e-05
2019-07-01T19:21:39.166Z,-0.009386127,-0.007240929,0.4973348,0.034454346,-0.23234558,9.804596,18.431091,26.597595,-94.30847,0.031642076,-0.23032726,9.803894,0.00041850284,-0.00059755147,0.0017518997,-7.6293945e-05,-0.00010681152,0.00024414062
2019-07-01T19:21:39.374Z,-0.009389428,-0.007289166,0.49744257,0.03277588,-0.22923279,9.801239,18.54248,25.437927,-94.096375,0.03240184,-0.2308579,9.803879,0.0015802011,-0.0010197759,0.0006904602,-1.5258789e-05,1.5258789e-05,0.0
2019-07-01T19:21:39.584Z,-0.009364167,-0.0072660507,0.49736154,0.03326416,-0.23091125,9.801483,17.996216,25.993347,-95.0943,0.03227661,-0.23019968,9.803895,2.9925257e-05,0.0009406358,-0.0017814636,0.00016784668,7.6293945e-05,-6.1035156e-05
2019-07-01T19:21:39.782Z,-0.0093492735,-0.0072952723,0.49740586,0.032302856,-0.22970581,9.804352,18.399048,26.171875,-96.0556,0.032907285,-0.23023301,9.803892,0.0006056689,-0.00046665967,-0.0005493164,0.00010681152,-0.00010681152,-1.5258789e-05
2019-07-01T19:21:39.982Z,-0.009329811,-0.0072892657,0.4973688,0.03277588,-0.22875977,9.8033905,18.399048,26.017761,-94.95392,0.033004824,-0.22984192,9.803901,0.0002624765,0.0001142472,0.000910759,0.00016784668,1.5258789e-05,-0.00018310547
2019-07-01T19:21:40.185Z,-0.009318307,-0.0072425385,0.49725413,0.030151367,-0.22923279,9.803879,18.016052,26.35498,-94.64264,0.032352414,-0.22918619,9.803919,-0.0017256364,0.00065363944,0.00043964386,0.00016784668,-0.00016784668,-6.1035156e-05
2019-07-01T19:21:40.385Z,-0.009326568,-0.00721644,0.4972083,0.031829834,-0.23257446,9.804596,19.007874,26.852417,-93.90259,0.031839896,-0.22907056,9.803923,-0.000725355,-0.00041984022,0.00028800964,0.00010681152,0.00019836426,0.00018310547
2019-07-01T19:21:40.586Z,-0.009366447,-0.007243823,0.49731663,0.03062439,-0.23162842,9.800522,18.515015,26.600647,-93.93463,0.03188812,-0.23002003,9.803901,-5.706027e-05,-0.0018461347,0.00035572052,-1.5258789e-05,-0.00010681152,0.00012207031
2019-07-01T19:21:40.789Z,-0.009415143,-0.007242542,0.49737427,0.032058716,-0.23091125,9.8033905,19.346619,27.085876,-93.037415,0.03137594,-0.23083806,9.803884,-0.0007477142,-0.0020087957,-0.0016889572,0.00010681152,0.00019836426,-6.1035156e-05
2019-07-01T19:21:40.995Z,-0.009414567,-0.0072730826,0.4974392,0.034698486,-0.2328186,9.8029175,18.910217,26.257324,-93.03894,0.03188383,-0.23112853,9.803875,0.0011392944,-0.00076653063,0.00047016144,4.5776367e-05,-0.00021362305,0.00012207031
2019-07-01T19:21:41.199Z,-0.00941505,-0.0072999564,0.49749753,0.029907227,-0.23019409,9.801239,18.019104,26.351929,-94.11621,0.032320715,-0.23140106,9.803866,0.00022939965,-0.0007226914,-2.861023e-06,4.5776367e-05,1.5258789e-05,0.0
2019-07-01T19:21:41.402Z,-0.009377841,-0.007270634,0.49738836,0.032302856,-0.22947693,9.801956,17.893982,25.398254,-94.60602,0.03221405,-0.23047802,9.803889,-0.00015110895,0.0012150258,-0.00064754486,0.00022888184,-0.00010681152,0.00018310547
2019-07-01T19:21:41.605Z,-0.009388442,-0.007263188,0.49738553,0.032302856,-0.23162842,9.8033905,18.623352,25.595093,-94.7464,0.031984694,-0.23058562,9.803887,-0.00039281324,-0.00012609363,-0.0012245178,-7.6293945e-05,1.5258789e-05,0.00024414062
2019-07-01T19:21:41.805Z,-0.009403541,-0.0072821015,0.4974449,0.03111267,-0.23114014,9.803162,18.218994,25.494385,-94.67621,0.03214333,-0.23102912,9.803875,0.00016312301,-0.0010981411,0.001572609,-1.5258789e-05,-4.5776367e-05,0.0
2019-07-01T19:21:42.012Z,-0.009372609,-0.007277679,0.497397,0.030395508,-0.23042297,9.803162,18.086243,26.445007,-96.136475,0.03238266,-0.23045802,9.803888,-0.0003209561,0.0009598285,0.00040721893,-1.5258789e-05,-0.0002746582,0.00016784668
2019-07-01T19:21:42.213Z,-0.009397711,-0.007236601,0.49733987,0.032546997,-0.2328186,9.801712,19.1391,26.20697,-94.19098,0.031454086,-0.2304823,9.803891,-0.0025044158,-0.00021226704,-0.0005226135,0.00010681152,-4.5776367e-05,0.00012207031
2019-07-01T19:21:42.412Z,-0.00939802,-0.0073109083,0.49749994,0.034454346,-0.22994995,9.8029175,20.088196,25.909424,-94.51752,0.03267258,-0.2312183,9.803869,0.0027469285,-0.0021159053,-3.8146973e-05,0.000289917,0.0001373291,0.00012207031
2019-07-01T19:21:42.629Z,-0.009371846,-0.0072596297,0.49735728,0.031829834,-0.22947693,9.802673,19.158936,26.644897,-94.177246,0.03209358,-0.23026751,9.803893,-0.00097393617,0.0005116612,-0.0017147064,-1.5258789e-05,-4.5776367e-05,6.1035156e-05
2019-07-01T19:21:42.822Z,-0.009374503,-0.0072787567,0.49740168,0.031585693,-0.23066711,9.803879,19.546509,26.153564,-93.159485,0.03238127,-0.23050095,9.803888,0.00064371526,-0.0002015084,0.001250267,-0.0001373291,1.5258789e-05,0.00012207031
2019-07-01T19:21:43.019Z,-0.009386406,-0.007224699,0.49730027,0.030151367,-0.2270813,9.8029175,19.544983,26.231384,-93.748474,0.0313724,-0.23017249,9.803899,-0.0021793135,0.0011616945,0.0011529922,-1.5258789e-05,-4.5776367e-05,0.00012207031
2019-07-01T19:21:43.219Z,-0.009364122,-0.0072186845,0.4972597,0.030395508,-0.2318573,9.800995,18.862915,26.98059,-92.81464,0.0314982,-0.22973323,9.803908,-0.00038165972,0.0007163584,-0.00050354004,0.00016784668,-0.00021362305,6.1035156e-05
2019-07-01T19:21:43.434Z,-0.009372559,-0.0072244615,0.4972826,0.031829834,-0.23234558,9.801483,19.34967,25.494385,-94.2688,0.031508118,-0.22993395,9.803904,-0.0003897883,-0.0014916211,-0.0011472702,0.00016784668,1.5258789e-05,0.0
2019-07-01T19:21:43.691Z,-0.009380246,-0.0072875484,0.4974277,0.03517151,-0.23114014,9.8029175,19.134521,26.211548,-94.79523,0.03246788,-0.23068532,9.803882,0.0012744851,-0.0014529377,0.00035572052,-7.6293945e-05,-0.00016784668,0.00024414062
2019-07-01T19:21:43.888Z,-0.009381324,-0.0072398777,0.49732658,0.027999878,-0.22898865,9.804352,16.963196,25.982666,-93.31665,0.03167323,-0.23023503,9.803897,-0.001043614,0.00096423924,-7.8201294e-05,-1.5258789e-05,3.0517578e-05,0.00012207031
2019-07-01T19:21:44.090Z,-0.009413382,-0.007232147,0.49734974,0.032302856,-0.23114014,9.804352,17.533875,26.39618,-94.61365,0.031222792,-0.23070581,9.803886,-0.0013131332,-0.00045229495,0.0017023087,-1.5258789e-05,-4.5776367e-05,-6.1035156e-05
2019-07-01T19:21:44.286Z,-0.009363465,-0.0072706793,0.49737063,0.034454346,-0.22875977,9.804108,17.959595,25.419617,-96.5683,0.0323598,-0.23023322,9.803894,0.002096247,0.00051528215,0.000500679,0.00010681152,-4.5776367e-05,0.00012207031
2019-07-01T19:21:44.488Z,-0.009363517,-0.0072627356,0.4973536,0.03277588,-0.23210144,9.8033905,17.481995,25.456238,-95.93811,0.032228652,-0.23015599,9.803896,-0.00016957894,-0.0002695322,0.0008087158,0.00016784668,1.5258789e-05,0.00035095215
2019-07-01T19:21:44.704Z,-0.0093592405,-0.007274648,0.4973739,0.031585693,-0.23019409,9.8029175,18.476868,25.950623,-94.97223,0.032467652,-0.23020019,9.803894,8.064136e-05,-0.0007202774,-0.00058460236,0.00016784668,-0.00010681152,-0.00012207031
2019-07-01T19:21:44.903Z,-0.009340232,-0.007254161,0.49730632,0.030151367,-0.22972107,9.8029175,18.52417,27.049255,-95.20416,0.032322478,-0.22967449,9.803907,-0.0002618134,-6.042421e-05,-0.00039863586,0.00022888184,7.6293945e-05,-0.00012207031
2019-07-01T19:21:45.104Z,-0.009356991,-0.007253278,0.4973252,0.03541565,-0.22970581,9.8029175,19.662476,26.963806,-93.22662,0.03213895,-0.22995165,9.8039,-0.00030755997,-0.00097073615,0.00020885468,-7.6293945e-05,0.0001373291,-6.1035156e-05
2019-07-01T19:21:45.310Z,-0.009325363,-0.0072786463,0.4973405,0.030395508,-0.22947693,9.8022,19.821167,27.130127,-94.70978,0.03287506,-0.2296616,9.8039055,0.0015820079,0.00065393746,-0.0006637573,0.00010681152,-0.00016784668,0.0
2019-07-01T19:21:45.511Z,-0.009350985,-0.007223317,0.49725336,0.032302856,-0.22898865,9.801483,19.337463,26.791382,-92.72003,0.031706836,-0.22955468,9.803912,-0.0022687688,-0.00017911196,-0.0007610321,0.00010681152,-4.5776367e-05,0.00018310547
2019-07-01T19:21:45.713Z,-0.009338199,-0.00723089,0.49725378,0.031585693,-0.23138428,9.8033905,18.833923,26.397705,-93.15643,0.031960286,-0.22941104,9.803915,0.00010366738,-0.00010347366,-0.0008249283,0.00010681152,-0.00016784668,6.1035156e-05
2019-07-01T19:21:45.908Z,-0.009345804,-0.007294728,0.4974004,0.034454346,-0.23306274,9.804352,18.502808,26.307678,-93.844604,0.03293333,-0.23016849,9.803894,0.0017681904,-0.0017252564,0.0013608932,-1.5258789e-05,7.6293945e-05,-7.6293945e-05
2019-07-01T19:21:46.115Z,-0.009374363,-0.0072722253,0.49738747,0.03111267,-0.23043823,9.803879,18.077087,25.691223,-93.19458,0.032275286,-0.23043433,9.803889,-0.0021219365,-0.0007199496,0.0005912781,0.00010681152,-0.0002746582,0.00024414062
2019-07-01T19:21:46.320Z,-0.009360375,-0.0072906045,0.4974096,0.033981323,-0.22898865,9.803162,16.864014,25.767517,-94.63959,0.03271857,-0.23037647,9.803889,0.0005466752,-0.00054241717,0.0005426407,0.00022888184,-4.5776367e-05,0.00024414062
2019-07-01T19:21:46.521Z,-0.00934473,-0.0073391343,0.49749446,0.03086853,-0.23330688,9.800278,17.419434,25.509644,-94.036865,0.033674262,-0.230587,9.803882,0.0017437451,-0.0008134246,-0.0007505417,-1.5258789e-05,-4.5776367e-05,0.0
2019-07-01T19:21:46.724Z,-0.009402543,-0.0073358095,0.49755904,0.03541565,-0.23306274,9.805069,18.574524,26.246643,-94.61212,0.03303625,-0.23154044,9.803861,-0.0019177906,-0.0015628487,-0.0020942688,-7.6293945e-05,-0.00016784668,6.1035156e-05
2019-07-01T19:21:46.925Z,-0.009406819,-0.007341269,0.4975761,0.033493042,-0.23019409,9.8022,18.858337,25.468445,-95.236206,0.03308284,-0.23166709,9.803858,-0.00030338392,-0.000459373,0.0013093948,0.00010681152,-4.5776367e-05,0.000289917
2019-07-01T19:21:47.132Z,-0.009366883,-0.007338343,0.49752024,0.030151367,-0.23353577,9.801239,18.980408,26.193237,-93.80798,0.03343774,-0.23095709,9.803873,0.00054629147,0.0012325794,0.0005559921,4.5776367e-05,-0.00010681152,-6.1035156e-05
2019-07-01T19:21:47.398Z,-0.00939339,-0.0073362435,0.49754864,0.032546997,-0.22851562,9.806503,19.955444,26.556396,-94.680786,0.033135753,-0.23138857,9.803864,-0.0003550388,-0.00050251186,-0.00023269653,4.5776367e-05,7.6293945e-05,6.1035156e-05
2019-07-01T19:21:47.585Z,-0.009377738,-0.0072988737,0.49744892,0.03326416,-0.23138428,9.8033905,18.33191,26.080322,-94.107056,0.032679364,-0.23075399,9.803881,-0.00037541613,0.0010404438,0.0022335052,-1.5258789e-05,-4.5776367e-05,-0.00012207031
2019-07-01T19:21:47.792Z,-0.009363574,-0.007338491,0.49751645,0.033737183,-0.22970581,9.807709,18.759155,26.461792,-92.61322,0.03347355,-0.2309021,9.803874,0.0012254082,-1.244247e-05,0.00037288666,-7.6293945e-05,-9.1552734e-05,-6.1035156e-05
2019-07-01T19:21:48.027Z,-0.009348253,-0.0073568216,0.49753684,0.034698486,-0.23114014,9.802673,18.388367,27.319336,-93.707275,0.03392949,-0.23082113,9.803875,0.00027773157,0.00017432868,0.0020093918,-1.5258789e-05,-0.00016784668,0.0
2019-07-01T19:21:48.194Z,-0.009369666,-0.0073008672,0.4974432,0.03302002,-0.23138428,9.803635,17.285156,26.081848,-93.914795,0.032793574,-0.23063588,9.803883,-0.0023988895,0.0006917268,-0.0012111664,-0.0001373291,-3.0517578e-05,6.1035156e-05
2019-07-01T19:21:48.401Z,-0.009298375,-0.00727998,0.4973099,0.032546997,-0.22898865,9.8029175,18.196106,24.983215,-94.85321,0.033169135,-0.22921431,9.803915,0.0008090362,0.002398923,0.0014276505,0.00010681152,7.6293945e-05,-6.1035156e-05
2019-07-01T19:21:48.601Z,-0.009322908,-0.007299241,0.4973817,0.030151367,-0.22923279,9.805069,16.93573,25.552368,-94.45953,0.033238478,-0.22982228,9.803901,-0.00021731108,-0.0010969192,-0.0025672913,0.00010681152,-9.1552734e-05,4.5776367e-05
2019-07-01T19:21:48.805Z,-0.009402001,-0.0072488943,0.4973716,0.029190063,-0.23162842,9.801712,18.333435,26.382446,-95.33081,0.03161293,-0.23067634,9.803885,-0.0033842362,-0.0016687512,0.00068950653,-0.0002593994,-0.00033569336,-0.00024414062
2019-07-01T19:21:49.011Z,-0.009383151,-0.0073402273,0.49754447,0.031829834,-0.23019409,9.802444,18.6203,25.52185,-94.68689,0.03330455,-0.23125313,9.803866,0.0011516325,0.00010024011,-0.0011253357,-0.0001373291,-0.00021362305,0.0
2019-07-01T19:21:49.208Z,-0.009385975,-0.0072870953,0.49743384,0.03326416,-0.23187256,9.8033905,19.39087,26.519775,-94.59076,0.032402635,-0.23077862,9.803881,-0.0012863912,8.6054206e-05,-0.0010728836,0.000289917,0.00019836426,-0.00012207031
2019-07-01T19:21:49.409Z,-0.009412223,-0.0072806296,0.4974525,0.029434204,-0.23066711,9.8033905,18.347168,26.446533,-94.03381,0.032031544,-0.23116274,9.803873,2.9761344e-05,-0.0009573847,0.0005540848,4.5776367e-05,0.00019836426,6.1035156e-05
2019-07-01T19:21:49.615Z,-0.009429649,-0.0072281044,0.49736124,0.033981323,-0.23138428,9.804108,18.763733,26.68457,-93.24646,0.030992253,-0.23094352,9.803881,-0.0013119727,1.783669e-05,0.00036525726,0.00010681152,0.0001373291,0.00012207031
2019-07-01T19:21:49.817Z,-0.009394405,-0.0072753257,0.497419,0.032058716,-0.23066711,9.800049,18.824768,26.176453,-92.89856,0.0321241,-0.2308067,9.803882,0.0023326203,-0.0003657639,-0.00023937225,4.5776367e-05,1.5258789e-05,0.00022888184
2019-07-01T19:21:50.029Z,-0.009398625,-0.0072751516,0.49742386,0.034942627,-0.2311554,9.804352,19.398499,26.589966,-94.12537,0.03207866,-0.23087695,9.80388,-0.00024487823,0.00018140674,-0.00096035004,-7.6293945e-05,-4.5776367e-05,6.1035156e-05
2019-07-01T19:21:50.219Z,-0.009413248,-0.007341236,0.497584,0.033981323,-0.23330688,9.801956,18.084717,25.98877,-93.888855,0.03301741,-0.2317764,9.803855,0.0019275956,-0.0013030618,0.00096035004,-0.0001373291,1.5258789e-05,-0.00024414062
2019-07-01T19:21:50.425Z,-0.009422821,-0.0073805256,0.49768028,0.031585693,-0.23138428,9.801712,18.095398,26.287842,-94.50836,0.0335665,-0.23232633,9.80384,0.0013812333,-0.00029875338,-0.0015821457,-7.6293945e-05,0.00021362305,-6.1035156e-05
2019-07-01T19:21:50.629Z,-0.009406121,-0.0073247137,0.49753967,0.031585693,-0.23138428,9.802444,18.469238,25.732422,-94.86542,0.03281776,-0.23149228,9.803862,-0.0007535629,0.0007864982,-0.00026893616,0.00010681152,-4.5776367e-05,-6.1035156e-05
2019-07-01T19:21:50.828Z,-0.009429664,-0.0072741886,0.4974603,0.037094116,-0.23353577,9.8022,17.375183,26.53656,-95.26062,0.03174969,-0.2313969,9.803868,-0.0027849749,-1.3113022e-05,0.0011014938,-0.0001373291,-0.0002746582,-0.00012207031
2019-07-01T19:21:51.033Z,-0.009406606,-0.0073658787,0.4976287,0.03302002,-0.22970581,9.803635,18.701172,25.682068,-95.94116,0.033489466,-0.23190561,9.80385,0.0031221062,0.00048160553,-0.0011758804,-0.0001373291,0.00015258789,0.0
2019-07-01T19:21:51.235Z,-0.009381084,-0.0073537165,0.4975709,0.033981323,-0.23091125,9.803162,18.997192,26.712036,-94.60907,0.033547144,-0.23135059,9.803863,0.00019363314,0.0013758689,0.001294136,-1.5258789e-05,-4.5776367e-05,0.00035095215
2019-07-01T19:21:51.437Z,-0.009392363,-0.007387243,0.4976569,0.036849976,-0.2328186,9.803162,19.355774,27.459717,-93.94531,0.033984356,-0.23187298,9.80385,0.00047372654,-0.0016883016,-9.8228455e-05,0.00010681152,-0.0002746582,0.00016784668
2019-07-01T19:21:51.636Z,-0.009352261,-0.007427423,0.49769342,0.032073975,-0.23162842,9.800522,18.527222,26.895142,-94.10095,0.035049517,-0.23158449,9.803853,0.001804132,-6.8217516e-05,9.250641e-05,0.00016784668,0.0001373291,0.00022888184
2019-07-01T19:21:51.844Z,-0.0093732495,-0.0073885033,0.4976359,0.03326416,-0.23066711,9.803879,18.521118,26.670837,-93.46771,0.033705782,-0.23104475,9.803869,-0.00068189204,0.001068294,0.00088977814,0.00010681152,7.6293945e-05,0.0
2019-07-01T19:21:52.043Z,-0.009388439,-0.007381421,0.49763954,0.03302002,-0.23187256,9.801483,18.39447,25.642395,-93.74542,0.033928275,-0.23174873,9.803853,5.5830926e-05,-0.0022943467,0.0005865097,0.00016784668,1.5258789e-05,6.1035156e-05
2019-07-01T19:21:52.246Z,-0.009381674,-0.0073566437,0.4975779,0.03302002,-0.22972107,9.803162,18.754578,26.313782,-92.34009,0.033589303,-0.23138946,9.803862,-0.00032057613,0.0004467517,-0.0010461807,7.6293945e-05,-9.1552734e-05,0.0
2019-07-01T19:21:52.452Z,-0.009366366,-0.007333522,0.49750924,0.031829834,-0.22947693,9.803146,18.41278,26.005554,-93.218994,0.033363707,-0.23090085,9.803875,-0.00058398023,0.00043599308,0.00041770935,7.6293945e-05,0.00015258789,-0.00018310547
2019-07-01T19:21:52.657Z,-0.009357644,-0.007289879,0.49740466,0.03326416,-0.22994995,9.80101,17.878723,26.777649,-93.87207,0.03273418,-0.23032276,9.803891,-0.00067314506,0.001546666,0.00091171265,-4.5776367e-05,9.1552734e-05,-6.1035156e-05
2019-07-01T19:21:52.859Z,-0.009347287,-0.0072968616,0.4974068,0.031829834,-0.23043823,9.801956,17.69104,26.107788,-93.77289,0.03295346,-0.23021474,9.803892,0.0007903911,0.0002181977,-0.002576828,-4.5776367e-05,3.0517578e-05,0.0
2019-07-01T19:21:53.060Z,-0.009361117,-0.007279988,0.4973877,0.034225464,-0.23066711,9.8029175,17.700195,26.480103,-94.529724,0.03253652,-0.23028469,9.803891,-0.0011887215,-0.0006707758,0.00019073486,0.0001373291,-9.1552734e-05,0.00018310547
2019-07-01T19:21:53.261Z,-0.009350349,-0.0073094363,0.49743763,0.03492737,-0.23114014,9.802673,17.256165,25.72937,-95.721436,0.03312932,-0.23039067,9.803887,0.001329273,-6.182492e-05,0.001247406,0.0001373291,9.1552734e-05,6.1035156e-05
2019-07-01T19:21:53.467Z,-0.009339583,-0.007337318,0.49748418,0.033981323,-0.23043823,9.802444,18.46466,25.735474,-95.469666,0.033696316,-0.2304813,9.803883,0.0017246567,-0.0006952435,-0.00060749054,7.6293945e-05,0.00021362305,-1.5258789e-05
2019-07-01T19:21:53.669Z,-0.0093349675,-0.007319116,0.49743935,0.033493042,-0.23066711,9.800278,19.236755,26.72882,-94.76929,0.03344363,-0.23022352,9.803891,0.00029870495,-0.00047905743,6.389618e-05,0.0002593994,9.1552734e-05,0.0
2019-07-01T19:21:53.874Z,-0.009345945,-0.007324532,0.4974646,0.029907227,-0.23066711,9.8022,17.57965,27.191162,-93.24646,0.033421934,-0.23046404,9.8038845,-0.00015025958,-0.0007431507,-0.0014038086,1.5258789e-05,-3.0517578e-05,0.00018310547
2019-07-01T19:21:54.073Z,-0.009365712,-0.00726341,0.4973578,0.034942627,-0.2311554,9.800278,18.762207,26.539612,-92.97638,0.032217603,-0.2302001,9.803896,-0.0025335923,0.00020967424,0.00097465515,7.6293945e-05,9.1552734e-05,-0.00032043457
2019-07-01T19:21:54.277Z,-0.009351758,-0.00731313,0.4974473,0.03517151,-0.23330688,9.799088,19.306946,28.031921,-93.070984,0.033175834,-0.23045103,9.803885,0.002492696,-0.0005209446,-0.001742363,-4.5776367e-05,3.0517578e-05,0.0
2019-07-01T19:21:54.479Z,-0.009388394,-0.007364515,0.49760315,0.033981323,-0.23187256,9.802673,19.163513,26.641846,-93.800354,0.033650875,-0.23158155,9.803858,0.0008153133,-0.0022798479,-0.0017929077,0.0001373291,3.0517578e-05,-6.1035156e-05
2019-07-01T19:21:54.682Z,-0.009367236,-0.007360693,0.4975687,0.031829834,-0.22827148,9.805069,17.510986,25.733948,-93.766785,0.03380157,-0.23118304,9.803866,0.0004162751,-0.0004976392,0.002456665,0.00038146973,3.0517578e-05,-0.0001373291
2019-07-01T19:21:54.884Z,-0.009325286,-0.007292231,0.4973696,0.0335083,-0.23091125,9.8033905,17.74292,25.532532,-94.19556,0.033099215,-0.2297939,9.803902,-0.0015095286,0.0014947057,0.0021066666,0.0001373291,-3.0517578e-05,0.00012207031
2019-07-01T19:21:55.089Z,-0.009347402,-0.0073067984,0.49742833,0.03277588,-0.2318573,9.800049,18.251038,26.148987,-94.3161,0.033115674,-0.23031445,9.803889,0.00039636716,-0.00086694956,0.00013446808,-4.5776367e-05,3.0517578e-05,0.00012207031
2019-07-01T19:21:55.290Z,-0.009382449,-0.007324037,0.49750882,0.032546997,-0.23306274,9.8029175,17.120361,26.228333,-95.085144,0.033045508,-0.23108189,9.803872,-0.0004914887,-0.0013128072,-0.0019836426,-0.00010681152,-0.00019836426,6.1035156e-05
2019-07-01T19:21:55.493Z,-0.009399547,-0.0073363497,0.4975565,0.031585693,-0.2311554,9.796692,17.863464,25.045776,-96.33789,0.033075374,-0.23149467,9.803863,-0.00052183494,-0.00065253675,0.00027656555,1.5258789e-05,-3.0517578e-05,0.00012207031
2019-07-01T19:21:55.690Z,-0.009404113,-0.0073355827,0.4975605,0.035888672,-0.23187256,9.803879,18.486023,26.246643,-95.51544,0.03301668,-0.23156497,9.80386,-0.0004586242,0.0005761683,-0.0026788712,-0.00010681152,-3.0517578e-05,0.000289917
2019-07-01T19:21:55.897Z,-0.009393094,-0.0073794317,0.49764103,0.035888672,-0.23449707,9.801712,18.103027,26.506042,-94.61517,0.0338486,-0.23180853,9.803851,0.0020478591,-0.0005903691,0.002038002,1.5258789e-05,-9.1552734e-05,0.000289917
2019-07-01T19:21:56.100Z,-0.0093989335,-0.0074439812,0.4977869,0.034698486,-0.23138428,9.800049,18.917847,26.629639,-94.17114,0.034850426,-0.23254365,9.80383,0.0008016266,-0.0015305877,0.0002412796,7.6293945e-05,-0.00019836426,0.00024414062
2019-07-01T19:21:56.307Z,-0.009378726,-0.007416778,0.4977034,0.032546997,-0.23234558,9.803162,19.204712,25.772095,-93.90564,0.034607418,-0.23193108,9.803845,-0.00014331937,0.00072558224,-0.0012779236,7.6293945e-05,0.00015258789,-0.00012207031
2019-07-01T19:21:56.509Z,-0.009404987,-0.0073837866,0.49766514,0.03781128,-0.22779846,9.8033905,19.477844,26.51825,-93.76221,0.033800118,-0.23205428,9.803846,-0.0014906786,-0.00058065355,0.001698494,1.5258789e-05,-3.0517578e-05,0.00012207031
2019-07-01T19:21:56.718Z,-0.009376226,-0.007313668,0.49747884,0.031585693,-0.23091125,9.8022,18.528748,26.742554,-92.9245,0.03293783,-0.23087369,9.803876,-0.0013453662,0.0023106188,-0.00014972687,0.0002593994,0.00016784668,0.00016784668
2019-07-01T19:21:56.915Z,-0.009307022,-0.007400639,0.49757978,0.034225464,-0.23091125,9.800522,18.476868,25.724792,-93.88428,0.035065826,-0.23054905,9.803877,0.0041845627,-0.00014950335,0.0013389587,1.5258789e-05,-7.6293945e-05,-0.00018310547
2019-07-01T19:21:57.114Z,-0.009314075,-0.0074095675,0.4976077,0.034210205,-0.23138428,9.801956,17.997742,25.686646,-93.26782,0.035141435,-0.23075728,9.803872,-0.0006796345,-0.0006759465,-0.001499176,1.5258789e-05,-0.00015258789,4.5776367e-05
2019-07-01T19:21:57.319Z,-0.009345836,-0.0074079107,0.49764356,0.03565979,-0.22947693,9.801239,18.591309,24.790955,-94.76013,0.034793675,-0.23128279,9.803862,-0.0010487773,-0.0008699447,-0.0002040863,7.6293945e-05,-9.1552734e-05,-0.00019836426
2019-07-01T19:21:57.523Z,-0.009298475,-0.007379902,0.49752465,0.034454346,-0.2280426,9.801483,18.952942,25.764465,-94.877625,0.034811147,-0.23019911,9.803885,-0.000104904175,0.0021052212,2.5749207e-05,-0.00010681152,-9.1552734e-05,0.0
2019-07-01T19:21:57.723Z,-0.0092760585,-0.007361591,0.49745753,0.036132812,-0.2328186,9.801956,18.2724,25.07019,-95.89844,0.034736212,-0.22963645,9.803899,-2.9388815e-05,0.0013098568,-0.00030708313,0.0001373291,9.1552734e-05,6.1035156e-05
2019-07-01T19:21:57.930Z,-0.009308193,-0.0073005767,0.4973663,0.03062439,-0.22898865,9.802673,17.567444,25.38147,-95.20111,0.033408836,-0.22958438,9.8039055,-0.0022888929,-0.00090382993,0.00042819977,0.0001373291,-3.0517578e-05,0.00016784668
2019-07-01T19:21:58.129Z,-0.009314499,-0.007341359,0.49746174,0.032058716,-0.22970581,9.8022,18.528748,26.96991,-94.23828,0.0340158,-0.23009317,9.803891,0.001161743,-0.00085890293,0.0007648468,7.6293945e-05,0.00016784668,-0.00012207031
2019-07-01T19:21:58.332Z,-0.009327709,-0.007369772,0.49753916,0.037322998,-0.23187256,9.805069,19.358826,27.532959,-93.93005,0.034349665,-0.23059814,9.803879,0.0008278191,-0.0015434176,2.7656555e-05,0.0001373291,-0.0001373291,-0.00012207031
2019-07-01T19:21:58.534Z,-0.0093225865,-0.0073280754,0.49744323,0.03326416,-0.22970581,9.800278,19.02008,27.145386,-94.06891,0.03371582,-0.23010045,9.803893,-0.0011627935,0.00035347044,-0.0018606186,7.6293945e-05,3.0517578e-05,0.0
2019-07-01T19:21:58.738Z,-0.009327256,-0.007299674,0.497388,0.030395508,-0.23019409,9.798843,19.65332,26.820374,-93.48297,0.033201735,-0.22990072,9.803899,-0.0011191554,0.00085248053,-0.0015525818,-0.00010681152,0.00015258789,0.0004119873
2019-07-01T19:21:58.940Z,-0.009387804,-0.0073113046,0.4974881,0.032058716,-0.23162842,9.8022,18.792725,27.0401,-91.81671,0.03278217,-0.23104794,9.803873,-0.00046864897,-0.002318859,-0.0013513565,0.0001373291,3.0517578e-05,0.00012207031
2019-07-01T19:21:59.141Z,-0.009393232,-0.007297954,0.49746618,0.037322998,-0.23353577,9.8033905,18.249512,26.074219,-94.1803,0.032507937,-0.23100922,9.803875,-0.00019486621,-0.0006918162,0.00020122528,0.00019836426,3.0517578e-05,0.00018310547
2019-07-01T19:21:59.339Z,-0.009360703,-0.0073822797,0.49760696,0.032302856,-0.23019409,9.799332,17.758179,25.820923,-93.83392,0.034222335,-0.23128408,9.803864,0.0031080507,-0.0013555735,0.0018882751,0.00019836426,-0.00015258789,0.00012207031
2019-07-01T19:21:59.544Z,-0.009365024,-0.007323476,0.497486,0.0335083,-0.23091125,9.805069,18.608093,26.8219,-93.44025,0.033212088,-0.23077911,9.803878,-0.002578579,0.00027750432,-0.0011367798,0.00019836426,-3.0517578e-05,0.0004119873
2019-07-01T19:21:59.749Z,-0.00934588,-0.007334245,0.4974854,0.03302002,-0.2318573,9.801239,18.092346,26.287842,-94.58313,0.033582278,-0.23055848,9.803882,0.0008771308,-0.00014340878,0.002421379,7.6293945e-05,-3.0517578e-05,6.1035156e-05
2019-07-01T19:21:59.960Z,-0.009367057,-0.007333163,0.49750933,0.03086853,-0.22851562,9.803635,17.346191,25.801086,-94.88068,0.033350836,-0.23090911,9.803875,-0.0005697273,-0.0007555336,-0.00013637543,-4.5776367e-05,-7.6293945e-05,0.00018310547
2019-07-01T19:22:00.157Z,-0.009336064,-0.0072803213,0.49735737,0.030151367,-0.23042297,9.801483,17.204285,26.15509,-94.573975,0.032794688,-0.22986063,9.803902,-0.0016771518,0.0022722185,0.00022602081,1.5258789e-05,-3.0517578e-05,0.000289917
2019-07-01T19:22:00.361Z,-0.009380108,-0.007280087,0.4974115,0.034225464,-0.22994995,9.80101,18.437195,26.820374,-94.64264,0.0323466,-0.23060961,9.8038845,-0.0009992383,-0.0013043433,-0.0006418228,-4.5776367e-05,3.0517578e-05,0.00012207031
2019-07-01T19:22:00.567Z,-0.009355394,-0.007300485,0.49742466,0.032546997,-0.22875977,9.8029175,18.147278,27.604675,-94.84711,0.032931253,-0.23038866,9.803887,0.0013011284,0.00063444674,-0.0005893707,-0.00016784668,-3.0517578e-05,0.00012207031
2019-07-01T19:22:00.771Z,-0.009332231,-0.007251754,0.4972912,0.034210205,-0.2280426,9.7986145,19.714355,26.38855,-93.647766,0.03236357,-0.22951432,9.80391,-0.00077220425,0.0016756207,0.00072574615,1.5258789e-05,3.0517578e-05,0.00018310547
2019-07-01T19:22:00.970Z,-0.009293389,-0.00728733,0.4973195,0.03565979,-0.23306274,9.801727,19.729614,26.525879,-92.41333,0.033340283,-0.22920157,9.803916,0.001368124,0.00086186826,-0.0023832321,1.5258789e-05,-0.00015258789,0.000289917
2019-07-01T19:22:01.174Z,-0.009322523,-0.0073345755,0.49745712,0.033493042,-0.22994995,9.8029175,18.911743,26.40686,-93.5379,0.03382333,-0.23016334,9.803891,0.0008837506,-0.0019965917,0.0008010864,0.0002593994,-3.0517578e-05,0.000289917
2019-07-01T19:22:01.378Z,-0.009324829,-0.0073559196,0.49750584,0.030395508,-0.23187256,9.803879,18.586731,26.461792,-94.192505,0.03415098,-0.23041268,9.803884,0.00055549294,-0.0012696385,0.00036525726,-4.5776367e-05,3.0517578e-05,6.1035156e-05
2019-07-01T19:22:01.580Z,-0.009384877,-0.0072993254,0.49745876,0.03492737,-0.23162842,9.800766,17.86499,26.335144,-93.20679,0.03261477,-0.2308802,9.803878,-0.0027024746,-0.0010282546,0.0015249252,1.5258789e-05,3.0517578e-05,0.000289917
2019-07-01T19:22:01.780Z,-0.0093698045,-0.0073339883,0.49751452,0.033981323,-0.23042297,9.799088,18.69812,25.38147,-94.644165,0.033336677,-0.23096408,9.803873,0.0013674237,-0.00021494925,-0.00026607513,0.0001373291,3.0517578e-05,0.0004119873
2019-07-01T19:22:01.987Z,-0.00933633,-0.007328733,0.4974617,0.032302856,-0.23019409,9.801239,18.673706,26.766968,-94.88678,0.033587996,-0.23034136,9.803887,0.00016008317,0.00031669438,-0.0030536652,0.00019836426,-0.00015258789,0.00018310547
2019-07-01T19:22:02.188Z,-0.009366821,-0.0073185395,0.49747762,0.032546997,-0.23091125,9.8022,17.376709,26.612854,-95.469666,0.033112813,-0.2307612,9.803879,-0.0012736581,-0.0004438907,0.0008363724,-0.00016784668,-9.1552734e-05,0.00035095215
2019-07-01T19:22:02.388Z,-0.009349544,-0.007327545,0.49747553,0.033981323,-0.23042297,9.8029175,18.90564,26.412964,-94.29169,0.033435162,-0.23055506,9.803882,0.0003085807,0.0003157109,0.0016765594,7.6293945e-05,-9.1552734e-05,0.00024414062
2019-07-01T19:22:02.591Z,-0.009333635,-0.007335328,0.49747252,0.03326416,-0.23257446,9.801483,19.230652,26.506042,-94.13452,0.033723615,-0.23036027,9.803886,0.0002651438,-0.00035762787,-0.00048542023,0.00019836426,-0.00019836426,0.0004119873
2019-07-01T19:22:02.796Z,-0.009365118,-0.007355639,0.49755523,0.033981323,-0.22947693,9.799561,19.230652,26.27716,-92.89703,0.03373986,-0.23109716,9.803868,-0.0007127188,-0.0012972206,0.00015735626,-4.5776367e-05,-3.0517578e-05,0.000289917
2019-07-01T19:22:03.006Z,-0.0093471585,-0.007341768,0.49750313,0.032546997,-0.23066711,9.8022,19.16809,26.789856,-93.618774,0.033693057,-0.23065431,9.803879,-0.00019004568,0.00063611567,-0.0016469955,0.0001373291,-0.00015258789,0.00016784668
2019-07-01T19:22:03.204Z,-0.009329266,-0.0073334165,0.497463,0.032546997,-0.2270813,9.803635,19.496155,26.80664,-93.099976,0.033736255,-0.23026694,9.803888,-0.00046267733,8.583069e-06,0.000330925,0.0001373291,-0.00015258789,0.00047302246
2019-07-01T19:22:03.402Z,-0.009293952,-0.0072844164,0.49731392,0.03326416,-0.22947693,9.801483,17.60254,25.956726,-93.725586,0.033286683,-0.22918248,9.803915,-0.0009777881,0.0023037344,0.0019712448,1.5258789e-05,3.0517578e-05,0.00018310547
2019-07-01T19:22:03.608Z,-0.009285655,-0.0072765066,0.49728665,0.033737183,-0.22779846,9.801239,18.33496,24.481201,-94.73572,0.03324027,-0.22896315,9.803921,-0.00021322072,-0.00079108775,-0.00060749054,0.00019836426,-3.0517578e-05,0.00012207031
2019-07-01T19:22:03.807Z,-0.0092601655,-0.007273389,0.49724835,0.032058716,-0.23187256,9.8022,17.318726,24.91455,-93.32123,0.033445958,-0.22849762,9.80393,0.0005434416,0.0008881241,-0.0005683899,7.6293945e-05,3.0517578e-05,0.00012207031
2019-07-01T19:22:04.014Z,-0.009324606,-0.0072822003,0.49734718,0.032302856,-0.23162842,9.8022,17.69104,26.261902,-94.64722,0.03294114,-0.22968365,9.8039055,-0.0008766055,-0.0024583787,0.0012178421,-0.00010681152,3.0517578e-05,6.1035156e-05
2019-07-01T19:22:04.218Z,-0.009346913,-0.007285373,0.49738166,0.03326416,-0.2280426,9.802673,17.514038,26.034546,-95.21484,0.03276833,-0.23009537,9.803896,-0.00045895576,-0.0011058152,-0.00046157837,0.00019836426,3.0517578e-05,0.00018310547
2019-07-01T19:22:04.417Z,-0.009331052,-0.0072587356,0.49730477,0.031341553,-0.2280426,9.801956,18.33191,26.23291,-94.833374,0.03249027,-0.22956285,9.803908,0.0002913028,0.00076286495,0.0004825592,0.0001373291,4.5776367e-05,0.00024414062
2019-07-01T19:22:04.623Z,-0.0093040615,-0.0072295703,0.49720863,0.031829834,-0.22947693,9.799561,18.125916,25.349426,-95.3064,0.032282732,-0.22881566,9.803926,-0.001163818,0.0014459789,-0.00031852722,-0.00010681152,-9.1552734e-05,0.00018310547
2019-07-01T19:22:04.859Z,-0.0093140025,-0.0072615915,0.49728975,0.034210205,-0.23019409,9.803879,19.049072,26.05896,-94.52057,0.03270916,-0.2293001,9.803915,8.988753e-05,-0.0019107461,0.00016880035,0.00019836426,-9.1552734e-05,6.1035156e-05
2019-07-01T19:22:05.084Z,-0.009313926,-0.0072895545,0.49734974,0.030395508,-0.2280426,9.801239,18.830872,26.325989,-93.0954,0.03316977,-0.22957377,9.803906,0.0010455288,-0.0008844435,0.001707077,1.5258789e-05,3.0517578e-05,-6.1035156e-05
2019-07-01T19:22:05.282Z,-0.009312025,-0.007248558,0.4972593,0.032302856,-0.22875977,9.801239,17.881775,26.69983,-93.055725,0.032514747,-0.22913823,9.80392,-0.0018840171,0.0015392154,-0.0007686615,1.5258789e-05,-3.0517578e-05,0.000289917
2019-07-01T19:22:05.484Z,-0.009324198,-0.007239413,0.49725473,0.034225464,-0.23042297,9.800766,19.386292,26.295471,-93.95752,0.032241616,-0.22925594,9.803917,-0.00040442124,-0.00074632466,-0.00066947937,1.5258789e-05,-3.0517578e-05,0.00016784668
2019-07-01T19:22:05.690Z,-0.009297855,-0.007260704,0.4972678,0.0335083,-0.2311554,9.800278,18.507385,26.457214,-94.03839,0.03285736,-0.2290159,9.803921,0.0008880943,0.00019849837,-0.00045871735,0.0001373291,-0.00015258789,0.00018310547
2019-07-01T19:22:05.891Z,-0.009323004,-0.007314523,0.49741465,0.031585693,-0.22851562,9.799088,18.255615,26.298523,-94.51294,0.033488784,-0.22997424,9.803896,0.0012188144,-0.002433911,-0.00046253204,1.5258789e-05,4.5776367e-05,0.000289917
2019-07-01T19:22:06.088Z,-0.009325999,-0.0072460254,0.49727118,0.036132812,-0.23091125,9.803635,18.507385,26.608276,-94.914246,0.032332208,-0.22935167,9.803914,-0.002169121,0.0009970367,-0.001745224,7.6293945e-05,-3.0517578e-05,0.00018310547
2019-07-01T19:22:06.292Z,-0.00930499,-0.00730123,0.49736375,0.0284729,-0.22564697,9.801956,17.578125,25.67749,-95.44525,0.03345188,-0.22953619,9.803907,0.0017280094,-0.00024239719,0.0021848679,-0.00010681152,-0.00019836426,0.00016784668
2019-07-01T19:22:06.494Z,-0.009288588,-0.0072455457,0.49722376,0.03517151,-0.22898865,9.800278,17.749023,25.906372,-95.40558,0.03270149,-0.22870874,9.803928,-0.0020696446,0.0022924691,0.00050640106,1.5258789e-05,-3.0517578e-05,0.00012207031
2019-07-01T19:22:06.705Z,-0.009261084,-0.0072720246,0.49724656,0.033737183,-0.22827148,9.800522,18.971252,26.356506,-95.814514,0.033414252,-0.22849987,9.80393,0.0015378483,-8.0540776e-05,-0.0011014938,0.00019836426,9.1552734e-05,0.00012207031
2019-07-01T19:22:06.911Z,-0.009265904,-0.007274008,0.4972568,0.029907227,-0.22779846,9.800995,18.392944,26.02539,-95.858765,0.033398286,-0.22860162,9.803928,0.00034986064,-0.0011792481,-0.0009050369,0.0001373291,3.0517578e-05,0.00035095215
2019-07-01T19:22:07.111Z,-0.0092638265,-0.007209084,0.4971147,0.035888672,-0.22827148,9.804108,18.652344,26.101685,-94.114685,0.03235128,-0.22792788,9.803947,-0.0024355315,0.0012595356,0.0013093948,0.0001373291,-0.0002593994,0.0
2019-07-01T19:22:07.313Z,-0.009249714,-0.007268423,0.49722472,0.031829834,-0.23019409,9.800522,18.8797,25.753784,-94.04755,0.033469632,-0.22827049,9.803936,0.0014791824,-0.0012486428,0.0015106201,0.0001373291,3.0517578e-05,0.0
2019-07-01T19:22:07.517Z,-0.009249722,-0.0072622723,0.49721152,0.033737183,-0.23066711,9.800766,18.891907,26.046753,-94.13757,0.033368383,-0.22821017,9.803939,-9.543821e-05,-0.0006096661,-0.0015525818,0.00019836426,3.0517578e-05,-6.1035156e-05
2019-07-01T19:22:07.724Z,-0.009293622,-0.007294397,0.49733496,0.033493042,-0.23091125,9.799332,18.719482,27.558899,-93.51807,0.033454146,-0.22927502,9.803912,4.8007816e-05,-0.0028888732,-0.00024700165,0.0001373291,-3.0517578e-05,0.0
2019-07-01T19:22:07.921Z,-0.009308063,-0.007301907,0.49736902,0.032302856,-0.22970581,9.799561,18.33191,26.002502,-93.444824,0.033432018,-0.22959524,9.803905,0.00031586736,-0.001145333,-0.0009622574,0.00019836426,0.00015258789,0.00012207031
2019-07-01T19:22:08.119Z,-0.009309787,-0.0072729774,0.497309,0.033493042,-0.22875977,9.803635,18.075562,25.616455,-93.05878,0.0329389,-0.22934015,9.803913,-0.0006236248,-0.00045214593,-0.0011281967,0.00019836426,-0.00015258789,6.1035156e-05
2019-07-01T19:22:08.325Z,-0.009282123,-0.0072746845,0.49727836,0.033737183,-0.22923279,9.803162,18.309021,25.720215,-94.86084,0.0332459,-0.228885,9.803923,2.6423484e-05,0.0003131926,0.0025911331,7.6293945e-05,3.0517578e-05,0.00012207031
2019-07-01T19:22:08.529Z,-0.009269282,-0.0072837905,0.497282,0.034698486,-0.22923279,9.8033905,19.1391,26.358032,-94.91577,0.03352513,-0.22875546,9.803925,0.00021896139,-5.1483512e-05,0.0007696152,1.5258789e-05,-3.0517578e-05,0.000289917
2019-07-01T19:22:08.731Z,-0.009258543,-0.007292874,0.4972882,0.033737183,-0.22947693,9.801239,17.38739,25.00763,-95.34607,0.033782803,-0.2286616,9.803926,0.0009203777,-0.00012993813,0.0013141632,0.0001373291,-9.1552734e-05,0.0004119873
2019-07-01T19:22:08.938Z,-0.009284717,-0.0073153814,0.497369,0.03517151,-0.22970581,9.804825,17.878723,25.260925,-95.69092,0.033889033,-0.22932951,9.803909,9.818375e-05,-0.0013774782,-0.00072193146,-0.00010681152,-3.0517578e-05,-6.1035156e-05
2019-07-01T19:22:09.139Z,-0.009276202,-0.0073485635,0.49742973,0.034698486,-0.23019409,9.802429,17.756653,26.205444,-96.250916,0.034520555,-0.2295107,9.803903,0.0011429973,0.0002528727,0.0012731552,-4.5776367e-05,0.0002746582,-0.00019836426
2019-07-01T19:22:09.343Z,-0.009293446,-0.0073406724,0.49743417,0.034454346,-0.22779846,9.802673,19.819641,27.359009,-95.64514,0.034216873,-0.22972725,9.803899,0.0009585321,-0.00049299,-0.00010967255,0.0001373291,0.00021362305,-6.1035156e-05
2019-07-01T19:22:09.544Z,-0.009288898,-0.007306838,0.49735585,0.033493042,-0.23258972,9.801956,18.586731,26.461792,-94.19098,0.03370638,-0.22931679,9.80391,-0.0006818138,0.0007702559,-0.00038909912,-4.5776367e-05,9.1552734e-05,-0.00032043457
2019-07-01T19:22:09.799Z,-0.009363647,-0.007346475,0.4975337,0.037322998,-0.23066711,9.8022,19.134521,25.982666,-93.40515,0.033604074,-0.2309819,9.803872,0.00013696402,-0.001390174,0.00041484833,1.5258789e-05,-3.0517578e-05,0.00012207031
2019-07-01T19:22:09.992Z,-0.009332281,-0.0073663592,0.4975375,0.033493042,-0.2337799,9.800278,18.118286,26.490784,-92.430115,0.03424743,-0.23064251,9.803877,0.0016469359,0.00041007996,-0.0010080338,0.00019836426,0.00021362305,-0.00012207031
2019-07-01T19:22:10.201Z,-0.0093803825,-0.0073738135,0.4976132,0.033981323,-0.23449707,9.801239,17.43164,25.802612,-94.203186,0.03388456,-0.23153642,9.803858,-0.00038369,-0.0020528585,-0.0013151169,1.5258789e-05,-9.1552734e-05,6.1035156e-05
2019-07-01T19:22:10.406Z,-0.009412468,-0.007417282,0.49774638,0.033981323,-0.23210144,9.804108,18.91632,26.631165,-94.3985,0.034275036,-0.2325116,9.803833,0.00043031573,-0.0017879158,0.0005598068,1.5258789e-05,9.1552734e-05,-0.0001373291
2019-07-01T19:22:10.609Z,-0.009414543,-0.007391376,0.4976933,0.03302002,-0.23019409,9.801483,18.171692,26.219177,-94.60144,0.033828378,-0.23229195,9.80384,0.00015849993,-0.00080893934,0.0006875992,0.00019836426,0.0002746582,0.00012207031
2019-07-01T19:22:10.810Z,-0.009379595,-0.0073559885,0.4975739,0.03517151,-0.22947693,9.801239,18.38379,25.653076,-95.17822,0.033599526,-0.23134753,9.803863,-0.00010058284,0.0016010851,-0.00018501282,0.0002593994,0.00015258789,0.0
2019-07-01T19:22:11.012Z,-0.009342495,-0.007357747,0.49753168,0.034454346,-0.2311554,9.805542,18.003845,26.290894,-95.7901,0.034002785,-0.23073204,9.803877,0.0009316243,0.0004901737,-0.00060749054,1.5258789e-05,3.0517578e-05,0.00012207031
2019-07-01T19:22:11.219Z,-0.009338175,-0.0073523126,0.49751464,0.033981323,-0.23306274,9.801239,19.148254,26.50299,-94.58313,0.03395703,-0.23060483,9.803879,0.00027203932,0.0003862381,0.0019865036,7.6293945e-05,-3.0517578e-05,0.0
2019-07-01T19:22:11.422Z,-0.009375859,-0.0073542446,0.49756554,0.031585693,-0.23091125,9.804352,17.778015,26.182556,-93.385315,0.03360856,-0.23126668,9.803865,-0.00082791224,-0.0020730197,-0.000746727,0.0002593994,3.0517578e-05,0.0
2019-07-01T19:22:11.625Z,-0.009362612,-0.007331147,0.4974995,0.033493042,-0.23019409,9.804596,18.379211,25.505066,-94.83032,0.033362534,-0.23081344,9.803877,-0.00058374926,0.00035509467,0.0010852814,1.5258789e-05,-3.0517578e-05,6.1035156e-05
2019-07-01T19:22:11.828Z,-0.009352507,-0.0073252525,0.49747428,0.03565979,-0.23091125,9.800766,18.869019,25.764465,-95.47882,0.033367578,-0.23058309,9.803883,0.00037130713,0.0006213933,0.0007247925,-0.00010681152,3.0517578e-05,0.00024414062
2019-07-01T19:22:12.030Z,-0.009350778,-0.007363045,0.49755332,0.034225464,-0.23114014,9.803162,18.508911,26.377869,-93.37463,0.03400631,-0.23092546,9.803872,0.0011682622,-0.0007237643,-0.00078868866,1.5258789e-05,3.0517578e-05,0.00012207031
2019-07-01T19:22:12.235Z,-0.009363151,-0.007371931,0.49758777,0.033981323,-0.2328186,9.804352,18.948364,27.210999,-93.45093,0.034027517,-0.23122397,9.803865,-4.306063e-05,-0.00018161535,-4.4822693e-05,-0.00010681152,-3.0517578e-05,0.00024414062
2019-07-01T19:22:12.429Z,-0.009370392,-0.007387179,0.4976295,0.030395508,-0.23066711,9.8033905,18.441772,26.815796,-94.03839,0.034205064,-0.23149757,9.803858,0.00025107712,-0.00038714707,0.0007648468,7.6293945e-05,-0.00015258789,6.1035156e-05
2019-07-01T19:22:12.635Z,-0.009389952,-0.0073243445,0.4975188,0.03565979,-0.22994995,9.801239,18.170166,26.14441,-94.46716,0.032974854,-0.23121288,9.803869,-0.0025773756,-0.00018522143,-0.00013637543,0.0001373291,3.0517578e-05,0.00018310547
2019-07-01T19:22:12.854Z,-0.009338501,-0.007353908,0.49751848,0.033981323,-0.22875977,9.8033905,17.042542,26.06659,-94.0567,0.03397998,-0.23062609,9.803879,0.0019120164,0.0013707727,-0.0007200241,1.5258789e-05,-9.1552734e-05,0.00012207031
2019-07-01T19:22:13.039Z,-0.009327934,-0.007340389,0.49747634,0.03302002,-0.22970581,9.801956,17.926025,26.12915,-94.68384,0.033864327,-0.23031284,9.803887,-0.0003518574,0.0005786866,-0.00048065186,1.5258789e-05,3.0517578e-05,0.0
2019-07-01T19:22:13.241Z,-0.009316178,-0.007323367,0.49742517,0.033981323,-0.23019409,9.802673,17.372131,26.387024,-94.68689,0.033703048,-0.2299448,9.803896,-0.00020554289,0.0006815493,-0.00016880035,1.5258789e-05,9.1552734e-05,6.1035156e-05
2019-07-01T19:22:13.447Z,-0.009306231,-0.0073158336,0.49739665,0.034454346,-0.22970581,9.803635,18.803406,26.121521,-95.40253,0.033679504,-0.22970101,9.803903,0.00030618906,-0.00027875602,4.386902e-05,0.00019836426,9.1552734e-05,0.0
2019-07-01T19:22:13.651Z,-0.009296414,-0.007298984,0.49734828,0.032546997,-0.22851562,9.802444,19.696045,26.100159,-94.23523,0.03350142,-0.22936776,9.803909,-5.7145953e-06,-0.00035630167,0.0009775162,0.00019836426,3.0517578e-05,-0.00012207031
2019-07-01T19:22:13.856Z,-0.009284286,-0.007274791,0.49728125,0.03517151,-0.23091125,9.802673,18.893433,26.272583,-95.225525,0.033225846,-0.22892293,9.803922,-0.00043071434,0.0003798008,-0.0007867813,0.0001373291,3.0517578e-05,6.1035156e-05
2019-07-01T19:22:14.060Z,-0.009292561,-0.007326784,0.49740323,0.034698486,-0.22994995,9.801956,19.39087,26.367188,-93.86902,0.033997435,-0.22957548,9.803903,0.001895342,-0.0013634712,-4.673004e-05,0.0001373291,0.00015258789,-6.1035156e-05
2019-07-01T19:22:14.262Z,-0.009295147,-0.0073356633,0.4974255,0.032058716,-0.23043823,9.800278,19.166565,26.715088,-93.559265,0.033321302,-0.22963332,9.8039055,0.00058665127,-0.0007684529,-0.000828743,1.5258789e-05,0.00015258789,6.1035156e-05
2019-07-01T19:22:14.499Z,-0.009289311,-0.007299647,0.4973409,0.033981323,-0.23138428,9.801483,18.634033,27.255249,-92.59796,0.033583965,-0.22925313,9.803913,0.00087605044,-0.00026251376,0.00088882446,0.00032043457,9.1552734e-05,0.0
2019-07-01T19:22:14.688Z,-0.009299895,-0.0072976975,0.49734983,0.03326416,-0.23091125,9.801956,17.796326,26.470947,-92.648315,0.03344517,-0.22941451,9.803909,0.0005434714,-0.00082975626,-0.0009994507,1.5258789e-05,0.00021362305,-6.1035156e-05
2019-07-01T19:22:14.923Z,-0.009324982,-0.0072879633,0.49736005,0.032302856,-0.23066711,9.799805,18.634033,25.663757,-94.355774,0.033032108,-0.22974673,9.803903,-0.0004784055,-0.00096701086,0.00028705597,7.6293945e-05,9.1552734e-05,0.0
2019-07-01T19:22:15.118Z,-0.009363304,-0.0072946907,0.49742204,0.036132812,-0.23042297,9.804352,17.921448,25.98114,-94.1864,0.032756202,-0.2304666,9.803886,-0.00044412538,-0.0012266785,-0.0015668869,7.6293945e-05,3.0517578e-05,0.00012207031
2019-07-01T19:22:15.321Z,-0.009311572,-0.007348211,0.49747282,0.034210205,-0.23114014,9.8022,17.901611,25.77362,-95.73822,0.034158,-0.23011065,9.80389,0.0029405951,-0.00011360645,0.0029363632,0.0002593994,3.0517578e-05,-6.1035156e-05
2019-07-01T19:22:15.528Z,-0.009317563,-0.007341064,0.49746493,0.035888672,-0.23425293,9.804108,17.604065,26.182556,-94.73724,0.033980053,-0.23014256,9.803891,-0.00048129633,-0.0012804419,-0.0007581711,0.00019836426,-3.0517578e-05,0.0
2019-07-01T19:22:15.731Z,-0.009356087,-0.0074108765,0.49766263,0.032302856,-0.22898865,9.804596,18.026733,26.802063,-95.76111,0.03473895,-0.23148684,9.803857,0.001640942,-0.0027856678,0.0015687943,1.5258789e-05,3.0517578e-05,6.1035156e-05
2019-07-01T19:22:15.932Z,-0.009338935,-0.007338129,0.49748513,0.034210205,-0.23162842,9.802673,19.621277,26.316833,-94.86847,0.033716194,-0.23047824,9.803884,-0.0023732334,0.0012358278,0.0008773804,0.0002593994,-0.00015258789,0.00012207031
2019-07-01T19:22:16.135Z,-0.009330235,-0.0073507163,0.49750137,0.036605835,-0.2280426,9.8033905,18.977356,26.348877,-95.062256,0.0340109,-0.23045371,9.803884,0.00091850385,-0.0009443462,-0.00037956238,0.0002593994,0.00015258789,-0.00024414062
2019-07-01T19:22:16.338Z,-0.009261,-0.007363772,0.49744353,0.03517151,-0.23066711,9.804596,19.032288,25.619507,-94.23065,0.034923967,-0.22940104,9.803905,0.0021730363,0.0015836209,-0.00042057037,7.6293945e-05,9.1552734e-05,6.1035156e-05
2019-07-01T19:22:16.544Z,-0.009267619,-0.007360442,0.4974446,0.03541565,-0.23162842,9.8033905,20.040894,26.557922,-94.00482,0.03480245,-0.22948119,9.803904,0.000369858,-0.000947088,0.0011472702,0.0001373291,0.00015258789,0.00018310547
2019-07-01T19:22:16.745Z,-0.0092996955,-0.00737599,0.49751776,0.033737183,-0.22947693,9.8022,18.374634,27.027893,-93.766785,0.034734525,-0.23018146,9.803887,0.00020974874,-0.0012137294,-0.0005054474,7.6293945e-05,9.1552734e-05,-0.00012207031
2019-07-01T19:22:16.944Z,-0.00929749,-0.0073475162,0.49745387,0.032546997,-0.23258972,9.801956,17.96112,26.7807,-93.64624,0.034288615,-0.2298636,9.803896,-0.0005480759,0.00036416948,-0.0009803772,1.5258789e-05,3.0517578e-05,-0.00012207031
2019-07-01T19:22:17.151Z,-0.009358151,-0.0073660878,0.49756902,0.034454346,-0.23162842,9.804596,18.806458,26.043701,-94.58771,0.033981934,-0.23108116,9.803868,-0.0012022369,-0.0022517145,-0.00033664703,-0.00010681152,-9.1552734e-05,0.00018310547
2019-07-01T19:22:17.352Z,-0.009369539,-0.007370244,0.49759206,0.033737183,-0.23210144,9.802429,18.107605,26.652527,-94.66095,0.033935316,-0.23131634,9.803864,0.0002760291,-0.00056399405,0.001534462,1.5258789e-05,3.0517578e-05,0.000289917
2019-07-01T19:22:17.553Z,-0.009380144,-0.0073697707,0.49760422,0.034454346,-0.23210144,9.801712,17.970276,25.561523,-96.01135,0.03382051,-0.23149258,9.80386,-0.0003245212,8.812547e-05,-0.0010490417,-0.00010681152,3.0517578e-05,6.1035156e-05
2019-07-01T19:22:17.758Z,-0.009378982,-0.0073845433,0.4976345,0.03326416,-0.22947693,9.80101,17.591858,25.738525,-93.844604,0.034075048,-0.23161815,9.803856,0.00085731596,-0.0005172342,-0.0011796951,0.00019836426,9.1552734e-05,-6.1035156e-05
2019-07-01T19:22:17.961Z,-0.009360962,-0.0073354486,0.49750668,0.03302002,-0.22972107,9.804108,18.63861,26.112366,-95.773315,0.033449903,-0.2308276,9.803876,-0.001140751,0.0008342266,-0.00079250336,0.0001373291,-3.0517578e-05,0.00016784668
2019-07-01T19:22:18.165Z,-0.009331273,-0.0073151877,0.49742633,0.034454346,-0.23210144,9.803162,17.671204,25.822449,-94.73572,0.03341631,-0.23012184,9.803893,8.071214e-05,0.0010905415,0.0013818741,0.00019836426,-3.0517578e-05,0.00012207031
2019-07-01T19:22:18.365Z,-0.009346538,-0.007346646,0.49751285,0.03541565,-0.23042297,9.803162,18.63861,26.04065,-95.63904,0.033779502,-0.23069176,9.803879,0.00020500273,-0.0021485835,0.00043582916,0.00019836426,-0.0001373291,0.0
2019-07-01T19:22:18.571Z,-0.009327429,-0.007385118,0.49757177,0.034698486,-0.23330688,9.805786,18.551636,27.404785,-93.69812,0.034604754,-0.2307444,9.803874,0.0010566302,-0.00042162836,0.00092983246,-4.5776367e-05,-0.00015258789,4.5776367e-05
2019-07-01T19:22:18.777Z,-0.009347973,-0.0074159014,0.49766338,0.03517151,-0.23019409,9.803879,20.524597,26.742554,-95.04547,0.034903433,-0.2313979,9.803858,0.00026684254,-0.0006953627,0.0015821457,-0.00016784668,3.0517578e-05,0.00024414062
2019-07-01T19:22:18.979Z,-0.009344126,-0.007421042,0.49766964,0.033737183,-0.23066711,9.801712,19.56482,26.594543,-93.299866,0.03502675,-0.23138289,9.803858,-9.878352e-05,0.00046767294,-0.0010166168,-4.5776367e-05,-0.0002593994,-6.1035156e-05
2019-07-01T19:22:19.179Z,-0.009338284,-0.00739836,0.49761367,0.036132812,-0.23091125,9.804108,18.75763,26.690674,-94.151306,0.03387944,-0.23075223,9.803877,-0.0013303235,0.00031481683,0.00012779236,0.0001373291,-3.0517578e-05,-0.00012207031
2019-07-01T19:22:19.393Z,-0.009323818,-0.007387113,0.4975716,0.03302002,-0.23066711,9.803162,19.078064,26.565552,-93.663025,0.034674,-0.23070243,9.803875,0.0014602542,-0.00044730306,0.00039672852,1.5258789e-05,-3.0517578e-05,-0.00012207031
2019-07-01T19:22:19.593Z,-0.009338419,-0.007384697,0.4975845,0.031585693,-0.23066711,9.801956,18.34259,26.373291,-94.200134,0.03448695,-0.23092772,9.80387,-0.0005018674,-8.687377e-06,-0.0013189316,-0.00010681152,9.1552734e-05,0.0
2019-07-01T19:22:19.846Z,-0.0093878675,-0.0073295543,0.4975274,0.033737183,-0.23258972,9.804108,18.385315,25.65155,-94.8761,0.03308153,-0.23122858,9.803868,-0.0024531335,-0.00018371642,-0.00023555756,-4.5776367e-05,9.1552734e-05,-6.1035156e-05
2019-07-01T19:22:20.042Z,-0.0093821725,-0.007342213,0.49754754,0.03565979,-0.23066711,9.801727,18.249512,25.92163,-93.15491,0.033347066,-0.23125598,9.803866,0.0008652769,-0.00014311075,0.0011138916,1.5258789e-05,9.1552734e-05,-0.00012207031
2019-07-01T19:22:20.241Z,-0.009357523,-0.007357095,0.4975489,0.03326416,-0.22970581,9.802444,17.99469,25.91858,-94.807434,0.033840433,-0.23098196,9.803871,0.0013349839,4.403293e-05,-0.0010118484,0.0002593994,9.1552734e-05,0.00012207031
2019-07-01T19:22:20.445Z,-0.009328516,-0.007339086,0.49747425,0.033981323,-0.23162842,9.800995,19.630432,26.460266,-94.462585,0.033837035,-0.23030993,9.803887,-9.666756e-05,0.00033830106,0.00042629242,0.0001373291,-0.00015258789,0.00018310547
2019-07-01T19:22:20.646Z,-0.009350387,-0.007362923,0.49755257,0.034454346,-0.23091125,9.802673,18.830872,26.47705,-93.97125,0.034008246,-0.23091759,9.803872,0.00022373721,-0.001228109,-0.0019445419,7.6293945e-05,3.0517578e-05,6.1035156e-05
2019-07-01T19:22:20.850Z,-0.00933347,-0.0073589054,0.49752298,0.035888672,-0.23187256,9.809143,18.919373,26.553345,-93.50891,0.034112893,-0.23058945,9.803879,-0.00012635812,0.00011599064,0.0007648468,7.6293945e-05,-9.1552734e-05,0.00012207031
2019-07-01T19:22:21.058Z,-0.009334569,-0.0073779034,0.49756512,0.03302002,-0.23187256,9.805313,18.591309,26.306152,-92.78717,0.034414124,-0.23079519,9.803874,0.0007544458,-0.00034049153,0.00466156,1.5258789e-05,3.0517578e-05,6.1035156e-05
2019-07-01T19:22:21.255Z,-0.009348434,-0.007404373,0.49763918,0.036605835,-0.23330688,9.804108,19.117737,27.441406,-93.48602,0.03470929,-0.23129226,9.803861,0.0004599169,-0.0012821257,-0.00040340424,-4.5776367e-05,9.1552734e-05,-0.00012207031
2019-07-01T19:22:21.457Z,-0.009385935,-0.0074202954,0.4977199,0.034698486,-0.23257446,9.801956,18.345642,26.220703,-93.02368,0.034592442,-0.2320887,9.803843,0.00081991404,-0.0011960864,0.00053691864,-0.00010681152,0.00021362305,4.5776367e-05
2019-07-01T19:22:21.657Z,-0.009387251,-0.0074261865,0.4977342,0.036605835,-0.23306274,9.803162,17.921448,25.75531,-93.099976,0.034675967,-0.23216917,9.803841,0.00074055046,0.00030604005,-0.0023555756,1.5258789e-05,0.00015258789,-0.00038146973
2019-07-01T19:22:21.873Z,-0.009389483,-0.007450665,0.49778953,0.034210205,-0.2270813,9.8033905,16.972351,24.533081,-94.21692,0.035055675,-0.23244828,9.803832,0.0010776408,-0.00086192787,0.00018692017,-4.5776367e-05,0.00015258789,0.0
2019-07-01T19:22:22.072Z,-0.009327656,-0.007398316,0.4976004,0.034698486,-0.23042297,9.802429,18.003845,26.138306,-95.06531,0.034819435,-0.23087819,9.80387,-0.00012024492,0.003319189,-3.71933e-05,1.5258789e-05,-7.6293945e-05,-0.00018310547
2019-07-01T19:22:22.272Z,-0.009323667,-0.0073812376,0.49755877,0.034454346,-0.23019409,9.800995,18.144226,25.939941,-96.243286,0.034578934,-0.23064204,9.803877,-0.0003665462,0.00043338537,-0.000828743,7.6293945e-05,9.1552734e-05,0.00012207031
2019-07-01T19:22:22.475Z,-0.009315962,-0.007371588,0.4975285,0.033737183,-0.22875977,9.804352,17.234802,25.369263,-96.321106,0.03449804,-0.2304156,9.803882,-3.914535e-05,-3.7759542e-05,-0.0013504028,7.6293945e-05,0.00015258789,0.00012207031
2019-07-01T19:22:22.676Z,-0.009295377,-0.0073411562,0.4974376,0.034942627,-0.23138428,9.801712,19.148254,26.50299,-94.50836,0.034205355,-0.22976497,9.803899,-0.00022068247,0.0012268573,0.00069618225,-4.5776367e-05,-9.1552734e-05,0.00012207031
2019-07-01T19:22:22.879Z,-0.009328068,-0.0073636407,0.49752644,0.034210205,-0.22972107,9.804352,19.735718,27.053833,-94.64874,0.03424525,-0.23054393,9.803881,-0.00025919825,-0.0013604313,-0.00081539154,1.5258789e-05,3.0517578e-05,0.0
2019-07-01T19:22:23.088Z,-0.00928883,-0.007336866,0.49742025,0.034454346,-0.23187256,9.803162,17.790222,26.628113,-94.35272,0.03420085,-0.22961107,9.803903,0.00025643408,0.0010757297,0.0010471344,0.00019836426,3.0517578e-05,-6.1035156e-05
2019-07-01T19:22:23.304Z,-0.009322289,-0.00739418,0.49758485,0.03565979,-0.22851562,9.802673,19.137573,27.72522,-92.4469,0.0348056,-0.23074591,9.803873,0.0010861345,-0.0020929724,-9.441376e-05,1.5258789e-05,3.0517578e-05,-0.00012207031
2019-07-01T19:22:23.481Z,-0.00928413,-0.0073757805,0.497498,0.034942627,-0.22947693,9.8022,18.527222,26.513672,-91.8396,0.034888107,-0.22991382,9.803892,-0.00043023378,0.0013749301,-0.00022792816,-4.5776367e-05,-0.00015258789,0.0
2019-07-01T19:22:23.682Z,-0.009275959,-0.007374396,0.4974849,0.034698486,-0.23258972,9.805069,18.795776,27.340698,-92.96265,0.03494776,-0.22976078,9.803895,-4.61936e-07,0.00049725175,-0.0006284714,7.6293945e-05,-3.0517578e-05,-6.1035156e-05
2019-07-01T19:22:23.896Z,-0.009292549,-0.007377609,0.49751237,0.03564453,-0.23019409,9.803635,18.519592,26.902771,-95.08057,0.034833238,-0.23007546,9.803889,9.6116215e-05,0.0005854219,-0.0006570816,0.00019836426,3.0517578e-05,-0.00038146973
2019-07-01T19:22:24.090Z,-0.009278479,-0.007388081,0.4975174,0.034454346,-0.23138428,9.801712,17.56134,25.234985,-95.0058,0.035147354,-0.22993849,9.803891,0.00049911067,-2.4080276e-05,3.8146973e-05,-4.5776367e-05,-0.00015258789,-6.1035156e-05
2019-07-01T19:22:24.299Z,-0.009311186,-0.007396691,0.49757648,0.03326416,-0.2311554,9.8033905,18.130493,25.421143,-95.36743,0.03495891,-0.23058124,9.803877,-0.000500191,-0.0015490651,-0.0014104843,0.00019836426,0.00015258789,-0.00018310547
2019-07-01T19:22:24.502Z,-0.009298802,-0.007362706,0.49748814,0.036605835,-0.23042297,9.804825,17.677307,26.121521,-95.658875,0.03452513,-0.23003547,9.803891,-0.0005408935,0.000539124,0.00081539154,0.0001373291,9.1552734e-05,-7.6293945e-05
2019-07-01T19:22:24.704Z,-0.009289453,-0.007381971,0.4975179,0.034210205,-0.23234558,9.802444,17.739868,25.534058,-94.42291,0.034936193,-0.23006557,9.803889,0.0007246919,-0.0010817796,0.0010137558,7.6293945e-05,-3.0517578e-05,0.00018310547
2019-07-01T19:22:24.904Z,-0.00932125,-0.0074035316,0.49760365,0.034454346,-0.23114014,9.803879,17.918396,25.907898,-94.27643,0.03496981,-0.23082025,9.803871,-0.00051308796,-0.0017851442,-0.00076007843,0.0002593994,-0.00019836426,0.00024414062
2019-07-01T19:22:25.111Z,-0.009323133,-0.0074012866,0.49760118,0.033737183,-0.23162842,9.801727,19.073486,26.797485,-95.42694,0.034913905,-0.23083028,9.803871,3.0022115e-05,-8.958578e-05,0.0006017685,-4.5776367e-05,9.1552734e-05,0.00012207031
2019-07-01T19:22:25.310Z,-0.009342911,-0.007377689,0.497575,0.034454346,-0.23066711,9.801956,19.412231,26.957703,-94.57703,0.034326416,-0.23093534,9.803869,-0.0013027675,-0.0004733503,-0.0013504028,0.0001373291,-3.0517578e-05,-0.00012207031
2019-07-01T19:22:25.514Z,-0.00932593,-0.007382206,0.49756366,0.03564453,-0.22875977,9.8022,18.15033,25.782776,-94.68994,0.03457202,-0.23069015,9.803875,0.0006050207,-1.3902783e-05,-0.0010671616,0.0001373291,-3.0517578e-05,-6.1035156e-05
2019-07-01T19:22:25.720Z,-0.00928433,-0.007371055,0.4974881,0.03517151,-0.23042297,9.806503,18.995667,26.483154,-93.29834,0.034808397,-0.22987072,9.803894,0.00036773458,0.0015687197,0.00056934357,1.5258789e-05,-3.0517578e-05,0.000289917
2019-07-01T19:22:25.914Z,-0.009289798,-0.0073934733,0.49754304,0.033737183,-0.23306274,9.804108,18.432617,26.445007,-93.20679,0.035121813,-0.23018469,9.803885,0.000538785,-0.0012048781,0.00212574,0.0001373291,-3.0517578e-05,0.00018310547
2019-07-01T19:22:26.132Z,-0.009334474,-0.0073951655,0.49760208,0.03492737,-0.2311554,9.800995,19.386292,26.219177,-93.670654,0.034698837,-0.23096347,9.803868,-0.000961747,-0.0020986348,0.00045681,1.5258789e-05,-9.1552734e-05,0.00016784668
2019-07-01T19:22:26.327Z,-0.009347165,-0.0074041914,0.4976372,0.03517151,-0.23187256,9.802429,18.989563,26.338196,-93.47839,0.034719117,-0.23126884,9.803862,-0.0005056001,-0.00038164854,-0.0019311905,7.6293945e-05,-0.00019836426,0.000289917
2019-07-01T19:22:26.528Z,-0.009330736,-0.0074283397,0.49766868,0.034698486,-0.2311554,9.8022,18.769836,26.83258,-93.36853,0.03528186,-0.23122633,9.803861,0.00013801083,-0.0004297644,-0.00048732758,1.5258789e-05,-0.0002593994,0.00035095215
2019-07-01T19:22:26.735Z,-0.009305542,-0.007420669,0.49762097,0.033493042,-0.2311554,9.800766,17.36145,26.17035,-95.03174,0.035410035,-0.23072101,9.803872,-0.000706695,0.0004953146,-0.00032806396,0.0001373291,-0.00019836426,0.000289917
2019-07-01T19:22:26.939Z,-0.009331105,-0.0073996466,0.49760753,0.03541565,-0.22827148,9.802429,17.745972,25.909424,-95.93201,0.03480649,-0.23095015,9.803869,-0.0013066009,-0.00025068223,-0.0011739731,-4.5776367e-05,3.0517578e-05,6.1035156e-05
2019-07-01T19:22:27.138Z,-0.009292616,-0.007390419,0.49753997,0.03326416,-0.23066711,9.804352,18.791199,25.830078,-95.536804,0.035043176,-0.23020267,9.803885,0.0001341328,0.0018931031,0.00065517426,7.6293945e-05,-3.0517578e-05,0.00024414062
2019-07-01T19:22:27.337Z,-0.009306311,-0.0073649012,0.49750215,0.033737183,-0.23162842,9.800766,18.50586,26.686096,-95.50171,0.03448547,-0.23018515,9.803887,-0.0009883456,-0.000753358,0.0009088516,1.5258789e-05,-9.1552734e-05,0.00012207031
2019-07-01T19:22:27.547Z,-0.00930924,-0.0073680347,0.49751252,0.03326416,-0.22875977,9.8033905,18.76831,26.913452,-94.33441,0.03450744,-0.23026596,9.803885,-0.00052085146,-0.0004362762,-0.00067806244,7.6293945e-05,-3.0517578e-05,0.00024414062
2019-07-01T19:22:27.749Z,-0.0093292985,-0.0073377164,0.4974723,0.03277588,-0.22994995,9.800278,19.447327,25.938416,-94.56024,0.033806622,-0.23030981,9.803887,-0.0012550652,8.46535e-05,0.0003528595,-4.5776367e-05,-0.00015258789,0.00024414062
2019-07-01T19:22:27.948Z,-0.0093034,-0.007331067,0.49742588,0.03564453,-0.23019409,9.802444,18.363953,26.65863,-93.16101,0.03395853,-0.22980256,9.803898,-0.00068710744,0.0009936541,-0.0015239716,0.00019836426,-0.00019836426,0.00018310547
2019-07-01T19:22:28.152Z,-0.009293707,-0.0073759523,0.49751025,0.034210205,-0.23210144,9.8033905,19.33136,26.722717,-93.03589,0.034794312,-0.23007889,9.803888,0.0013442859,-0.001099512,0.0009031296,-4.5776367e-05,-9.1552734e-05,0.000289917
2019-07-01T19:22:28.360Z,-0.00933626,-0.0073777456,0.4975669,0.034698486,-0.23162842,9.8029175,18.539429,27.033997,-93.167114,0.034394454,-0.23082249,9.803873,-0.0011251047,-0.0013137609,0.0002784729,7.6293945e-05,-3.0517578e-05,0.00016784668
2019-07-01T19:22:28.560Z,-0.0093461955,-0.007411643,0.49765202,0.034225464,-0.23258972,9.8033905,18.275452,26.582336,-93.62488,0.034851383,-0.23132566,9.80386,0.0005702749,-0.0012886971,-0.00045681,-4.5776367e-05,-9.1552734e-05,0.00012207031
2019-07-01T19:22:28.762Z,-0.009358728,-0.0074460474,0.49774146,0.033737183,-0.23210144,9.804352,17.536926,26.393127,-94.16199,0.03529032,-0.23187819,9.803844,-0.00011567399,-0.00073213875,0.0016222,-0.00010681152,-0.0002593994,0.0
2019-07-01T19:22:28.969Z,-0.009370712,-0.007390014,0.497636,0.03326416,-0.23306274,9.8029175,18.313599,25.793457,-94.76929,0.034248438,-0.23153092,9.803857,-0.0026615486,0.00061158836,0.0010814667,1.5258789e-05,-0.00015258789,0.00012207031
2019-07-01T19:22:29.161Z,-0.00939995,-0.007414537,0.49772495,0.034698486,-0.23210144,9.802429,18.457031,25.590515,-95.49866,0.03435633,-0.23227105,9.803839,0.00010069832,-0.001282841,-0.00087451935,1.5258789e-05,-3.0517578e-05,6.1035156e-05
2019-07-01T19:22:29.373Z,-0.009398536,-0.00742623,0.4977483,0.036849976,-0.23138428,9.80722,17.803955,25.328064,-95.29724,0.034562744,-0.23236209,9.803837,0.00013805926,-0.00024318695,0.00021076202,1.5258789e-05,-3.0517578e-05,0.000289917
2019-07-01T19:22:29.575Z,-0.009359315,-0.00744029,0.4977298,0.036376953,-0.23306274,9.80603,18.667603,26.617432,-94.84253,0.035189778,-0.23183152,9.803846,0.0009406023,0.0011804253,0.0026960373,7.6293945e-05,-9.1552734e-05,0.00016784668
2019-07-01T19:22:29.772Z,-0.009341435,-0.00746986,0.4977711,0.03111267,-0.22612,9.803879,19.132996,26.13678,-94.581604,0.03585625,-0.23181772,9.8038435,0.0014629886,-0.0009765774,0.00067043304,0.00032043457,-3.0517578e-05,0.00018310547
2019-07-01T19:22:29.975Z,-0.009310089,-0.0073698037,0.49751738,0.034698486,-0.23330688,9.804108,19.824219,26.976013,-93.45856,0.034527957,-0.23029785,9.8038845,-0.0034178682,0.002760753,-0.00051021576,-0.00016784668,-0.00032043457,6.1035156e-05
2019-07-01T19:22:30.174Z,-0.009344702,-0.007409816,0.49764624,0.03517151,-0.23162842,9.801956,17.767334,26.042175,-94.0918,0.034836434,-0.23128217,9.803861,-0.00013917312,-0.0017724186,-0.00081539154,1.5258789e-05,-3.0517578e-05,0.00012207031
2019-07-01T19:22:30.381Z,-0.009323779,-0.007371964,0.49753898,0.032546997,-0.22898865,9.800766,18.901062,26.036072,-92.855835,0.03442536,-0.23055266,9.80388,-0.0004385598,0.0005660355,-0.0027589798,-0.00010681152,3.0517578e-05,0.00016784668
2019-07-01T19:22:30.593Z,-0.00932162,-0.0073393593,0.4974663,0.036376953,-0.23258972,9.801239,19.044495,27.503967,-92.93976,0.033911098,-0.23019497,9.803889,-0.0011279881,0.0011572391,-0.0010328293,7.6293945e-05,-3.0517578e-05,0.00024414062
2019-07-01T19:22:30.792Z,-0.00933812,-0.007391813,0.49759942,0.033493042,-0.22970581,9.805069,18.424988,26.145935,-92.58728,0.034606934,-0.2309927,9.803869,0.0020062625,-0.0025921762,-5.6266785e-05,0.0002593994,0.00021362305,0.00035095215
2019-07-01T19:22:31.045Z,-0.009302761,-0.0073352377,0.49743405,0.032302856,-0.23114014,9.799561,18.907166,26.411438,-94.21539,0.034033563,-0.22983271,9.803898,-0.00076535717,0.0010455996,0.0018644333,0.00032043457,-3.0517578e-05,0.00024414062
2019-07-01T19:22:31.252Z,-0.009324952,-0.0072994647,0.4973847,0.034454346,-0.2311554,9.8029175,17.424011,25.352478,-92.707825,0.03322153,-0.22985935,9.8039,-0.00259367,-0.00011463463,0.00028705597,-4.5776367e-05,-0.00019836426,0.00024414062
2019-07-01T19:22:31.451Z,-0.009325061,-0.0073754583,0.49754807,0.03565979,-0.22755432,9.804596,18.222046,25.64392,-95.32318,0.034469854,-0.23060893,9.803878,0.0023852699,-0.0017711073,-0.00092983246,7.6293945e-05,-3.0517578e-05,0.00010681152
2019-07-01T19:22:31.647Z,-0.009290129,-0.0073560523,0.49746308,0.034698486,-0.23258972,9.800766,17.118835,26.075745,-94.58771,0.034503214,-0.22982201,9.803896,-4.42639e-05,0.00080268085,0.000330925,0.00032043457,-9.1552734e-05,0.0
2019-07-01T19:22:31.854Z,-0.009325622,-0.0073891403,0.49757817,0.036376953,-0.23162842,9.804352,18.762207,26.99585,-95.52612,0.03468913,-0.23075317,9.803874,0.0004896559,-0.0018849224,-0.001540184,-0.00010681152,9.1552734e-05,0.00012207031
2019-07-01T19:22:32.058Z,-0.009315145,-0.0074098264,0.4976096,0.036376953,-0.23091125,9.804108,19.5755,27.192688,-95.29114,0.03513489,-0.2307781,9.803872,0.0012452416,-0.00039817393,0.002327919,0.0001373291,9.1552734e-05,4.5776367e-05
2019-07-01T19:22:32.258Z,-0.009278779,-0.007419102,0.4975844,0.034454346,-0.22994995,9.801239,18.939209,27.067566,-93.93158,0.03565434,-0.23024902,9.803883,0.00095395,0.00028321147,0.0004272461,0.00019836426,-3.0517578e-05,0.00016784668
2019-07-01T19:22:32.459Z,-0.009291417,-0.00739529,0.49754894,0.034698486,-0.23258972,9.804352,18.836975,26.394653,-92.630005,0.035135347,-0.23023018,9.8038845,-0.001149252,-0.00022403896,-0.0013141632,-4.5776367e-05,-0.00019836426,0.00012207031
2019-07-01T19:22:32.665Z,-0.00932799,-0.0074253916,0.49765897,0.034698486,-0.22994995,9.801727,18.434143,26.441956,-92.90619,0.035261113,-0.23115046,9.803863,-0.00031563267,-0.0016868412,0.0010385513,1.5258789e-05,-3.0517578e-05,0.00016784668
2019-07-01T19:22:32.866Z,-0.009304795,-0.0074161487,0.49761033,0.03517151,-0.23162842,9.802429,18.36853,26.805115,-93.28308,0.03534326,-0.23066373,9.803872,-0.00016780943,0.00093220174,-0.0005788803,-0.00016784668,-3.0517578e-05,0.00030517578
2019-07-01T19:22:33.070Z,-0.009342768,-0.0074377162,0.49770376,0.036605835,-0.23019409,9.803635,17.929077,26.126099,-94.15741,0.03531452,-0.2315239,9.803853,-0.00038341805,-0.0006020218,0.00010108948,-0.00016784668,-7.6293945e-05,0.0004119873
2019-07-01T19:22:33.270Z,-0.009302735,-0.007436378,0.49765122,0.034698486,-0.23091125,9.8029175,18.292236,26.948547,-93.70422,0.03569659,-0.23082781,9.803868,0.00066881627,0.0015710145,6.866455e-05,-4.5776367e-05,-3.0517578e-05,0.00018310547
2019-07-01T19:22:33.477Z,-0.009309192,-0.0074268337,0.49763873,0.034454346,-0.22898865,9.804825,18.273926,24.99237,-95.233154,0.035474535,-0.23084399,9.803869,-0.00077301636,-0.0003311336,0.00035953522,7.6293945e-05,-9.1552734e-05,0.00018310547
2019-07-01T19:22:33.685Z,-0.009292213,-0.0074069905,0.49757504,0.035888672,-0.2318573,9.805542,18.42804,26.753235,-95.56122,0.035319675,-0.23035894,9.803881,-0.0008650087,0.00087992847,0.0015211105,7.6293945e-05,-0.00015258789,0.00016784668
2019-07-01T19:22:33.873Z,-0.009301934,-0.0074222535,0.4976199,0.034698486,-0.23162842,9.8033905,18.032837,24.972534,-94.84863,0.035472494,-0.23067507,9.803873,0.00065935776,-0.000947088,0.00068569183,1.5258789e-05,-3.0517578e-05,6.1035156e-05
2019-07-01T19:22:34.087Z,-0.009332649,-0.007432302,0.49767956,0.036132812,-0.23234558,9.8022,17.773438,26.339722,-94.78912,0.035327677,-0.23129798,9.803859,-0.0006287135,-0.0005776882,-0.0008087158,-0.00016784668,3.0517578e-05,0.00012207031
2019-07-01T19:22:34.283Z,-0.009296072,-0.007457268,0.4976878,0.036605835,-0.22947693,9.8022,18.49823,26.464844,-95.16907,0.036107223,-0.23091985,9.8038645,0.0009874888,-0.00023935735,-6.771088e-05,0.00044250488,-0.0001373291,0.00024414062
2019-07-01T19:22:34.492Z,-0.009267618,-0.0074263588,0.49758613,0.034454346,-0.23306274,9.804596,18.875122,25.604248,-93.699646,0.035886254,-0.23013006,9.8038845,-0.00071080774,0.0006278753,-0.0018129349,0.0001373291,-0.0002593994,0.00035095215
2019-07-01T19:22:34.693Z,-0.009324023,-0.0074335625,0.49767157,0.037094116,-0.22898865,9.803635,19.068909,26.420593,-93.91937,0.035435464,-0.23116323,9.803862,-0.0014527626,-0.0021526515,0.0013446808,1.5258789e-05,-9.1552734e-05,0.00035095215
2019-07-01T19:22:34.892Z,-0.009273896,-0.007462364,0.49767122,0.033737183,-0.23258972,9.8029175,18.553162,27.326965,-93.107605,0.036414806,-0.23059173,9.803871,0.0013992302,0.0013414621,-0.0006990433,-4.5776367e-05,-0.00015258789,0.000289917
2019-07-01T19:22:35.091Z,-0.00932468,-0.0074558104,0.49772015,0.034942627,-0.23187256,9.806992,18.341064,26.223755,-93.551636,0.035794493,-0.23139356,9.803855,-0.0018123053,-0.0019189119,0.0009775162,0.0002593994,-3.0517578e-05,0.00012207031
2019-07-01T19:22:35.301Z,-0.009262395,-0.007359838,0.49743682,0.033737183,-0.22970581,9.805786,18.626404,27.108765,-92.778015,0.034845203,-0.2293861,9.803905,-0.0018265881,0.0032753646,-0.00042057037,7.6293945e-05,-0.00015258789,0.0
2019-07-01T19:22:35.497Z,-0.009279986,-0.007369676,0.49747977,0.036376953,-0.23114014,9.805069,16.54663,25.816345,-94.23981,0.034829542,-0.22978304,9.803896,-0.0003781058,-0.0011090189,0.00082683563,0.0001373291,-9.1552734e-05,0.00012207031
2019-07-01T19:22:35.703Z,-0.00931157,-0.007397868,0.4975795,0.037322998,-0.23066711,9.806259,17.610168,26.177979,-94.20929,0.0349744,-0.23059937,9.803877,0.00019228086,-0.0017143637,0.0010290146,7.6293945e-05,9.1552734e-05,0.000289917
2019-07-01T19:22:35.908Z,-0.009276293,-0.00741134,0.49756464,0.03277588,-0.2311554,9.801483,18.057251,25.48523,-94.89899,0.0355518,-0.23013018,9.803885,0.0017682202,0.00019951165,-0.0010709763,7.6293945e-05,3.0517578e-05,0.000289917
2019-07-01T19:22:36.111Z,-0.009297896,-0.007398984,0.4975649,0.03517151,-0.22828674,9.801483,18.891907,26.274109,-95.37659,0.0351307,-0.23037708,9.803881,-0.0013943277,-0.0002847016,-0.0011901855,-0.00010681152,-0.00019836426,0.00047302246
2019-07-01T19:22:36.314Z,-0.009275132,-0.0073912865,0.49752015,0.034225464,-0.23162842,9.8029175,17.951965,26.713562,-94.49158,0.03523383,-0.22991297,9.803892,-0.0005332343,0.0013835579,-0.0015926361,1.5258789e-05,-0.00015258789,0.00024414062
2019-07-01T19:22:36.524Z,-0.009303873,-0.0073904814,0.49755406,0.034454346,-0.22947693,9.800766,17.83905,25.901794,-94.04907,0.034930613,-0.23039535,9.803881,-0.00070264563,-0.0012495667,-0.0002603531,7.6293945e-05,-9.1552734e-05,0.000289917
2019-07-01T19:22:36.774Z,-0.009288024,-0.007387812,0.49752867,0.036376953,-0.2280426,9.802444,19.657898,27.119446,-94.706726,0.035046633,-0.2300987,9.803888,-0.00034245476,0.00011138618,-0.0017738342,0.00019836426,-0.0002593994,0.00012207031
2019-07-01T19:22:36.977Z,-0.009216118,-0.0073857787,0.49743512,0.032546997,-0.22947693,9.802444,18.293762,26.792908,-92.44995,0.03573852,-0.22885185,9.803914,0.00015644729,0.0017302334,-0.00023078918,1.5258789e-05,-0.00015258789,0.00024414062
2019-07-01T19:22:37.180Z,-0.0092526255,-0.0073587457,0.49742234,0.03541565,-0.22923279,9.8029175,19.05365,25.978088,-93.47992,0.03492577,-0.22920868,9.803908,-0.0023732148,-0.0007777512,0.00032520294,1.5258789e-05,-0.0002593994,0.00022888184
2019-07-01T19:22:37.384Z,-0.009250184,-0.0073541966,0.49740955,0.0335083,-0.22779846,9.803879,19.152832,26.193237,-92.38129,0.03487559,-0.22912227,9.803911,-0.0006607771,0.000576362,0.0005464554,1.5258789e-05,-0.0002593994,0.00024414062
2019-07-01T19:22:37.586Z,-0.009207167,-0.007358525,0.4973655,0.036605835,-0.22875977,9.8033905,17.5766,27.194214,-93.62488,0.035380557,-0.22843088,9.803925,3.91528e-05,0.00085033476,0.00036144257,1.5258789e-05,-3.0517578e-05,0.00035095215
2019-07-01T19:22:37.789Z,-0.009225481,-0.007343589,0.49735615,0.033493042,-0.22779846,9.801727,18.037415,26.5625,-93.09082,0.03495024,-0.22859642,9.803924,-0.00049373135,-0.00017748773,0.0010347366,-0.00010681152,-3.0517578e-05,0.00012207031
2019-07-01T19:22:37.990Z,-0.009220569,-0.007341904,0.49734643,0.033981323,-0.23019409,9.800522,17.29126,26.304626,-94.3985,0.034972064,-0.22849603,9.8039255,-0.0005128123,-5.1662326e-05,-0.0015392303,0.00032043457,-0.00015258789,0.00047302246
2019-07-01T19:22:38.191Z,-0.009228298,-0.007362556,0.49740037,0.03517151,-0.23042297,9.8029175,17.523193,26.255798,-95.24689,0.035233773,-0.22883111,9.803916,0.0001888983,-0.0016374737,-0.0011968613,0.0002593994,-3.0517578e-05,0.00012207031
2019-07-01T19:22:38.391Z,-0.009260724,-0.0073442003,0.49740115,0.031341553,-0.22898865,9.801483,17.929077,26.278687,-94.88068,0.0346049,-0.22920373,9.80391,-0.0011061318,-0.0017454326,0.0006284714,0.00019836426,-3.0517578e-05,0.00036621094
2019-07-01T19:22:38.590Z,-0.009280636,-0.0073026265,0.49733654,0.034942627,-0.23258972,9.804596,20.02716,26.495361,-95.37811,0.03372043,-0.22913441,9.803914,-0.0021282136,0.00033031404,-0.0005350113,-0.00022888184,-3.0517578e-05,6.1035156e-05
2019-07-01T19:22:38.798Z,-0.009323441,-0.0073748585,0.4975448,0.034698486,-0.23066711,9.8029175,18.548584,25.660706,-94.65485,0.034476344,-0.2305754,9.803879,0.001186993,-0.002038017,0.0017251968,-0.00016784668,-3.0517578e-05,0.00035095215
2019-07-01T19:22:38.999Z,-0.009319034,-0.007400857,0.49759516,0.03517151,-0.23306274,9.803162,19.424438,27.023315,-93.35785,0.034948196,-0.23075613,9.803873,0.00022683665,-0.0001783967,3.33786e-05,1.5258789e-05,-0.00019836426,0.00035095215
2019-07-01T19:22:39.208Z,-0.009325436,-0.007401674,0.49760485,0.03302002,-0.22851562,9.8022,18.97583,27.71759,-92.744446,0.034897026,-0.23087339,9.80387,-0.00019593164,-0.0007722527,0.0004968643,0.0001373291,-1.5258789e-05,0.00018310547
2019-07-01T19:22:39.424Z,-0.009316574,-0.0073609026,0.4975063,0.033737183,-0.23043823,9.800766,18.075562,26.83258,-89.86664,0.034316197,-0.23032089,9.803885,-0.0010477714,0.0013036132,-0.0009393692,-0.00010681152,-0.00015258789,0.00018310547
2019-07-01T19:22:39.611Z,-0.009310712,-0.007367098,0.49751234,0.034942627,-0.2270813,9.803162,18.110657,26.271057,-92.170715,0.034477178,-0.23028186,9.803885,0.00022725388,-0.00042495131,-0.00095558167,0.0002593994,0.00021362305,0.00018310547
2019-07-01T19:22:39.810Z,-0.009268087,-0.0073077353,0.49733195,0.031585693,-0.23066711,9.803879,18.746948,26.400757,-94.05975,0.03393098,-0.22897062,9.803919,-0.0009050034,0.0025663078,2.861023e-06,1.5258789e-05,-0.0001373291,0.00024414062
2019-07-01T19:22:40.016Z,-0.00926375,-0.0072708847,0.4972474,0.03326416,-0.22875977,9.801727,17.03949,25.993347,-94.070435,0.033368625,-0.22853415,9.803929,-0.001776237,0.0016511381,-0.0019140244,7.6293945e-05,-0.00019836426,0.00035095215
2019-07-01T19:22:40.218Z,-0.009259087,-0.0073194057,0.49734586,0.035888672,-0.23042297,9.800049,18.127441,25.422668,-95.51849,0.03421366,-0.22893184,9.803918,0.0009657927,-0.000598222,-0.0006322861,-4.5776367e-05,-0.00038146973,0.00047302246
2019-07-01T19:22:40.419Z,-0.0092448415,-0.007306629,0.49730074,0.03302002,-0.2280426,9.803879,17.144775,25.067139,-95.92743,0.034147166,-0.22856313,9.803927,-0.0008737594,0.000229761,-0.0007505417,7.6293945e-05,-9.1552734e-05,0.00018310547
2019-07-01T19:22:40.620Z,-0.009246783,-0.00729208,0.4972719,0.03086853,-0.2280426,9.802673,17.89093,25.326538,-94.62128,0.0338883,-0.22845316,9.803931,-0.0001441054,0.00013440847,0.0012588501,1.5258789e-05,0.00015258789,0.00018310547
2019-07-01T19:22:40.827Z,-0.009264815,-0.0072541097,0.49721268,0.034454346,-0.22994995,9.800766,19.506836,27.330017,-94.6579,0.03308198,-0.22838737,9.803934,-0.0010175668,-0.00041173398,0.0006713867,0.00019836426,0.00015258789,0.0
2019-07-01T19:22:41.033Z,-0.009270546,-0.0072733685,0.49726117,0.0335083,-0.22683716,9.799332,18.058777,27.381897,-95.04089,0.033340976,-0.22867452,9.803926,0.00040359795,-0.00060898066,-0.0009870529,-4.5776367e-05,-3.0517578e-05,0.00012207031
2019-07-01T19:22:41.230Z,-0.009236881,-0.0072631096,0.4971974,0.031341553,-0.22923279,9.802429,17.848206,26.121521,-94.15588,0.033511575,-0.22799927,9.803942,0.0004797019,0.001094386,-0.0014543533,0.0001373291,3.0517578e-05,0.000289917
2019-07-01T19:22:41.437Z,-0.009292129,-0.007240884,0.49721813,0.03326416,-0.22994995,9.8033905,18.6203,26.887512,-92.44385,0.032589104,-0.22872335,9.803928,-0.0017124936,-0.0015274584,0.0009317398,1.5258789e-05,-3.0517578e-05,6.1035156e-05
2019-07-01T19:22:41.643Z,-0.009266983,-0.007275142,0.49726057,0.033981323,-0.22779846,9.8022,19.39392,26.290894,-93.05267,0.03340606,-0.22863117,9.803927,0.0015263446,8.106232e-05,0.0019025803,1.5258789e-05,-3.0517578e-05,6.1035156e-05
2019-07-01T19:22:41.846Z,-0.009259289,-0.007236035,0.497167,0.031829834,-0.22994995,9.8029175,19.354248,27.23236,-92.707825,0.032840353,-0.22811538,9.803941,-0.0012494065,3.629923e-05,-0.00017356873,0.0001373291,3.0517578e-05,0.0
2019-07-01T19:22:42.046Z,-0.00930248,-0.0072297803,0.4972071,0.032546997,-0.22947693,9.801712,17.713928,24.874878,-94.32831,0.03230214,-0.22879077,9.803928,-0.00071191415,-0.0009471327,0.00036525726,-0.00010681152,-3.0517578e-05,0.00024414062
2019-07-01T19:22:42.251Z,-0.009310948,-0.007271,0.49730617,0.033737183,-0.22732544,9.801483,17.344666,25.72937,-94.74182,0.032894682,-0.22934048,9.803912,0.0006046705,-0.00089763105,-0.001036644,-4.5776367e-05,-3.0517578e-05,6.1035156e-05
2019-07-01T19:22:42.455Z,-0.009282653,-0.0072683105,0.4972653,0.03541565,-0.2290039,9.800766,17.67273,25.97351,-95.310974,0.033135727,-0.22883134,9.803924,0.0006087348,0.00073845685,-0.0005311966,7.6293945e-05,-0.0001373291,0.00022888184
2019-07-01T19:22:42.657Z,-0.009237807,-0.0073038866,0.49728614,0.034454346,-0.23091125,9.800278,17.526245,26.176453,-94.43359,0.03417297,-0.22841613,9.80393,0.0014952272,-0.00015570223,-0.0005235672,0.00038146973,9.1552734e-05,6.1035156e-05
2019-07-01T19:22:42.859Z,-0.009237718,-0.0073169176,0.49731404,0.033981323,-0.22875977,9.802444,17.43927,26.100159,-95.05005,0.0343882,-0.22854279,9.803926,0.0010375977,-0.000757426,-0.0009851456,7.6293945e-05,3.0517578e-05,0.00024414062
2019-07-01T19:22:43.069Z,-0.009279654,-0.0072831837,0.49729356,0.032546997,-0.22972107,9.802673,18.670654,26.541138,-94.104004,0.033410575,-0.22892646,9.803922,-0.0018169098,-0.0008492321,0.0010919571,1.5258789e-05,3.0517578e-05,0.00012207031
2019-07-01T19:22:43.260Z,-0.009270727,-0.0073006535,0.49732003,0.03541565,-0.22970581,9.8029175,19.06128,26.428223,-94.973755,0.033787906,-0.22894597,9.80392,0.00042934716,-0.0005787462,0.0005712509,0.0002593994,-3.0517578e-05,0.00035095215
2019-07-01T19:22:43.469Z,-0.009283392,-0.0073192427,0.49737567,0.03302002,-0.22994995,9.805313,19.741821,27.198792,-94.618225,0.033965897,-0.22934487,9.803908,0.0004937388,-0.001113832,0.0010089874,-4.5776367e-05,3.0517578e-05,6.1035156e-05
2019-07-01T19:22:43.685Z,-0.009313957,-0.007316323,0.4974073,0.034225464,-0.23210144,9.8029175,18.478394,27.23999,-91.8396,0.03360962,-0.22983761,9.803899,-0.00034304708,-0.0008459836,0.0016298294,-0.00010681152,-0.0001373291,0.00018310547
2019-07-01T19:22:43.870Z,-0.009314404,-0.007334414,0.49744672,0.034210205,-0.23042297,9.8033905,17.628479,26.31073,-92.29584,0.03390257,-0.2300232,9.803893,-0.00040735304,-0.00090281665,0.00012683868,0.0001373291,-9.1552734e-05,-0.00012207031
2019-07-01T19:22:44.075Z,-0.009316621,-0.0073735965,0.49753362,0.03781128,-0.2328186,9.805786,17.753601,27.42157,-93.20679,0.034524407,-0.23044664,9.803882,0.0013646148,-0.0006958246,0.001042366,-4.5776367e-05,-3.0517578e-05,0.00024414062
2019-07-01T19:22:44.281Z,-0.009303233,-0.0073941695,0.4975612,0.031341553,-0.22970581,9.806747,17.858887,26.264954,-93.59741,0.034997713,-0.23042072,9.803881,0.001135055,-0.00024609268,0.00021457672,7.6293945e-05,4.5776367e-05,0.00016784668
2019-07-01T19:22:44.473Z,-0.009338554,-0.007289541,0.49738026,0.03062439,-0.22875977,9.8033905,17.753601,25.674438,-93.64014,0.032921165,-0.22999376,9.803897,-0.003733214,0.0005315989,0.0012598038,0.0001373291,0.00010681152,-0.00012207031
2019-07-01T19:22:44.685Z,-0.009344542,-0.007268191,0.4973418,0.03326416,-0.22923279,9.804825,17.11731,26.078796,-94.740295,0.032509714,-0.22988597,9.803902,-0.0009254031,-0.0007713884,-0.00043964386,0.00032043457,3.0517578e-05,0.000289917
2019-07-01T19:22:44.882Z,-0.009303442,-0.007313785,0.4973888,0.033737183,-0.22898865,9.802444,18.289185,25.434875,-95.747375,0.033673942,-0.22963327,9.803904,0.002455473,-4.9352646e-05,0.0011367798,7.6293945e-05,-3.0517578e-05,0.0
2019-07-01T19:22:45.091Z,-0.009280934,-0.0072990907,0.49732932,0.036376953,-0.22875977,9.800522,17.486572,25.45166,-95.259094,0.033659276,-0.22910474,9.803916,-0.00015014783,0.0010565221,-0.0024366379,1.5258789e-05,9.1552734e-05,6.1035156e-05
2019-07-01T19:22:45.323Z,-0.009283022,-0.0073238458,0.49738508,0.031829834,-0.22994995,9.804596,19.332886,26.872253,-93.60962,0.034045313,-0.22938389,9.803908,0.0008851327,-0.0005868077,-0.0013093948,0.0001373291,3.0517578e-05,-6.1035156e-05
2019-07-01T19:22:45.493Z,-0.009271804,-0.0073276293,0.4973793,0.031585693,-0.22827148,9.8029175,18.400574,27.003479,-90.374756,0.03422067,-0.22922972,9.803911,0.00047852471,-0.00025194883,0.0013608932,7.6293945e-05,-3.0517578e-05,0.00012207031
2019-07-01T19:22:45.694Z,-0.00927723,-0.007221703,0.49715844,0.03517151,-0.22972107,9.801727,19.223022,26.286316,-94.10248,0.03242379,-0.2282806,9.80394,-0.0041763,0.0011748672,-0.0016508102,0.00019836426,-0.00015258789,0.00018310547
2019-07-01T19:22:45.892Z,-0.009293837,-0.0072658104,0.4972738,0.029434204,-0.22755432,9.801483,17.877197,26.629639,-93.37311,0.032981854,-0.22899756,9.803921,0.0014772601,-0.0014737993,-0.0007753372,-0.00010681152,0.00015258789,0.0
2019-07-01T19:22:46.095Z,-0.009254051,-0.007244726,0.49717918,0.032546997,-0.22683716,9.803635,19.598389,27.323914,-92.99927,0.033036117,-0.22811148,9.803941,0.00023241714,0.0014730245,0.00027370453,0.0001373291,9.1552734e-05,0.00012207031
2019-07-01T19:22:46.293Z,-0.009282739,-0.00716738,0.4970485,0.03302002,-0.22994995,9.799561,18.441772,26.66626,-93.38837,0.032750733,-0.22887637,9.803924,0.0019556992,-0.0018462688,-0.002213478,1.5258789e-05,-9.1552734e-05,0.00012207031
2019-07-01T19:22:46.504Z,-0.00928701,-0.0072603896,0.4972537,0.031585693,-0.2311554,9.799561,18.26477,26.44043,-94.107056,0.03296153,-0.22882777,9.803925,0.00055349246,-0.000451684,0.00074768066,0.0001373291,9.1552734e-05,0.00012207031
2019-07-01T19:22:46.710Z,-0.009314997,-0.0072763767,0.49732277,0.036132812,-0.22755432,9.801483,18.000793,25.683594,-92.89093,0.032942265,-0.22946243,9.803909,-0.00015626475,-0.0010462999,-0.0020532608,-4.5776367e-05,-3.0517578e-05,0.00012207031
2019-07-01T19:22:46.919Z,-0.009288501,-0.007273811,0.49728438,0.03086853,-0.22923279,9.8022,17.277527,25.93689,-94.018555,0.03316724,-0.2289852,9.803921,0.00035034865,0.0006496012,0.00055217743,7.6293945e-05,-3.0517578e-05,0.0
2019-07-01T19:22:47.116Z,-0.009291314,-0.0072849127,0.4973117,0.03756714,-0.23066711,9.804596,17.893982,25.474548,-94.89288,0.03332146,-0.22914238,9.803917,0.00042387843,-0.00039061904,0.0006828308,0.0001373291,-3.0517578e-05,0.0
2019-07-01T19:22:47.314Z,-0.00926871,-0.007349119,0.49742162,0.033981323,-0.22923279,9.804825,18.330383,24.484253,-95.26367,0.034605253,-0.22938839,9.803906,0.0020045228,-0.0015490055,0.0025234222,0.0001373291,-9.1552734e-05,4.5776367e-05
2019-07-01T19:22:47.523Z,-0.009273536,-0.0073174015,0.49735948,0.03326416,-0.22660828,9.801239,18.486023,26.019287,-94.277954,0.034035012,-0.22915863,9.803913,-0.0012562089,0.0006233007,0.0005645752,1.5258789e-05,-3.0517578e-05,0.00012207031
2019-07-01T19:22:47.755Z,-0.009245245,-0.0072723483,0.4972276,0.033493042,-0.23114014,9.804108,17.55066,26.608276,-93.74237,0.03357924,-0.22823282,9.803936,-0.000798326,0.0011172891,-0.0012273788,0.00019836426,3.0517578e-05,0.0
2019-07-01T19:22:47.944Z,-0.009270309,-0.007292426,0.49730182,0.036132812,-0.22732544,9.805313,17.793274,27.83966,-90.48004,0.033656806,-0.2288579,9.803922,0.00079871714,-0.0020613372,0.0022068024,0.0001373291,9.1552734e-05,-6.1035156e-05
2019-07-01T19:22:48.129Z,-0.009233579,-0.0073027345,0.49727842,0.034942627,-0.22923279,9.799561,18.193054,26.50299,-93.263245,0.034196656,-0.22833265,9.803932,0.0012204386,0.0009975582,-0.00012683868,-4.5776367e-05,9.1552734e-05,0.00016784668
2019-07-01T19:22:48.328Z,-0.009232889,-0.007334866,0.49734658,0.033981323,-0.22827148,9.803879,18.765259,26.76239,-93.60962,0.034732085,-0.228637,9.803924,0.0014054142,-0.00062662363,-0.0018348694,1.5258789e-05,3.0517578e-05,-6.1035156e-05
2019-07-01T19:22:48.533Z,-0.00923307,-0.0073368377,0.49735105,0.037094116,-0.23162842,9.803162,18.284607,26.649475,-92.85736,0.03476269,-0.22865944,9.803922,-6.0450286e-05,0.00011909008,0.0005273819,1.5258789e-05,3.0517578e-05,-6.1035156e-05
2019-07-01T19:22:48.738Z,-0.009252945,-0.00736917,0.49744514,0.0335083,-0.22875977,9.803879,18.00232,25.759888,-93.02826,0.03509397,-0.22931673,9.8039055,0.000797797,-0.0016147643,0.0003490448,1.5258789e-05,-9.1552734e-05,0.000289917
2019-07-01T19:22:48.943Z,-0.009257549,-0.0073641725,0.4974401,0.033737183,-0.22732544,9.805786,17.456055,26.313782,-94.02466,0.034965355,-0.2293461,9.8039055,-0.0014549531,0.00034366548,0.00056266785,1.5258789e-05,-0.0002746582,0.0004119873
2019-07-01T19:22:49.141Z,-0.009229425,-0.0073574977,0.4973909,0.033981323,-0.23091125,9.804108,17.9245,25.978088,-93.80951,0.035139214,-0.22880058,9.803918,3.178045e-05,0.0005324483,0.0014801025,1.5258789e-05,-3.0517578e-05,0.00035095215
2019-07-01T19:22:49.354Z,-0.009260577,-0.0073400307,0.49739203,0.0335083,-0.23234558,9.804596,17.662048,25.756836,-95.50629,0.034537822,-0.22916019,9.803911,-0.0012753792,-0.0010224879,0.00066947937,0.0001373291,-9.1552734e-05,0.00047302246
2019-07-01T19:22:49.545Z,-0.009327347,-0.0073469155,0.49748963,0.032546997,-0.23066711,9.802444,17.0578,24.917603,-96.02814,0.03397755,-0.23036703,9.803885,-0.0016750433,-0.0024491996,-0.0008249283,1.5258789e-05,-9.1552734e-05,0.00024414062
2019-07-01T19:22:49.759Z,-0.009324213,-0.007337447,0.4974654,0.03277588,-0.22755432,9.801956,18.579102,26.316833,-94.37256,0.033853494,-0.23022039,9.803889,-0.000115145,1.8388033e-05,-0.00087833405,7.6293945e-05,-9.1552734e-05,0.00012207031
2019-07-01T19:22:49.957Z,-0.00928466,-0.007283749,0.49730098,0.034698486,-0.23066711,9.800995,19.53888,26.237488,-94.57855,0.033369403,-0.2290174,9.803919,-0.0013076477,0.0016711056,-0.0010690689,0.0001373291,-9.1552734e-05,0.00018310547
2019-07-01T19:22:50.160Z,-0.009286875,-0.007328492,0.49739984,0.03517151,-0.23019409,9.801239,19.203186,25.99945,-94.9173,0.03408286,-0.2294953,9.803905,0.00084990636,-0.0014523119,-0.0013570786,0.00019836426,-9.1552734e-05,0.00024414062
2019-07-01T19:22:50.357Z,-0.009286119,-0.007362128,0.49747115,0.032546997,-0.22827148,9.801956,19.143677,26.356506,-94.31,0.034643568,-0.22981337,9.803895,0.0012521558,-0.00067164004,-0.0009050369,-4.5776367e-05,3.0517578e-05,0.00024414062
2019-07-01T19:22:50.560Z,-0.009281711,-0.007317908,0.4973707,0.03326416,-0.22947693,9.800766,19.485474,26.663208,-93.80951,0.033960897,-0.22930306,9.803909,-0.0021233298,0.0012082309,-0.0004377365,1.5258789e-05,-0.0002593994,6.1035156e-05
2019-07-01T19:22:50.771Z,-0.009275932,-0.007316695,0.49736094,0.033493042,-0.22875977,9.805069,18.545532,25.361633,-93.43262,0.03399923,-0.22919257,9.803913,-0.0004990399,0.00015573204,0.0003490448,1.5258789e-05,-0.00015258789,0.00012207031
2019-07-01T19:22:50.973Z,-0.009285819,-0.007314514,0.4973685,0.033737183,-0.23187256,9.802429,17.738342,25.382996,-93.922424,0.033863656,-0.22933976,9.803909,-0.00059554726,-0.0003927946,0.001830101,-4.5776367e-05,-9.1552734e-05,0.000289917
2019-07-01T19:22:51.170Z,-0.009310546,-0.007348192,0.4974715,0.03326416,-0.23019409,9.8022,19.410706,25.210571,-95.085144,0.034168024,-0.23009299,9.803891,4.6223402e-05,-0.0010896325,-5.8174133e-05,-0.00010681152,-9.1552734e-05,0.00030517578
2019-07-01T19:22:51.369Z,-0.009336405,-0.0073232036,0.4974499,0.032546997,-0.22923279,9.802673,18.980408,26.347351,-94.532776,0.03349632,-0.23028824,9.803888,-0.0014316626,5.3286552e-05,-0.0011548996,-4.5776367e-05,-3.0517578e-05,0.00035095215
2019-07-01T19:22:51.574Z,-0.009335725,-0.0073196115,0.49744135,0.033981323,-0.23019409,9.801483,17.906189,25.843811,-95.49713,0.03344414,-0.2302413,9.80389,-0.00017573684,1.8000603e-05,0.0009889603,7.6293945e-05,9.1552734e-05,0.000289917
2019-07-01T19:22:51.782Z,-0.009312993,-0.0073478855,0.4974739,0.039001465,-0.22972107,9.8029175,18.566895,26.32904,-95.954895,0.034138307,-0.2301317,9.80389,0.0012816489,0.00039686263,2.002716e-05,-0.00016784668,-0.00019836426,0.00018310547
2019-07-01T19:22:51.982Z,-0.009270128,-0.0073833,0.49749678,0.03326416,-0.22947693,9.804108,19.358826,25.863647,-95.025635,0.035152994,-0.22974896,9.803896,0.0017017014,0.00071419775,-0.00014972687,1.5258789e-05,-9.1552734e-05,0.00035095215
2019-07-01T19:22:52.190Z,-0.009297646,-0.007349252,0.4974578,0.03062439,-0.23066711,9.804108,18.345642,26.599121,-95.06073,0.03431558,-0.22988334,9.803896,-0.0020087585,0.00013573468,0.0003824234,1.5258789e-05,-9.1552734e-05,6.1035156e-05
2019-07-01T19:22:52.399Z,-0.0093084425,-0.007346302,0.49746484,0.034454346,-0.23042297,9.806747,18.03894,26.94397,-94.97833,0.034158174,-0.23003848,9.803892,-0.00089361146,-0.0011196285,0.0020093918,7.6293945e-05,-9.1552734e-05,0.00016784668
2019-07-01T19:22:52.591Z,-0.009316485,-0.0073278807,0.49743524,0.033981323,-0.23114014,9.8029175,19.343567,27.165222,-93.852234,0.03377416,-0.22999443,9.803894,-0.00028357282,-0.00018295646,0.0016527176,6.1035156e-05,0.00012207031,1.5258789e-05
2019-07-01T19:22:52.788Z,-0.009350382,-0.0073648854,0.4975568,0.034225464,-0.23210144,9.802673,19.200134,27.368164,-92.97333,0.034040555,-0.2309368,9.803871,0.0004141368,-0.0011669695,9.1552734e-05,0.00018310547,6.1035156e-05,0.0
2019-07-01T19:22:52.991Z,-0.009339634,-0.0073271766,0.49746245,0.0284729,-0.22851562,9.805542,19.425964,27.020264,-92.98096,0.03352908,-0.23038241,9.803886,-0.0005074404,0.00042133033,-0.0007390976,6.1035156e-05,1.5258789e-05,1.5258789e-05
2019-07-01T19:22:53.195Z,-0.0093707,-0.0072250436,0.49728152,0.035888672,-0.2311554,9.804596,18.008423,26.135254,-94.31,0.031536434,-0.22990794,9.803904,-0.0035370104,0.0011514723,0.0012683868,0.0,0.0001373291,-0.000289917
2019-07-01T19:22:53.399Z,-0.009340952,-0.007332935,0.49747646,0.033737183,-0.23091125,9.804596,18.50586,24.710083,-94.77234,0.033610452,-0.23046154,9.803884,0.0044266246,-0.0011457354,0.0014762878,0.0,0.0002593994,-0.000289917
2019-07-01T19:22:53.607Z,-0.009364768,-0.007364117,0.497573,0.036605835,-0.22923279,9.802444,17.8833,25.256348,-95.23926,0.03388276,-0.23117463,9.803866,0.0010435805,-0.0016369671,-0.0012464523,0.00012207031,0.0001373291,-0.00035095215
2019-07-01T19:22:53.809Z,-0.009325892,-0.0073186923,0.4974272,0.032546997,-0.22923279,9.8029175,17.443848,26.249695,-95.243835,0.033528205,-0.23006451,9.803894,-3.385544e-05,0.0020129383,-0.0013113022,6.1035156e-05,0.00012207031,-0.00010681152
2019-07-01T19:22:54.008Z,-0.009315237,-0.0073014856,0.497377,0.03277588,-0.23162842,9.807938,18.882751,26.12915,-95.780945,0.03335274,-0.2297135,9.803903,-0.00057539716,0.00047063828,-8.201599e-05,6.1035156e-05,-6.1035156e-05,0.00012207031
2019-07-01T19:22:54.214Z,-0.009335583,-0.0073121344,0.4974251,0.033981323,-0.23162842,9.802429,18.939209,25.54779,-95.44983,0.033322625,-0.23016532,9.803892,-6.12922e-05,-0.0011994541,0.0024967194,-0.00024414062,-0.00022888184,-4.5776367e-05
2019-07-01T19:22:54.419Z,-0.00936353,-0.007369894,0.49758387,0.03302002,-0.23114014,9.8022,18.408203,25.935364,-93.53638,0.033990208,-0.2312104,9.803865,0.00046302006,-0.00088344514,-0.0010414124,-6.1035156e-05,0.0,0.00030517578
2019-07-01T19:22:54.609Z,-0.009358043,-0.0073467703,0.4975274,0.034210205,-0.23019409,9.803635,20.133972,26.930237,-94.31152,0.033665467,-0.23088923,9.803874,-0.00017124787,-3.0070543e-05,-0.0013313293,0.00012207031,0.00012207031,-0.00010681152
2019-07-01T19:22:54.831Z,-0.009359343,-0.007344434,0.497524,0.031585693,-0.22923279,9.803162,18.592834,26.457214,-93.437195,0.03361394,-0.23088841,9.803874,0.00012377277,0.0004618317,0.00038719177,-0.00012207031,0.0,-4.5776367e-05
2019-07-01T19:22:55.032Z,-0.009339481,-0.007291454,0.49738553,0.03756714,-0.23019409,9.801483,19.604492,25.801086,-94.06738,0.032943275,-0.2300284,9.803897,-0.00088280067,0.001500532,-0.0007009506,0.00018310547,6.1035156e-05,-0.00016784668
2019-07-01T19:22:55.233Z,-0.009287235,-0.0073567387,0.49746096,0.030151367,-0.22827148,9.8022,18.449402,26.808167,-92.98248,0.03454369,-0.2297794,9.803897,0.002782803,5.0351024e-05,-0.00094890594,6.1035156e-05,0.0,1.5258789e-05
2019-07-01T19:22:55.432Z,-0.0093159415,-0.0072903256,0.4973539,0.03541565,-0.23162842,9.805069,17.999268,25.837708,-93.91785,0.03316213,-0.22961573,9.8039055,-0.0022891536,0.00010803342,-0.0006351471,0.0,0.0,-4.5776367e-05
2019-07-01T19:22:55.633Z,-0.009322472,-0.0073209032,0.4974277,0.032546997,-0.22994995,9.805786,17.91687,25.909424,-94.503784,0.033599053,-0.23002794,9.803895,0.0011005402,-0.00040261447,0.0019702911,0.0,0.00018310547,-0.00022888184
2019-07-01T19:22:55.840Z,-0.009340911,-0.007301702,0.4974093,0.033981323,-0.23019409,9.803864,18.621826,25.520325,-94.53583,0.03309736,-0.23015359,9.803893,-0.0012678541,-0.00051124394,0.000834465,0.00012207031,-6.1035156e-05,-0.00022888184
2019-07-01T19:22:56.037Z,-0.009319174,-0.0073159467,0.49741295,0.034698486,-0.22779846,9.803146,17.588806,26.045227,-96.04797,0.03355082,-0.2299229,9.803897,0.0013755225,-2.0042062e-05,0.00039958954,-6.1035156e-05,0.00012207031,-0.00010681152
2019-07-01T19:22:56.243Z,-0.009265948,-0.0072970297,0.49730632,0.032058716,-0.22923279,9.8033905,18.403625,26.089478,-94.93866,0.03377649,-0.22882879,9.803922,0.00092249736,0.0014999658,-0.00085926056,0.00018310547,0.00012207031,0.00012207031
2019-07-01T19:22:56.446Z,-0.009299251,-0.007278069,0.49730685,0.033981323,-0.22994995,9.803635,18.814087,26.342773,-95.433044,0.033128873,-0.22921047,9.803915,-0.0010681674,-0.0005090982,-0.00089740753,0.00012207031,6.1035156e-05,-0.00010681152
2019-07-01T19:22:56.645Z,-0.009318722,-0.0072931238,0.49736336,0.036376953,-0.23091125,9.805786,18.518066,26.904297,-95.23163,0.033180095,-0.2296907,9.803904,0.00080092624,-0.0014625788,0.0013198853,-6.1035156e-05,0.00018310547,-0.000289917
2019-07-01T19:22:56.853Z,-0.00931162,-0.00734468,0.4974653,0.034225464,-0.22898865,9.804108,18.682861,26.83258,-94.11926,0.034099445,-0.23007673,9.803891,0.00227537,-0.00033181906,0.0010356903,-6.1035156e-05,6.1035156e-05,-0.00047302246
2019-07-01T19:22:57.053Z,-0.00929817,-0.0073155374,0.497386,0.03302002,-0.23306274,9.802444,18.800354,25.820923,-94.255066,0.03375593,-0.22956055,9.803905,-0.0004922971,0.0010485202,-0.00089645386,-6.1035156e-05,0.00012207031,-0.00022888184
2019-07-01T19:22:57.252Z,-0.009356054,-0.007351255,0.49753454,0.034225464,-0.22755432,9.805786,18.62793,27.030945,-92.11273,0.033759266,-0.23089941,9.803873,0.00045244023,-0.0024177432,-0.0012369156,-6.1035156e-05,0.00012207031,-0.00022888184
2019-07-01T19:22:57.460Z,-0.009302681,-0.007312421,0.49738494,0.034454346,-0.22947693,9.805069,18.836975,26.472473,-93.21747,0.033659186,-0.22960688,9.803905,-0.00015224144,0.0027789623,0.0017309189,0.0,-0.00010681152,-0.00016784668
2019-07-01T19:22:57.665Z,-0.009285621,-0.00732831,0.4973979,0.034698486,-0.22898865,9.801956,18.714905,25.440979,-92.819214,0.034092516,-0.22947213,9.8039055,0.00084785,0.00025455654,0.0005130768,6.1035156e-05,0.0,-0.00022888184
2019-07-01T19:22:57.868Z,-0.009287909,-0.0073180916,0.4973788,0.03277588,-0.23187256,9.8022,17.901611,25.697327,-95.30029,0.03390141,-0.22941065,9.803908,-0.00039235502,-7.136166e-05,-0.0017347336,6.1035156e-05,0.00012207031,1.5258789e-05
2019-07-01T19:22:58.068Z,-0.009337328,-0.0073407227,0.4974887,-0.025604248,-0.23951721,9.802429,19.563293,26.59607,-93.600464,0.03377504,-0.23047636,9.803884,0.00043698773,-0.0023546666,-0.00068092346,0.00012207031,0.00012207031,-0.000289917
2019-07-01T19:22:58.274Z,-0.016697623,-0.000101922735,0.49852166,-3.8727875,-6.22229,8.683548,46.377563,42.590332,-36.77368,-0.16153097,-0.28484225,9.801181,-0.041619763,-0.09305686,0.02631569,-0.41171265,0.6528473,0.029022217
2019-07-01T19:22:58.472Z,-0.39835402,0.096339114,0.4484316,-4.04364,-18.565918,2.552658,-17.581177,6.680298,41.06903,-5.0045,-5.358716,6.5122595,0.70695734,-2.3079104,1.4575777,-5.906555,4.912323,0.06187439
2019-07-01T19:22:58.676Z,-0.43784222,-0.87372756,0.15865187,0.63243103,-2.2257996,-7.729294,-23.547363,-34.38263,-7.295227,1.0442816,-3.9248164,-8.926124,-4.213045,-15.47552,8.268534,-4.6933594,7.866791,-5.9259186
2019-07-01T19:22:58.879Z,-0.0047134594,-0.8212828,-0.32775265,5.9607544,1.5740051,3.0881805,2.2079468,-21.504211,-37.216187,7.552103,5.236293,-3.4230642,-2.316378,-4.5597954,-8.330398,-3.411148,5.361862,-3.2197113
2019-07-01T19:22:59.101Z,0.17939204,0.048405588,-0.74558806,-3.8967133,-6.2105713,9.7565,32.209778,3.9535522,-26.766968,-3.2309215,1.5438925,9.129509,0.8242724,1.3677865,3.783052,-2.2536774,4.083679,-1.5450592
2019-07-01T19:22:59.292Z,0.17447557,0.209274,-0.8851382,-1.9269409,-1.9207153,9.803162,23.400879,29.493713,-20.753479,-4.577289,-2.3422432,8.350611,-1.0321844,-5.3807974,4.955097,1.7624359,-0.8591156,-4.1497498
2019-07-01T19:22:59.548Z,0.07881489,-0.09368961,-0.9553949,3.168335,1.348114,7.4653625,-3.1417847,14.909363,-40.908813,-0.9830084,2.1710498,9.512656,-0.5353302,-2.5461411,3.5121799,3.3964386,-3.5300903,-0.9767761
2019-07-01T19:22:59.742Z,-0.09152259,-0.29443094,-0.9262083,4.665283,3.327942,5.7265015,-27.24762,0.53253174,-38.542175,2.9154997,4.959174,7.9420924,1.4192997,-1.7104349,2.2541246,0.66934204,-0.26638794,0.044418335
2019-07-01T19:22:59.987Z,-0.047162674,-0.21747895,-0.91397065,5.4673615,2.9402924,9.301147,-17.668152,9.394836,-46.34247,2.2927883,3.5846498,8.835372,3.4114606,1.0118508,0.21245575,-1.0735931,0.8248749,0.45700073
2019-07-01T19:23:00.143Z,0.008651429,-0.21066195,-0.89982235,3.9771118,3.188919,8.409332,-14.729309,8.647156,-47.14508,1.4253427,3.7826707,8.934774,4.180982,0.5171242,2.9757004,0.15522766,0.5153961,-0.22198486
2019-07-01T19:23:00.300Z,-0.07697078,-0.36192632,-0.80769515,1.0600128,1.9264679,9.633026,-18.708801,5.9005737,-46.484375,4.477832,5.040497,7.121292,-1.9237483,-1.5660431,3.9733157,-0.04598999,-0.43156433,-0.24848938
2019-07-01T19:23:00.480Z,0.072773956,-0.0018000024,-0.580316,5.7221985,2.3121796,5.7391815,-24.87793,6.0562134,-44.387817,-0.79967064,1.1782457,9.702714,6.105352,1.710129,-0.052662373,1.1519928,-0.42771912,1.3943634
2019-07-01T19:23:00.682Z,0.20519856,0.011569344,-0.4668761,0.45248413,-1.557251,11.261581,11.656189,24.821472,-45.611572,-2.0741692,3.35567,8.978179,1.4650848,-4.3433647,4.698088,-1.2497101,3.2445831,0.97042847
2019-07-01T19:23:00.890Z,0.1994734,0.020349465,-0.32786947,-0.45391846,2.8615723,6.7870026,8.895874,13.879395,-49.087524,-1.6512016,3.4810042,9.018122,0.6052617,0.5231049,0.5539985,0.82803345,-0.35850525,-0.9232025
2019-07-01T19:23:01.083Z,0.13892116,-0.010501521,-0.079966195,1.6785583,0.33044434,10.526749,9.269714,14.085388,-53.96881,-0.014589386,2.705789,9.425968,2.1846542,-1.8416182,3.7313824,-0.6518402,-0.08892822,0.2774048
2019-07-01T19:23:01.284Z,0.13295998,0.014062891,0.033076104,2.1468353,0.42042542,9.824936,13.745117,13.13324,-52.607727,-0.18693566,2.5920537,9.45604,1.9305269,-1.2983121,2.8451347,0.070739746,0.0012969971,0.8169098
2019-07-01T19:23:01.601Z,0.04989208,0.117106475,0.19011043,-0.5209198,2.1643066,7.4813995,15.985107,12.843323,-52.53296,-2.04989,1.3892472,9.488853,0.7542795,0.78413785,0.52783775,-0.0024261475,0.22761536,-0.093826294
2019-07-01T19:23:01.806Z,-0.00632619,0.13208534,0.36733553,-1.5984039,-2.4392395,11.755936,29.79889,16.848755,-36.956787,-2.4306152,0.83739954,9.463681,0.43433106,-3.2638614,4.449208,-1.2013245,1.5181427,1.2024384
2019-07-01T19:23:02.011Z,0.034014057,0.11820963,0.33643603,-0.6020355,-2.2167053,9.487305,27.859497,17.860413,-33.49762,-1.9401765,1.4028766,9.5098915,0.4957775,-2.9279153,2.1160884,-0.0154418945,-0.77708435,0.21899414
2019-07-01T19:23:02.215Z,0.047213826,0.05275024,0.37804255,0.07058716,0.35437012,9.373413,22.547913,18.328857,-36.05652,-0.60494727,1.2459126,9.708354,0.97442925,-0.70215666,2.0971475,0.55278015,-0.23394775,-0.059799194
2019-07-01T19:23:02.421Z,0.04629056,0.04380864,0.45549175,-0.17372131,-0.6826782,9.786163,25.349426,14.363098,-36.450195,-0.34941408,1.1975576,9.726981,0.09865242,-1.5437609,2.1199136,-0.008422852,0.029327393,0.09567261
2019-07-01T19:23:02.626Z,0.04231833,0.040977776,0.4669803,0.09643555,-0.23951721,9.802444,26.203918,12.324524,-39.015198,-0.32152095,1.1076301,9.738591,0.35753947,-1.1272266,2.0427752,0.00024414062,6.1035156e-05,-0.00035095215