rotationVector_x,rotationVector_y,rotationVector_z,accelerometer_x,accelerometer_y,accelerometer_z,magneticField_x,magneticField_y,magneticField_z,gravity_x,gravity_y,gravity_z,linearAcceleration_x,linearAcceleration_y,linearAcceleration_z,gyroscope_x,gyroscope_y,gyroscope_z
0.01084644,-0.012200683,0.9938639,0.23928833,-0.2033844,9.8033905,3.0258179,-15.745544,-37.789917,0.23760773,-0.21455446,9.801423,-0.0019135177,0.00086410344,-0.00157547,-9.1552734e-05,0.0,0.00010681152
0.010884835,-0.012152581,0.9938531,0.2416687,-0.21296692,9.7986145,2.89917,-16.545105,-39.004517,0.23827447,-0.21351051,9.80143,0.0014969558,0.0019688755,-0.000248909,3.0517578e-05,0.0,-7.6293945e-05
0.010877598,-0.012148648,0.9938549,0.24406433,-0.21534729,9.796219,2.7877808,-15.536499,-38.34076,0.23812164,-0.21345311,9.8014345,-0.0009935349,7.31647e-06,0.00031757355,9.1552734e-05,-6.1035156e-05,0.00024414062
0.010930107,-0.012215079,0.99384224,0.2416687,-0.22013855,9.805786,1.776123,-14.953613,-37.425232,0.2393096,-0.2146104,9.801381,0.0021408796,-0.0017077476,-0.00042247772,-0.00015258789,-6.1035156e-05,0.00010681152
0.010907582,-0.012242735,0.9938486,0.2368927,-0.21774292,9.805786,3.6880493,-15.338135,-37.50763,0.23891729,-0.21521193,9.801377,-0.0005878806,-0.00062580407,0.00067710876,-3.0517578e-05,0.0,-1.5258789e-05
0.010933736,-0.0122518465,0.9938419,0.2368927,-0.21774292,9.800995,2.1347046,-15.802002,-38.14392,0.23945895,-0.2153195,9.801361,0.00081445277,-4.915893e-05,-0.0017738342,-0.00015258789,0.0,0.00018310547
0.01095795,-0.012262341,0.99383575,0.2416687,-0.21774292,9.805786,1.8814087,-16.035461,-38.104248,0.23996477,-0.21545932,9.801347,-0.00017485023,0.00031526387,-0.000374794,-0.00015258789,-0.00030517578,-7.6293945e-05
0.010936845,-0.012265151,0.99384135,0.2368927,-0.22013855,9.800995,2.609253,-15.835571,-38.998413,0.23954888,-0.21557125,9.801353,-0.00021336973,-6.262958e-05,-0.0015258789,-3.0517578e-05,0.0,0.00024414062
0.01091325,-0.012293208,0.99384797,0.23210144,-0.20578003,9.800995,3.352356,-15.65094,-37.631226,0.23913597,-0.2161835,9.80135,-0.0012475997,-0.00087334216,0.0010538101,-9.1552734e-05,-6.1035156e-05,0.00018310547
0.010889949,-0.012266092,0.9938536,0.23210144,-0.21057129,9.810577,2.7664185,-16.123962,-37.78076,0.23861368,-0.21571614,9.801373,-0.0012255311,0.001065731,0.0010309219,-3.0517578e-05,4.5776367e-05,0.00024414062
0.010872528,-0.012230761,0.99385756,0.23928833,-0.21057129,9.800995,2.848816,-15.893555,-38.87024,0.2381918,-0.2150723,9.801397,-0.0012902766,0.0009072423,0.0011663437,-3.0517578e-05,-0.00012207031,0.00016784668
0.010865136,-0.01216718,0.99385846,0.23928833,-0.21534729,9.800995,3.1600952,-16.316223,-37.986755,0.23791139,-0.21384905,9.801432,-0.00054354966,0.0020856708,0.0006122589,0.00021362305,-0.00012207031,-0.0001373291
0.01086682,-0.012178556,0.9938582,0.2368927,-0.22732544,9.800995,2.39563,-15.423584,-37.47406,0.23796877,-0.21406694,9.801425,-0.000113770366,0.00015307963,9.918213e-05,-9.1552734e-05,-6.1035156e-05,0.00010681152
0.010874496,-0.012130354,0.9938554,0.22970581,-0.22253418,9.7986145,2.3529053,-16.37268,-37.66327,0.23802148,-0.21310379,9.801445,0.0007752478,0.0018182844,0.000374794,-3.0517578e-05,0.00010681152,0.00018310547
0.010836448,-0.012153406,0.9938657,0.2368927,-0.21534729,9.800995,3.3721924,-14.985657,-38.630676,0.23730944,-0.21365695,9.80145,-0.0016282499,-0.00049470365,0.0002565384,-0.00015258789,4.5776367e-05,0.00018310547
0.010833811,-0.0122241415,0.9938676,0.24406433,-0.21296692,9.7986145,2.2338867,-15.507507,-37.330627,0.23740433,-0.2150471,9.801417,0.00019070506,-0.003399551,0.00064468384,9.1552734e-05,4.5776367e-05,-1.5258789e-05
0.010916077,-0.012230625,0.9938462,0.23928833,-0.21534729,9.810577,2.5360107,-15.924072,-37.579346,0.23906173,-0.21495223,9.801379,0.0030818582,-0.00015412271,-0.00020122528,0.00015258789,-6.1035156e-05,0.00010681152
0.010916454,-0.012265745,0.99384665,0.23449707,-0.21296692,9.800995,2.1697998,-16.894531,-37.763977,0.23914263,-0.21563789,9.801362,0.0017741472,0.0003066957,0.00060367584,-0.00015258789,4.5776367e-05,-7.6293945e-05
0.010874946,-0.012246779,0.9938572,0.2368927,-0.21296692,9.793823,3.3752441,-15.066528,-37.815857,0.23827355,-0.21537897,9.801389,-0.0018384755,0.00049078465,-0.0040636063,-3.0517578e-05,4.5776367e-05,-1.5258789e-05
0.010893066,-0.012251409,0.99385256,0.24885559,-0.21534729,9.8033905,2.3620605,-16.149902,-37.921143,0.23864532,-0.21542065,9.801378,0.0011389256,0.00028157234,-0.0006341934,-3.0517578e-05,0.0,-1.5258789e-05
0.010890497,-0.012264521,0.99385345,0.2368927,-0.21296692,9.805786,2.9693604,-15.013123,-38.468933,0.23862135,-0.21568395,9.8013735,-0.0002721548,-0.0004005283,5.8174133e-05,-9.1552734e-05,4.5776367e-05,-7.6293945e-05
0.010953136,-0.012261604,0.993837,0.23449707,-0.21296692,9.800995,2.4642944,-15.557861,-38.482666,0.239867,-0.2154579,9.801349,0.0018285811,0.00057320297,0.0008382797,3.0517578e-05,-0.00018310547,0.00030517578
0.010882148,-0.012253333,0.9938554,0.23210144,-0.22013855,9.8033905,2.445984,-15.995789,-38.4964,0.23843117,-0.21548772,9.801383,-0.0031763464,0.00033262372,-0.0023050308,-3.0517578e-05,0.0,-7.6293945e-05
0.010859122,-0.012241455,0.99386126,0.24406433,-0.21057129,9.805786,3.1066895,-15.586853,-38.516235,0.23794621,-0.21531747,9.801397,-0.00079622865,-0.00029964745,0.0010108948,-3.0517578e-05,-6.1035156e-05,-0.0002593994
0.010903768,-0.012253686,0.99384975,0.24406433,-0.22253418,9.796219,3.2562256,-15.8706665,-38.20343,0.23886395,-0.21543632,9.8013735,0.001626566,7.8231096e-05,0.0013189316,3.0517578e-05,4.5776367e-05,-7.6293945e-05
0.010909209,-0.012243145,0.9938482,0.2368927,-0.21296692,9.793823,2.658081,-14.73999,-38.92975,0.23895065,-0.21521556,9.801376,0.0003527254,0.0010448992,-0.00023651123,-9.1552734e-05,-0.00012207031,-7.6293945e-05
0.010936222,-0.0122311255,0.99384093,0.23449707,-0.20817566,9.8033905,3.1188965,-16.584778,-41.51306,0.2394653,-0.21490763,9.80137,0.0010320544,0.0012218952,-0.00030612946,-0.0002746582,0.00016784668,0.00024414062
0.010924082,-0.012238524,0.9938442,0.2416687,-0.22492981,9.8033905,3.5980225,-15.257263,-39.300537,0.23923816,-0.21508504,9.801371,-0.00090518594,-0.00026758015,0.0010719299,3.0517578e-05,-0.00012207031,-1.5258789e-05
0.01090573,-0.012275852,0.99384964,0.2368927,-0.21534729,9.796219,2.3620605,-16.000366,-38.64441,0.23894945,-0.21586445,9.801362,-0.00060388446,-0.00094918907,-0.0010404587,-0.00015258789,-6.1035156e-05,-1.5258789e-05
0.010924775,-0.012264047,0.99384445,0.2368927,-0.22013855,9.8033905,3.553772,-16.435242,-38.179016,0.23930538,-0.21558224,9.801359,-0.00023792684,0.0009158999,-0.00035762787,-3.0517578e-05,-0.00018310547,-0.0001373291
0.010902725,-0.012275112,0.9938504,0.24406433,-0.21296692,9.805786,3.062439,-14.715576,-38.565063,0.23888786,-0.21585809,9.801364,-0.0010249168,0.00025856495,0.001203537,-0.0002746582,-0.00018310547,0.00010681152
0.010892945,-0.012230236,0.9938522,0.2368927,-0.21774292,9.805786,3.3447266,-15.643311,-38.612366,0.23859872,-0.21500702,9.80139,-0.0005237907,0.0020472556,0.0014457703,-3.0517578e-05,6.1035156e-05,0.00018310547
0.010889923,-0.012249727,0.99385333,0.2416687,-0.21057129,9.800995,2.8640747,-15.527344,-38.946533,0.238579,-0.21539626,9.801381,-0.00050608814,-0.00065918267,0.00016498566,-9.1552734e-05,-0.00012207031,0.00010681152
0.010930539,-0.012227554,0.99384236,0.23449707,-0.20817566,9.808182,3.036499,-17.042542,-39.26239,0.2393443,-0.21485315,9.801374,0.0008671433,0.0016779453,0.0010766983,-9.1552734e-05,-0.00018310547,0.00018310547
0.010912454,-0.012230439,0.99384713,0.2368927,-0.22013855,9.7986145,3.5339355,-15.205383,-37.24823,0.23898894,-0.21495835,9.80138,-0.00069734454,-0.00012816489,0.0010442734,-9.1552734e-05,-0.00012207031,0.0
0.010901509,-0.012229996,0.99385,0.2416687,-0.21057129,9.791428,1.890564,-15.890503,-37.849426,0.23876932,-0.21497923,9.801386,-0.0007028729,0.00011976063,-0.0015392303,-9.1552734e-05,0.00010681152,4.5776367e-05
0.01088691,-0.012195056,0.9938532,0.23449707,-0.21534729,9.805786,2.8030396,-15.246582,-38.056946,0.23840462,-0.21433541,9.801408,-9.264052e-05,0.0018703043,-7.05719e-05,-9.1552734e-05,4.5776367e-05,4.5776367e-05
0.010904587,-0.01223667,0.9938493,0.23449707,-0.22492981,9.800995,2.6519775,-15.267944,-36.846924,0.23884478,-0.21510142,9.801382,0.0008957386,-0.00071538985,0.00043678284,-0.00015258789,4.5776367e-05,-0.0001373291
0.0108971605,-0.012230775,0.9938511,0.23928833,-0.21057129,9.793823,3.1021118,-14.067078,-37.149048,0.23868404,-0.21500619,9.801387,-0.00035604835,-0.00011308491,-0.001786232,-3.0517578e-05,-6.1035156e-05,0.00024414062
0.010895849,-0.012254806,0.9938519,0.2416687,-0.22013855,9.8033905,2.5161743,-16.288757,-37.879944,0.23870805,-0.21547958,9.801376,-0.00038905442,-0.0005928725,0.0007381439,-9.1552734e-05,0.0,0.00018310547
0.010910813,-0.012256709,0.99384797,0.23928833,-0.21774292,9.8033905,2.7145386,-15.473938,-37.721252,0.23901102,-0.21547642,9.801369,0.000751704,0.00012789667,-0.000790596,-3.0517578e-05,-6.1035156e-05,-7.6293945e-05
0.010894159,-0.01225893,0.9938524,0.23449707,-0.21296692,9.805786,2.8396606,-16.267395,-37.8891,0.23868285,-0.21556476,9.801374,-0.000605762,-0.00073857605,0.0005874634,0.00021362305,0.0,0.00022888184
0.010894079,-0.012249028,0.99385226,0.23928833,-0.21774292,9.810577,3.0212402,-15.663147,-38.7558,0.23866057,-0.21537139,9.801379,0.00013276935,3.014505e-05,7.247925e-05,-3.0517578e-05,4.5776367e-05,0.00010681152
0.010902711,-0.012272531,0.99385035,0.23928833,-0.21057129,9.800995,2.8762817,-15.310669,-38.601685,0.23888218,-0.21580766,9.801365,0.00041016936,-0.00074869394,-0.0009069443,3.0517578e-05,4.5776367e-05,-7.6293945e-05
0.010927315,-0.012254285,0.9938436,0.23449707,-0.22253418,9.7986145,3.6026,-15.185547,-38.98468,0.23933573,-0.2153845,9.801363,0.00043529272,0.0012186915,-0.0004453659,3.0517578e-05,-0.00012207031,4.5776367e-05
0.010878548,-0.012289723,0.99385697,0.24406433,-0.22013855,9.800995,2.8656006,-15.605164,-38.2843,0.23843518,-0.21620893,9.801367,-0.001540795,-0.001535505,0.0006580353,-9.1552734e-05,6.1035156e-05,4.5776367e-05
0.0109074535,-0.012328787,0.99385005,0.23928833,-0.21774292,9.805786,3.2104492,-15.223694,-37.615967,0.23909445,-0.21689482,9.801336,0.001120016,-0.0008300394,0.0017271042,-0.00015258789,0.0,-1.5258789e-05
0.010914799,-0.012329689,0.99384815,0.2368927,-0.22970581,9.805786,1.9897461,-15.216064,-39.453125,0.23947904,-0.21714127,9.801321,0.00027483702,0.0003530383,-0.00044345856,-3.0517578e-05,-0.00012207031,-0.0001373291
0.010925124,-0.01234383,0.9938457,0.2416687,-0.20817566,9.796219,2.9129028,-16.477966,-38.01117,0.23982486,-0.2163664,9.80133,-5.9068203e-05,0.0010151118,-0.0020608902,0.00015258789,-0.00024414062,0.00010681152
0.010901007,-0.012274392,0.9938508,0.23210144,-0.21774292,9.793823,3.0319214,-15.597534,-37.760925,0.23885201,-0.21584864,9.801365,-0.0019431263,0.0012038797,-0.0008955002,-3.0517578e-05,4.5776367e-05,0.00030517578
0.010889017,-0.012258458,0.99385375,0.24645996,-0.21057129,9.789032,2.8625488,-15.37323,-39.89868,0.23857912,-0.2155694,9.801377,-0.0004898757,0.00093352795,0.0008401871,-9.1552734e-05,4.5776367e-05,0.00030517578
0.010929279,-0.012246073,0.99384296,0.24406433,-0.21774292,9.793823,2.848816,-15.969849,-38.357544,0.23935781,-0.21521865,9.801366,0.0015910268,0.000819847,0.0007238388,3.0517578e-05,-6.1035156e-05,0.00035095215
0.010904294,-0.012247817,0.9938496,0.23928833,-0.22013855,9.808182,2.607727,-16.062927,-38.06305,0.23886222,-0.21532016,9.801376,-0.0009991825,-0.00075244904,-0.00095653534,0.00015258789,0.0,0.00018310547
0.010909748,-0.012268398,0.99384844,0.23928833,-0.22013855,9.793823,2.3620605,-15.997314,-39.0213,0.23901418,-0.21570785,9.801364,0.000296548,-0.00037683547,-0.0011129379,-0.00015258789,0.0,0.00030517578
0.010920926,-0.01229552,0.993846,0.2368927,-0.21534729,9.8033905,2.7832031,-15.684509,-38.067627,0.2392942,-0.21620801,9.801346,0.0009825528,-0.001086384,-0.0004310608,3.0517578e-05,4.5776367e-05,0.00018310547
0.010921234,-0.012286654,0.99384576,0.23449707,-0.21774292,9.8033905,4.219055,-15.800476,-39.056396,0.23928186,-0.21603383,9.801351,-0.0011836141,0.0006726831,0.0010061264,3.0517578e-05,-0.00018310547,4.5776367e-05
0.01087707,-0.012294442,0.99385744,0.23449707,-0.21534729,9.805786,3.5766602,-15.99884,-37.864685,0.2384155,-0.21630518,9.801365,-0.0012846887,-0.0004709363,0.0017766953,-3.0517578e-05,-6.1035156e-05,-1.5258789e-05
0.0108958855,-0.012318841,0.9938529,0.2368927,-0.21296692,9.800995,3.2226562,-16.371155,-39.738464,0.23884246,-0.21673153,9.801345,0.00065380335,-0.0009923726,0.0011854172,-0.00015258789,0.0,-7.6293945e-05
0.010895032,-0.012334271,0.9938534,0.2368927,-0.21057129,9.805786,3.2546997,-16.096497,-37.342834,0.23885766,-0.21703556,9.801339,0.00018113852,1.4707446e-05,-0.0012817383,-9.1552734e-05,4.5776367e-05,0.00010681152
0.010921103,-0.012299024,0.993846,0.2416687,-0.21296692,9.7986145,2.2872925,-16.087341,-37.60376,0.23930506,-0.21627602,9.801344,0.0004478991,0.0016534626,0.00026893616,9.1552734e-05,-6.1035156e-05,0.00024414062
0.010889197,-0.012310279,0.9938545,0.23210144,-0.21296692,9.796219,2.4871826,-15.122986,-38.0188,0.23869091,-0.21658215,9.8013525,-0.0010738969,-0.00022120774,-0.0012540817,-0.00021362305,-6.1035156e-05,-1.5258789e-05
0.010897863,-0.012326292,0.9938525,0.23928833,-0.21774292,9.800995,3.3706665,-15.060425,-38.494873,0.23889752,-0.21687187,9.80134,-0.00030326843,-0.00017485023,-0.0013055801,-3.0517578e-05,-6.1035156e-05,0.00024414062
0.010921275,-0.0122782625,0.9938456,0.24406433,-0.21057129,9.820145,3.2073975,-15.220642,-37.99286,0.23926511,-0.21586962,9.801353,0.00028043985,0.002159968,-0.00038814545,-0.00015258789,-0.00012207031,0.00024414062
0.010930845,-0.01230169,0.9938435,0.22970581,-0.22013855,9.8033905,2.0858765,-15.226746,-37.342834,0.23950534,-0.21630189,9.801339,0.00051762164,-0.0009837896,0.00085926056,0.00021362305,4.5776367e-05,0.00030517578
0.010893338,-0.012342482,0.993854,0.24645996,-0.21296692,9.800995,2.3635864,-15.925598,-38.705444,0.23884091,-0.21720065,9.801335,-0.0014900416,-0.0014900863,0.0026521683,-0.00015258789,-0.00024414062,-1.5258789e-05
0.010918769,-0.012316738,0.9938469,0.23449707,-0.21296692,9.796219,2.2583008,-14.92157,-37.51526,0.23929541,-0.21662869,9.801336,-2.1874905e-05,0.00080651045,1.335144e-05,9.1552734e-05,-6.1035156e-05,0.00018310547
0.010902734,-0.012286974,0.9938506,0.24645996,-0.21296692,9.805786,3.7322998,-16.05835,-38.183594,0.23891278,-0.21608998,9.801357,-0.0003502369,0.0012235045,-0.0004720688,3.0517578e-05,-6.1035156e-05,0.00030517578
0.010906178,-0.0123385135,0.9938505,0.23449707,-0.21534729,9.805786,1.7837524,-16.482544,-37.8891,0.23908924,-0.21708843,9.8013315,0.00041274726,-0.0020749718,0.00048828125,3.0517578e-05,0.00016784668,0.00036621094
0.01093279,-0.012339404,0.9938436,0.24406433,-0.22492981,9.810577,2.6901245,-15.907288,-38.337708,0.23962298,-0.21703401,9.801319,0.00060372055,0.00073234737,-0.0006227493,-0.00015258789,-0.00018310547,0.0004272461
0.010923632,-0.012330766,0.9938459,0.24406433,-0.21057129,9.789032,2.39563,-15.420532,-37.924194,0.23942192,-0.21688986,9.801328,0.00030598044,0.0008404553,0.0021276474,-0.00021362305,4.5776367e-05,0.00010681152
0.010947248,-0.012318388,0.9938395,0.2368927,-0.21534729,9.810577,3.2730103,-15.5807495,-37.76703,0.23986802,-0.21658406,9.801323,0.00036038458,0.0012421757,-0.0022354126,-0.00021362305,4.5776367e-05,-1.5258789e-05
0.010980378,-0.012347531,0.9938313,0.24406433,-0.21774292,9.7986145,3.0090332,-16.036987,-38.075256,0.24059108,-0.21706437,9.801295,0.00081156194,-0.0008891374,0.002503395,-3.0517578e-05,-0.00024414062,4.5776367e-05
0.010970888,-0.012343487,0.9938337,0.24406433,-0.22732544,9.810577,1.7227173,-16.123962,-37.51068,0.24039295,-0.21701095,9.801301,-0.0004156083,0.00023947656,-0.0007209778,3.0517578e-05,-6.1035156e-05,-1.5258789e-05
0.010970448,-0.012364638,0.99383414,0.23210144,-0.21534729,9.7986145,2.5421143,-15.701294,-38.21411,0.24042839,-0.2174257,9.801291,0.0002542585,-0.000281021,0.00095653534,-9.1552734e-05,0.00010681152,-0.0001373291
0.010948776,-0.012356393,0.9938397,0.2416687,-0.21534729,9.7986145,3.3309937,-16.0141,-38.233948,0.23997802,-0.21732305,9.801305,-0.00025434792,0.00033141673,-0.0001707077,-9.1552734e-05,0.00010681152,4.5776367e-05
0.010979918,-0.012329115,0.9938311,0.23928833,-0.21774292,9.793823,2.4551392,-15.930176,-37.5,0.2405434,-0.21670555,9.801305,0.0006297231,0.001378566,-0.0012283325,3.0517578e-05,0.0,-1.5258789e-05
0.010953545,-0.012353598,0.9938384,0.23449707,-0.21774292,9.8033905,2.6947021,-15.759277,-38.685608,0.24006747,-0.21725552,9.801304,-0.0005608648,-0.00072193146,-0.0009717941,-0.00015258789,0.0,-7.6293945e-05
0.010923567,-0.012363632,0.9938464,0.23928833,-0.21296692,9.800995,3.0456543,-15.232849,-37.913513,0.23948924,-0.21753263,9.8013115,-0.001410678,3.7789345e-05,-0.0004787445,-9.1552734e-05,0.0,6.1035156e-05
0.010928575,-0.012312541,0.9938443,0.25125122,-0.21774292,9.808182,2.39563,-15.270996,-38.49945,0.23948266,-0.21652018,9.801335,1.706183e-05,0.0014175922,0.0011110306,9.1552734e-05,-6.1035156e-05,-7.6293945e-05
0.010990446,-0.01234114,0.99382854,0.23928833,-0.21057129,9.812973,3.6026,-15.414429,-37.59613,0.24077897,-0.2169122,9.801294,0.0018547624,-0.0013223588,-0.0018110275,9.1552734e-05,-6.1035156e-05,0.00030517578
0.010945103,-0.012297485,0.9938397,0.23449707,-0.21296692,9.791428,1.8875122,-15.888977,-38.22632,0.23978148,-0.21618116,9.801334,-0.0014472008,0.00033904612,-0.0012331009,9.1552734e-05,-6.1035156e-05,4.5776367e-05
0.010993036,-0.012316272,0.99382746,0.2368927,-0.21534729,9.810577,3.4805298,-14.549255,-37.565613,0.2407787,-0.21641894,9.801305,0.0011216998,-0.00012260675,0.001578331,-3.0517578e-05,-0.00018310547,0.00024414062
0.010994146,-0.012283745,0.9938266,0.23210144,-0.21774292,9.8033905,3.4103394,-14.337158,-37.443542,0.24073282,-0.21577996,9.80132,-0.00075033307,0.0011704415,0.0009050369,9.1552734e-05,-0.00012207031,0.00030517578
0.010992837,-0.012322356,0.9938276,0.23449707,-0.21534729,9.800995,3.781128,-16.178894,-41.307068,0.24078743,-0.21653844,9.801302,0.0001334846,-0.0009327978,0.0005979538,-0.00015258789,-0.00012207031,0.00018310547
0.010980485,-0.012273648,0.99383,0.2416687,-0.21774292,9.789032,3.0975342,-15.576172,-39.723206,0.24043873,-0.21561949,9.8013315,-0.0016595274,0.0024424046,-0.0006980896,-0.00015258789,-0.00012207031,0.00018310547
0.010977316,-0.012307241,0.9938314,0.2368927,-0.21296692,9.8033905,3.4439087,-15.274048,-38.391113,0.24044561,-0.21628486,9.801315,-0.00022669137,-0.0012000352,-0.00046253204,-0.00021362305,-0.00012207031,-0.0001373291
0.010982844,-0.012326703,0.9938303,0.24406433,-0.22253418,9.808182,2.3788452,-15.483093,-39.29596,0.2405968,-0.21665046,9.801304,-0.00038211048,-0.0008458346,0.0003376007,3.0517578e-05,-0.00018310547,0.00024414062
0.010961643,-0.012364213,0.99383646,0.23449707,-0.21534729,9.7986145,3.9550781,-16.178894,-39.727783,0.2402515,-0.21744119,9.801294,-0.00027045608,-0.00076787174,0.00038051605,-3.0517578e-05,0.00010681152,-7.6293945e-05
0.010912753,-0.012368915,0.99384934,0.23928833,-0.21774292,9.8033905,1.9180298,-16.749573,-39.98871,0.23928414,-0.21766512,9.801314,-0.002166614,-0.0007773936,-0.00037765503,-3.0517578e-05,-6.1035156e-05,0.00010681152
0.010952558,-0.0123699475,0.9938389,0.23449707,-0.22013855,9.800995,2.9418945,-15.670776,-38.450623,0.24008192,-0.21757786,9.801296,0.0013490468,8.709729e-05,-0.0008916855,9.1552734e-05,-6.1035156e-05,0.00030517578
0.010917201,-0.01231766,0.9938473,0.23449707,-0.21774292,9.805786,3.088379,-16.101074,-38.015747,0.23926602,-0.21665096,9.801337,-0.0016508996,0.0017719418,-0.0010728836,-3.0517578e-05,-6.1035156e-05,-1.5258789e-05
0.010927249,-0.012327134,0.99384487,0.2368927,-0.21774292,9.8033905,1.9699097,-15.808105,-38.66577,0.23948663,-0.21680908,9.801329,1.7166138e-05,-0.0006928146,0.0015134811,9.1552734e-05,-0.00012207031,0.00010681152
0.010917721,-0.012311669,0.9938471,0.23928833,-0.21534729,9.796219,2.2354126,-17.17987,-38.12561,0.23926389,-0.2165324,9.801339,-0.0006926954,0.0011850446,-0.0010595322,-3.0517578e-05,-6.1035156e-05,0.00010681152
0.010903988,-0.012295149,0.9938504,0.2416687,-0.21057129,9.810577,3.90625,-15.603638,-39.00299,0.23895492,-0.21624643,9.8013525,-0.00040006638,0.0006697625,0.0013685226,-9.1552734e-05,4.5776367e-05,0.00010681152
0.010947333,-0.012324433,0.99383956,0.24406433,-0.22013855,9.805786,2.2750854,-16.227722,-38.38501,0.23988236,-0.21670204,9.801321,0.002019763,-0.00031404197,-0.0005187988,-9.1552734e-05,0.00010681152,-6.1035156e-05
0.010932016,-0.012329762,0.9938437,0.2368927,-0.21534729,9.791428,2.8457642,-15.966797,-38.885498,0.23958737,-0.21684757,9.801324,-0.0008035004,-0.00040769577,0.00045871735,-3.0517578e-05,-6.1035156e-05,0.00024414062
0.01093215,-0.012314991,0.9938434,0.2416687,-0.22013855,9.805786,3.5171509,-15.338135,-38.85956,0.2395592,-0.21655843,9.8013315,-3.8683414e-05,0.0002606213,-0.0003376007,9.1552734e-05,-6.1035156e-05,0.00030517578
0.010936213,-0.012337557,0.99384266,0.23449707,-0.22013855,9.800995,3.491211,-16.001892,-38.31482,0.23968752,-0.21698865,9.801318,5.272031e-05,-0.00050626695,0.0007352829,-9.1552734e-05,-6.1035156e-05,0.00016784668
0.010868987,-0.012319015,0.99385995,0.24406433,-0.22013855,9.805786,3.1845093,-15.655518,-38.607788,0.23830523,-0.21680743,9.801356,-0.0021383911,0.0005067736,-0.00094890594,-0.00015258789,0.00016784668,0.00010681152
0.0109118195,-0.012326468,0.99384886,0.2368927,-0.22253418,9.805786,3.8162231,-15.829468,-38.89618,0.23917685,-0.21683769,9.801335,0.0017614365,-0.00017605722,0.0003232956,3.0517578e-05,4.5776367e-05,-1.5258789e-05
0.010920967,-0.012296269,0.993846,0.24645996,-0.21296692,9.7986145,2.822876,-16.63208,-37.96234,0.2392966,-0.21622254,9.801346,-0.00026908517,-0.00031512976,-0.0005455017,-3.0517578e-05,-6.1035156e-05,4.5776367e-05
0.010938364,-0.0123138465,0.9938417,0.2416687,-0.22253418,9.789032,3.1036377,-15.736389,-38.168335,0.239681,-0.21651927,9.80133,0.001236394,-0.0007197708,0.0013818741,9.1552734e-05,4.5776367e-05,0.00010681152
0.010924428,-0.012307497,0.9938453,0.2416687,-0.22253418,9.805786,2.1972656,-16.157532,-38.442993,0.2393892,-0.21643272,9.801338,-0.0008300841,0.00036388636,-0.0017824173,-9.1552734e-05,0.0,0.00030517578
0.010913061,-0.012312777,0.9938483,0.23210144,-0.21057129,9.805786,3.4164429,-15.858459,-38.357544,0.23917307,-0.21656665,9.801341,-0.0006303191,0.00052794814,0.001373291,-0.00015258789,-0.00012207031,4.5776367e-05
0.010917472,-0.012274272,0.99384654,0.2416687,-0.22492981,9.810577,2.1453857,-15.354919,-39.260864,0.23918077,-0.21580186,9.801357,6.829202e-05,0.0011918992,0.0009126663,-9.1552734e-05,4.5776367e-05,0.0004272461
0.010884158,-0.012287536,0.9938555,0.2368927,-0.20100403,9.796219,3.4194946,-15.785217,-38.34381,0.23854274,-0.21615103,9.801365,-0.0014616996,0.00036601722,0.001411438,-9.1552734e-05,-0.00012207031,0.000289917
0.010931102,-0.012339035,0.99384403,0.23928833,-0.21774292,9.808182,3.0212402,-15.588379,-39.193726,0.23958847,-0.21703137,9.80132,0.0022732913,-0.0013824403,-0.00049209595,-0.00021362305,4.5776367e-05,0.00016784668
0.010904632,-0.012329123,0.9938508,0.2416687,-0.21296692,9.7986145,3.6224365,-14.898682,-38.171387,0.23903875,-0.21690899,9.801337,-0.00073868036,0.0013420284,-0.0019207001,-3.0517578e-05,0.00016784668,-1.5258789e-05
0.010940765,-0.012330212,0.99384135,0.2416687,-0.20817566,9.7986145,2.9571533,-15.229797,-38.890076,0.23976316,-0.21683276,9.80132,0.0011766553,0.00029063225,-0.0012779236,-0.00021362305,-6.1035156e-05,-1.5258789e-05
0.010939483,-0.0123262135,0.99384165,0.2416687,-0.22732544,9.808182,2.6397705,-15.255737,-38.42926,0.2397292,-0.21675806,9.801323,-0.00071932375,0.00023633242,0.0018701553,-3.0517578e-05,-0.00018310547,4.5776367e-05
0.010949401,-0.012350285,0.99383944,0.2368927,-0.21057129,9.805786,2.8900146,-14.941406,-38.98163,0.23997775,-0.21720195,9.801308,0.0004762262,-0.0005187839,-0.00082588196,-9.1552734e-05,-6.1035156e-05,-1.5258789e-05
0.010908726,-0.012318997,0.9938496,0.24406433,-0.22253418,9.810577,3.3569336,-15.504456,-37.678528,0.2390994,-0.21669993,9.801339,-0.0017564148,0.0011291057,-7.1525574e-05,-9.1552734e-05,-6.1035156e-05,-1.5258789e-05
0.010912708,-0.012310751,0.9938484,0.2368927,-0.21534729,9.800995,2.6290894,-15.550232,-38.035583,0.23916177,-0.21652798,9.801342,0.000110358,0.000707075,-0.0005235672,-3.0517578e-05,4.5776367e-05,4.5776367e-05
0.01093255,-0.012331831,0.99384356,0.2368927,-0.21534729,9.800995,3.5888672,-15.705872,-38.031006,0.23960236,-0.21688661,9.801323,0.00062172115,-0.00012981892,-0.0005054474,-0.00015258789,0.0,-1.5258789e-05
0.010898797,-0.012311326,0.993852,0.2368927,-0.21774292,9.810577,2.6245117,-15.545654,-38.7146,0.23888496,-0.21657676,9.801348,-0.0012767911,0.0009868741,-0.00065135956,-9.1552734e-05,0.0,-0.0001373291
0.010923945,-0.0123277325,0.9938457,0.2368927,-0.20817566,9.7986145,1.9042969,-15.600586,-37.638855,0.23942184,-0.21682972,9.80133,0.0015133172,-0.00018121302,0.001162529,-0.00015258789,0.00016784668,4.5776367e-05
0.010899857,-0.012330864,0.9938521,0.2416687,-0.22492981,9.7986145,2.2750854,-14.405823,-38.241577,0.23894694,-0.2169559,9.801338,-0.00084866583,0.0001450479,-0.0025806427,3.0517578e-05,4.5776367e-05,-0.00019836426
0.010873775,-0.012291195,0.9938582,0.23210144,-0.21534729,9.7986145,3.691101,-15.188599,-38.00659,0.23834287,-0.21625055,9.801368,-0.0011979938,0.00086686015,-0.0006055832,-3.0517578e-05,-6.1035156e-05,0.00024414062
0.0108886445,-0.012295804,0.9938544,0.2368927,-0.20578003,9.808182,3.2180786,-15.002441,-37.79602,0.23864965,-0.2163006,9.801359,0.0006453991,-1.40964985e-05,0.0013465881,0.00015258789,4.5776367e-05,4.5776367e-05
0.010900632,-0.012274642,0.99385095,0.2416687,-0.21534729,9.800995,1.0177612,-15.507507,-38.414,0.23884504,-0.21585453,9.801365,0.00043328106,0.000989303,0.0013866425,-0.00015258789,-6.1035156e-05,0.00018310547
0.010890851,-0.012246797,0.99385303,0.23928833,-0.21534729,9.800995,1.5441895,-16.270447,-39.042664,0.23859142,-0.21533646,9.801382,-0.0009827912,0.0014245957,-0.00066661835,-3.0517578e-05,0.0,4.5776367e-05
0.010908222,-0.012263347,0.9938488,0.2368927,-0.21774292,9.7986145,2.4749756,-15.490723,-37.564087,0.23897313,-0.21561322,9.801367,0.0007804036,-0.0004441589,0.0005121231,-3.0517578e-05,-0.00012207031,0.00018310547
0.010921558,-0.0122954855,0.9938458,0.2416687,-0.21534729,9.805786,2.420044,-14.985657,-37.384033,0.23930678,-0.21620563,9.801346,0.00068821013,-0.0010547638,0.00017929077,-9.1552734e-05,0.0,0.00010681152
0.01092784,-0.012344586,0.993845,0.23210144,-0.21534729,9.805786,2.4734497,-15.415955,-37.92572,0.23953488,-0.2171487,9.801319,0.00046010315,-0.0010576993,-3.71933e-05,-0.00015258789,4.5776367e-05,0.00010681152
0.01091322,-0.012330308,0.99384856,0.23210144,-0.20578003,9.805786,3.6651611,-14.100647,-37.330627,0.23921287,-0.21690898,9.801332,-0.0013626665,0.0010768324,-0.0004930496,-0.00015258789,-0.00012207031,-7.6293945e-05
0.010909853,-0.0123098185,0.9938491,0.2416687,-0.22253418,9.8033905,2.6992798,-15.763855,-38.15918,0.23910277,-0.21651746,9.801344,0.00041878223,0.001395151,-0.00064468384,-9.1552734e-05,4.5776367e-05,0.00016784668
0.010927992,-0.012299093,0.9938442,0.24406433,-0.21534729,9.796219,3.1051636,-15.739441,-37.791443,0.23944288,-0.21625881,9.801341,0.0008087307,0.00016354024,-0.001074791,-3.0517578e-05,0.0,-0.00032043457
0.010963835,-0.012338951,0.99383545,0.2368927,-0.21774292,9.8033905,3.0410767,-15.30304,-38.22937,0.2402425,-0.21694131,9.801306,0.0014221519,-0.0007979572,0.0016908646,-9.1552734e-05,0.0,4.5776367e-05
0.010924426,-0.0122923395,0.99384505,0.2416687,-0.21774292,9.805786,3.161621,-16.015625,-39.360046,0.2393575,-0.21613637,9.801346,-0.0017547756,0.0007955283,0.00031757355,0.00015258789,4.5776367e-05,0.00018310547
0.010902638,-0.0123302275,0.99385136,0.23928833,-0.21296692,9.810577,2.1499634,-15.283203,-39.09607,0.2390012,-0.21693596,9.801337,0.0005185306,-0.0010533631,-0.0016736984,9.1552734e-05,-0.00018310547,-7.6293945e-05
0.010918695,-0.012295638,0.9938466,0.2368927,-0.21057129,9.8033905,2.7938843,-15.237427,-39.338684,0.23924986,-0.21621634,9.801347,4.3153763e-05,0.0015819818,-0.0001449585,-9.1552734e-05,0.0,-7.6293945e-05
0.010921719,-0.01227119,0.9938454,0.24406433,-0.21296692,9.7986145,2.5299072,-15.917969,-38.407898,0.23925921,-0.21573015,9.801357,-0.00045475364,0.0013249367,6.198883e-05,-3.0517578e-05,-0.00012207031,0.00018310547
0.010957707,-0.012283441,0.99383616,0.2368927,-0.21534729,9.793823,2.520752,-16.21399,-38.090515,0.240004,-0.21587253,9.801336,0.0016641766,0.00028154254,0.00037002563,-9.1552734e-05,0.0,-0.0001373291
0.010914485,-0.012246041,0.99384683,0.23210144,-0.21534729,9.789032,2.1987915,-16.007996,-39.016724,0.23906213,-0.21525793,9.801373,-0.0016990602,0.0013473481,0.00024604797,-9.1552734e-05,0.00010681152,-1.5258789e-05
0.010901821,-0.012288394,0.9938509,0.2368927,-0.21296692,9.812973,3.401184,-16.375732,-37.556458,0.2388975,-0.21612021,9.801357,-0.000331223,-0.0016182959,0.00015449524,-9.1552734e-05,0.0,-1.5258789e-05
0.010939279,-0.012321685,0.9938416,0.2368927,-0.21057129,9.8033905,2.8503418,-16.19873,-37.120056,0.23971564,-0.21667005,9.801325,0.0012037605,-0.0008149445,0.0021848679,-3.0517578e-05,-0.00018310547,-0.00019836426
0.010885997,-0.012319018,0.9938555,0.2416687,-0.21774292,9.8033905,3.489685,-16.073608,-38.47809,0.23864521,-0.21676165,9.80135,-0.0020029247,0.0009317696,-0.002046585,-0.00021362305,0.00010681152,-7.6293945e-05
0.010908492,-0.012311665,0.9938495,0.23449707,-0.21057129,9.789032,3.2592773,-15.72113,-38.700867,0.23907945,-0.21655725,9.801344,0.00041878223,0.00026586652,0.001039505,-3.0517578e-05,-0.00012207031,0.00010681152
0.010914469,-0.012281492,0.9938474,0.23928833,-0.21774292,9.808182,2.230835,-15.4296875,-37.99591,0.23913588,-0.21595114,9.801355,-0.000112980604,0.0010960996,0.00021648407,3.0517578e-05,-6.1035156e-05,-1.5258789e-05
0.010913707,-0.012265013,0.99384737,0.23449707,-0.21534729,9.810577,2.9312134,-15.888977,-38.494873,0.23908621,-0.21563096,9.801363,-6.8843365e-05,6.3717365e-05,0.00045490265,9.1552734e-05,0.0,0.00024414062
0.010882744,-0.012322241,0.99385643,0.2416687,-0.21296692,9.7986145,3.276062,-15.432739,-38.11493,0.23858692,-0.21683346,9.80135,-0.0010077357,-0.0018428862,0.0003080368,-9.1552734e-05,0.0,-7.6293945e-05
0.0108849695,-0.0123117,0.99385566,0.24406433,-0.21296692,9.800995,3.9245605,-15.316772,-38.19275,0.23860942,-0.21662135,9.801354,0.00041905046,0.00032702088,-0.0012331009,3.0517578e-05,4.5776367e-05,4.5776367e-05
0.010895295,-0.012320783,0.9938531,0.23928833,-0.21534729,9.805786,3.5461426,-16.5802,-38.435364,0.23883472,-0.2167711,9.801345,0.00065129995,1.7791986e-05,0.0012540817,-3.0517578e-05,4.5776367e-05,-0.00019836426
0.010887532,-0.012354458,0.99385566,0.2368927,-0.21534729,9.7986145,2.4032593,-15.353394,-37.156677,0.23874983,-0.21745045,9.8013315,-0.00019693375,-0.00074885786,-0.0010719299,-0.00015258789,0.00010681152,-7.6293945e-05
0.010901415,-0.012315054,0.9938514,0.24406433,-0.21534729,9.796219,3.3569336,-15.428162,-38.191223,0.23894507,-0.21664259,9.801345,0.00056283176,0.0015326291,-0.0007171631,-3.0517578e-05,-0.00012207031,0.00012207031
0.010934049,-0.0123251,0.993843,0.2368927,-0.21774292,9.8033905,2.848816,-15.893555,-38.719177,0.23961827,-0.21675093,9.801326,0.0011084527,0.0006675571,-0.0011110306,-0.00015258789,-6.1035156e-05,0.00048828125
0.010930341,-0.012307675,0.99384373,0.24406433,-0.21057129,9.8033905,2.6809692,-15.745544,-40.646362,0.23950773,-0.21642023,9.801335,-0.00045000017,0.0015337318,-0.0007324219,-0.00021362305,0.0,0.00010681152
0.010905169,-0.01225087,0.9938494,0.23928833,-0.21296692,9.800995,2.7694702,-15.899658,-38.565063,0.23888606,-0.2153775,9.801374,-0.0010329932,0.0021825284,0.0012607574,-0.00015258789,4.5776367e-05,0.00018310547
0.010863473,-0.012231356,0.99385995,0.2368927,-0.21534729,9.812973,2.5390625,-15.623474,-38.65204,0.2380121,-0.21510834,9.801401,-0.0013625026,0.0019115955,0.0013151169,3.0517578e-05,-0.00012207031,0.00010681152
0.010878512,-0.0122795785,0.9938568,0.22970581,-0.21057129,9.800995,2.3910522,-15.188599,-39.5401,0.2384133,-0.2160107,9.801373,0.0008549541,-0.0017140359,0.0016813278,-9.1552734e-05,-0.00012207031,-1.5258789e-05
0.01090049,-0.012253027,0.99385065,0.2368927,-0.22253418,9.7986145,3.755188,-15.470886,-38.59558,0.23879704,-0.21543229,9.801374,0.0011882782,0.0010492355,-2.861023e-06,-3.0517578e-05,0.00016784668,0.00018310547
0.010890984,-0.012256081,0.99385315,0.23449707,-0.22013855,9.796219,3.09906,-15.731812,-38.69629,0.23861349,-0.21551766,9.801378,-0.0003181696,-4.515052e-05,0.000954628,3.0517578e-05,4.5776367e-05,0.00018310547
0.010867527,-0.012296859,0.99385995,0.2368927,-0.21534729,9.805786,3.717041,-16.271973,-38.908386,0.23822983,-0.21637817,9.801369,-0.0003941208,-0.0015922636,-0.0011262894,-9.1552734e-05,4.5776367e-05,4.5776367e-05
0.010878232,-0.012299151,0.9938572,0.2416687,-0.21057129,9.800995,3.0776978,-16.169739,-38.78479,0.23844855,-0.21639411,9.801362,0.0010611862,0.0008094609,-0.0009031296,-9.1552734e-05,0.00016784668,-7.6293945e-05
0.010896559,-0.012262245,0.9938518,0.2368927,-0.21296692,9.7986145,2.922058,-16.033936,-38.827515,0.23873776,-0.21562311,9.801373,7.215142e-05,0.0009840727,-0.0014066696,9.1552734e-05,-6.1035156e-05,-7.6293945e-05
0.010886034,-0.012261854,0.9938546,0.24406433,-0.22492981,9.796219,2.746582,-16.334534,-39.105225,0.23852663,-0.21564385,9.801377,-0.00020544231,5.7712197e-05,0.0012998581,3.0517578e-05,0.0,0.00010681152
0.010906031,-0.012307089,0.99385005,0.23449707,-0.21534729,9.7986145,1.7959595,-16.189575,-38.05542,0.2390207,-0.21647438,9.801347,0.00073334575,-0.0015060604,6.580353e-05,-9.1552734e-05,-7.6293945e-05,0.00036621094
0.010911138,-0.012335155,0.9938492,0.24406433,-0.20817566,9.8033905,3.0136108,-15.887451,-38.119507,0.23918135,-0.21700938,9.801331,0.00032569468,-0.00072431564,0.00020885468,-3.0517578e-05,4.5776367e-05,0.00016784668
0.010934816,-0.012311529,0.9938426,0.2416687,-0.22013855,9.8033905,3.2424927,-16.16211,-38.412476,0.23960522,-0.21648352,9.8013315,0.0008575767,0.0016234666,0.00046920776,-0.00015258789,0.0,-7.6293945e-05
0.010959636,-0.012337975,0.9938366,0.23928833,-0.21057129,9.793823,2.4536133,-15.92865,-37.802124,0.24015656,-0.2169336,9.801309,0.0012691021,-0.00055240095,-0.0001745224,-0.00015258789,4.5776367e-05,-0.0001373291
0.0109409895,-0.012346998,0.9938416,0.23928833,-0.21774292,9.8033905,3.1326294,-15.153503,-37.67395,0.23980276,-0.21716039,9.801313,-5.416572e-05,0.00014619529,-0.00010681152,-9.1552734e-05,0.00010681152,0.00010681152
0.0109143555,-0.012355076,0.9938487,0.2368927,-0.21296692,9.7986145,2.9815674,-14.715576,-38.937378,0.23928726,-0.2173902,9.801319,-0.000983581,-0.00033152103,0.00088596344,-9.1552734e-05,4.5776367e-05,0.00018310547
0.010956264,-0.012380111,0.99383813,0.2416687,-0.22013855,9.800995,3.1646729,-16.091919,-38.619995,0.2401772,-0.21776654,9.801289,0.002181366,0.000277251,0.00026988983,-0.00021362305,0.00010681152,-1.5258789e-05
0.010971236,-0.012403847,0.9938346,0.23210144,-0.21534729,9.796219,2.142334,-15.657043,-37.887573,0.24052611,-0.21819022,9.801272,0.0006533861,-0.0004993081,-0.0009365082,-9.1552734e-05,-0.00012207031,-0.00019836426
0.010942694,-0.012377394,0.99384165,0.2416687,-0.22732544,9.7986145,2.8930664,-14.944458,-38.528442,0.23990032,-0.21775012,9.801297,-0.0006258637,0.0014541298,-0.00013637543,-0.00015258789,0.00016784668,-0.00032043457
0.010947524,-0.012407775,0.9938409,0.23928833,-0.21296692,9.793823,2.822876,-16.63208,-37.96234,0.24006028,-0.21833105,9.801279,-8.7186694e-05,-0.00034371018,0.0015058517,-0.00015258789,0.0,0.00024414062
0.0109270485,-0.012386256,0.9938459,0.23210144,-0.21534729,9.789032,2.5787354,-16.722107,-37.895203,0.23960608,-0.2179656,9.801299,0.00015765429,0.00069354475,-0.002831459,-0.00021362305,0.00016784668,0.00024414062
0.010899784,-0.012299403,0.9938516,0.24645996,-0.21774292,9.796219,4.071045,-15.750122,-37.38098,0.2388798,-0.21634096,9.801353,-0.0010265112,0.0029016733,0.00034427643,0.00021362305,0.00016784668,4.5776367e-05
0.010904003,-0.0122979935,0.99385047,0.23928833,-0.21774292,9.808182,2.859497,-15.979004,-37.075806,0.23896116,-0.216302,9.801352,0.0005621463,-0.00025624037,-0.000579834,3.0517578e-05,4.5776367e-05,0.00010681152
0.010884318,-0.01230878,0.9938558,0.2368927,-0.22013855,9.796219,2.7877808,-15.536499,-38.34076,0.23859027,-0.216566,9.801355,-3.758073e-05,-0.0011601448,0.001994133,0.00021362305,0.00016784668,-7.6293945e-05
0.0108929165,-0.012366883,0.99385446,0.23928833,-0.21534729,9.7986145,2.5665283,-15.19165,-37.65869,0.23888339,-0.21767887,9.801323,0.00082685053,-0.0021689683,0.0026102066,-3.0517578e-05,4.5776367e-05,0.00010681152
0.010903664,-0.012338779,0.9938512,0.23449707,-0.21296692,9.805786,2.2445679,-15.214539,-37.574768,0.23903956,-0.2171004,9.801332,0.0009287894,0.0012985617,-0.0011434555,-3.0517578e-05,0.00022888184,4.5776367e-05
0.010900522,-0.012317767,0.99385166,0.2368927,-0.21534729,9.800995,2.835083,-14.59198,-37.472534,0.23893288,-0.21669804,9.801344,-0.0006547421,0.00090679526,0.0010023117,3.0517578e-05,-6.1035156e-05,-0.0001373291
0.010934192,-0.012318405,0.9938429,0.24645996,-0.21296692,9.791428,2.078247,-15.29541,-38.113403,0.23960713,-0.21661966,9.801329,0.0013201088,0.0005771816,-0.0020456314,-0.00015258789,-6.1035156e-05,0.00036621094
0.010951783,-0.012321787,0.99383837,0.2368927,-0.22732544,9.800995,2.722168,-15.100098,-38.931274,0.23996577,-0.2166383,9.80132,0.00049327314,0.00034727156,-0.00040340424,-3.0517578e-05,-6.1035156e-05,0.00024414062
0.0109616,-0.012330215,0.9938359,0.23449707,-0.21534729,9.8033905,2.8671265,-15.454102,-38.931274,0.24017958,-0.21677656,9.8013115,9.074807e-06,-0.0002079308,0.0021362305,-0.00021362305,0.0,-7.6293945e-05
0.010886632,-0.0123235965,0.9938554,0.2416687,-0.20817566,9.786652,1.3839722,-16.360474,-38.227844,0.23843287,-0.21552904,9.801382,0.00010177493,0.0025951415,-0.0033073425,3.0517578e-05,0.00016784668,-0.0001373291
0.010897777,-0.012244945,0.9938512,0.23210144,-0.21774292,9.796219,2.8579712,-15.826416,-38.02643,0.23872595,-0.21528156,9.801379,0.00030456483,-5.339086e-05,-0.0018920898,9.1552734e-05,0.0,0.00024414062
0.010892429,-0.01225917,0.99385285,0.2368927,-0.21296692,9.805786,2.7694702,-15.899658,-38.641357,0.23864883,-0.21557416,9.801376,-0.00010713935,-0.00047892332,0.0012922287,0.00015258789,-6.1035156e-05,0.0
0.010896027,-0.012256987,0.99385184,0.2416687,-0.21534729,9.808182,2.4215698,-14.909363,-37.6709,0.23871613,-0.21552174,9.801374,0.00029583275,-4.0590763e-05,0.00021839142,-3.0517578e-05,0.00010681152,-0.00012207031
0.010884592,-0.012257845,0.9938549,0.23449707,-0.21296692,9.7986145,1.8753052,-16.25824,-37.771606,0.23848945,-0.21556936,9.80138,-0.00044235587,0.00025440753,0.00031089783,-3.0517578e-05,-6.1035156e-05,-1.5258789e-05
0.010903857,-0.01230776,0.99385065,0.2368927,-0.2033844,9.808182,2.6901245,-16.05835,-37.690735,0.23897862,-0.21649337,9.801347,0.000509426,-0.0009942651,-0.0005865097,-0.00021362305,0.0,0.00010681152
0.010914004,-0.012249856,0.9938471,0.23210144,-0.22013855,9.796219,3.2714844,-15.428162,-38.641357,0.23906049,-0.21533383,9.801371,0.00018659234,0.0026482195,0.0010461807,-9.1552734e-05,-6.1035156e-05,-1.5258789e-05
0.010883685,-0.0123044895,0.9938559,0.23928833,-0.21534729,9.808182,2.6870728,-16.056824,-37.991333,0.23856866,-0.2164838,9.801357,-0.0009950101,-0.0014704019,-0.000415802,-0.00021362305,0.0,4.5776367e-05
0.0108784055,-0.012331239,0.9938577,0.2368927,-0.21296692,9.8033905,3.919983,-15.464783,-37.994385,0.238519,-0.21702108,9.801348,0.000745669,-0.001417473,-0.001080513,-9.1552734e-05,0.00010681152,-7.6293945e-05
0.0109051475,-0.012309036,0.99385035,0.23928833,-0.21774292,9.7986145,3.1692505,-15.792847,-39.694214,0.2390071,-0.21651484,9.801346,0.0007392764,0.0006928295,-0.0007209778,0.00015258789,0.0,0.00010681152
0.010899531,-0.012354469,0.99385256,0.24406433,-0.21296692,9.8033905,1.713562,-16.114807,-38.793945,0.23898968,-0.2174183,9.801326,1.7747283e-05,-0.0012524724,0.0017614365,-3.0517578e-05,0.0,4.5776367e-05
0.010908134,-0.012322499,0.99384975,0.23449707,-0.21774292,9.796219,2.6504517,-15.115356,-37.79602,0.23909491,-0.21677002,9.801338,0.0001758933,0.0021557808,-0.0015354156,-0.00021362305,4.5776367e-05,4.5776367e-05
0.010887004,-0.012333624,0.9938555,0.23449707,-0.22013855,9.808182,2.0446777,-14.204407,-38.116455,0.23869582,-0.21704452,9.801342,0.00032766163,-0.000206545,0.00025177002,-9.1552734e-05,0.00016784668,-1.5258789e-05
0.010888505,-0.012331083,0.99385506,0.2368927,-0.21774292,9.7986145,2.0874023,-15.075684,-37.916565,0.23872049,-0.21699078,9.801342,-0.00017382205,0.00046031177,0.00032520294,-0.00021362305,-6.1035156e-05,-1.5258789e-05
0.010888152,-0.0123367235,0.99385524,0.23210144,-0.22013855,9.8033905,3.2714844,-15.428162,-38.641357,0.23872523,-0.21710202,9.80134,3.799796e-05,0.0005827546,0.0010271072,-9.1552734e-05,0.00010681152,0.00018310547
0.010887132,-0.012318869,0.9938552,0.2416687,-0.21534729,9.796219,3.1646729,-16.093445,-38.694763,0.23866756,-0.21675567,9.801349,0.00032012165,0.0014597028,0.0016431808,-0.00021362305,0.0,-0.0001373291
0.01089748,-0.012314115,0.99385244,0.2416687,-0.2033844,9.808182,2.5909424,-16.349792,-38.57422,0.23886447,-0.21663482,9.801347,0.0003620535,0.0008414835,-0.0008125305,-0.0002746582,0.00010681152,-0.0001373291
0.010946004,-0.0122965565,0.99383944,0.24406433,-0.21774292,9.800995,2.708435,-15.467834,-38.549805,0.23979753,-0.21616057,9.801334,0.00089102983,0.0017900467,-0.0010156631,-0.00015258789,-0.00018310547,-0.0001373291
0.010929739,-0.01230658,0.99384385,0.2368927,-0.21057129,9.796219,3.3584595,-15.507507,-37.45117,0.23949346,-0.21640049,9.801337,-0.00022894144,0.00011341274,-0.000828743,-0.00015258789,0.0,-7.6293945e-05
0.010905888,-0.012270209,0.9938495,0.2368927,-0.21296692,9.786652,3.2791138,-15.435791,-37.73651,0.2389408,-0.21575367,9.801364,-0.0011127442,0.0018641204,0.0002450943,-0.00015258789,0.00010681152,-0.00019836426
0.010864839,-0.012276564,0.9938603,0.23928833,-0.22732544,9.808182,1.8218994,-15.52887,-38.224792,0.23813373,-0.21598855,9.801378,-0.001005128,-0.0005567074,-0.0014400482,9.1552734e-05,4.5776367e-05,-1.5258789e-05
0.010887953,-0.012318583,0.993855,0.23449707,-0.21057129,9.8033905,3.3554077,-15.50293,-37.979126,0.23868337,-0.21674785,9.801348,0.001295507,-0.001688078,0.0014381409,3.0517578e-05,0.00016784668,-1.5258789e-05
0.010905485,-0.012340496,0.99385077,0.2368927,-0.21057129,9.8033905,2.84729,-16.12091,-37.85858,0.23907952,-0.21712905,9.801331,0.0011530966,0.000104889274,-0.002070427,-0.00015258789,-6.1035156e-05,-0.00019836426
0.010887936,-0.012309014,0.9938548,0.2368927,-0.21774292,9.805786,2.9708862,-15.090942,-37.805176,0.23866306,-0.21656081,9.801353,-0.0008203536,0.0021698177,0.00085544586,-0.00039672852,0.00010681152,-0.0001373291
0.010856858,-0.012335017,0.99386334,0.2368927,-0.21296692,9.793823,2.507019,-14.761353,-37.265015,0.2380962,-0.21715298,9.801354,-0.0004929155,-0.0005839318,-0.0003862381,-0.00015258789,4.5776367e-05,0.00010681152
0.010829162,-0.012298657,0.99387,0.22970581,-0.22013855,9.8033905,2.6428223,-15.182495,-38.490295,0.23746683,-0.21651658,9.801384,-0.0008248985,0.002121374,7.05719e-05,-0.00021362305,0.00010681152,0.00018310547
0.0108817825,-0.012287689,0.9938561,0.23928833,-0.22013855,9.8033905,3.2104492,-14.994812,-38.775635,0.23849557,-0.21616043,9.801366,0.002221495,0.0012912452,-0.00011253357,-0.00021362305,4.5776367e-05,-6.1035156e-05
0.010862544,-0.012306202,0.99386144,0.23449707,-0.21296692,9.808182,3.791809,-15.9591675,-41.262817,0.23814973,-0.21657427,9.801366,-6.373227e-05,-0.00022542477,-0.0007162094,-9.1552734e-05,0.00016784668,-6.1035156e-05
0.010895496,-0.012324484,0.9938531,0.2368927,-0.22253418,9.796219,3.5064697,-15.708923,-38.404846,0.23884647,-0.21684292,9.801343,0.00091952085,0.00028595328,-0.00014209747,-0.00021362305,4.5776367e-05,-1.5258789e-05
0.010897347,-0.012346265,0.993853,0.24406433,-0.21296692,9.796219,3.4088135,-15.85083,-39.48822,0.23892893,-0.2172638,9.8013315,0.0006130338,-0.00025887787,-0.0004196167,-0.00015258789,6.1035156e-05,-7.6293945e-05
0.010926092,-0.012311882,0.9938449,0.2416687,-0.21774292,9.808182,2.7648926,-16.049194,-38.44452,0.23943162,-0.21651398,9.801335,0.00033307076,0.0013925433,0.00052928925,3.0517578e-05,-0.00018310547,4.5776367e-05
0.010933203,-0.012327724,0.9938433,0.2416687,-0.21296692,9.8033905,2.6153564,-15.689087,-39.120483,0.23960683,-0.21680455,9.801325,0.00039173663,-0.00045907497,0.0008211136,-9.1552734e-05,-6.1035156e-05,0.0004272461
0.010909693,-0.012297151,0.993849,0.23928833,-0.21057129,9.796219,3.7521362,-15.467834,-38.89618,0.23907313,-0.2162702,9.80135,0.00021259487,0.0021154433,0.0002708435,-0.00021362305,4.5776367e-05,-1.5258789e-05
0.010897392,-0.012315394,0.99385244,0.24645996,-0.21774292,9.8033905,2.5985718,-16.053772,-39.19525,0.23886539,-0.21666008,9.801347,-4.6759844e-05,-0.00015364587,-0.0017404556,-3.0517578e-05,4.5776367e-05,-1.5258789e-05
0.010936287,-0.012278966,0.9938417,0.23449707,-0.21534729,9.805786,2.998352,-16.403198,-37.545776,0.23956661,-0.21584287,9.801348,0.0016207844,0.0012202263,0.0021924973,-3.0517578e-05,4.5776367e-05,-0.0001373291
0.010927981,-0.0123197725,0.99384457,0.2368927,-0.22253418,9.800995,3.340149,-15.640259,-39.14032,0.23948587,-0.21666318,9.8013315,0.00026276708,-0.00035105646,0.0003490448,-0.00021362305,0.00010681152,-1.5258789e-05
0.010922587,-0.012351203,0.9938465,0.23449707,-0.21534729,9.800995,2.6779175,-16.122437,-38.75885,0.23944369,-0.21729226,9.801318,0.000547871,-0.0009263009,6.771088e-05,-0.0002746582,0.00016784668,-0.00019836426
0.010904742,-0.0123412395,0.99385095,0.2416687,-0.21534729,9.796219,2.2521973,-16.740417,-38.261414,0.23906626,-0.2171456,9.8013315,-0.0007572025,0.0010974854,0.00037670135,-9.1552734e-05,4.5776367e-05,-6.1035156e-05
0.010872257,-0.012316372,0.99385905,0.23928833,-0.21774292,9.8033905,2.9678345,-15.238953,-37.53357,0.23836505,-0.21674693,9.801356,-0.0005236268,0.0016399622,-0.00039100647,-0.00015258789,0.00010681152,6.1035156e-05
0.010895204,-0.012349577,0.99385357,0.24645996,-0.21774292,9.8033905,2.9525757,-15.377808,-38.467407,0.238893,-0.21733433,9.801331,0.001083076,-0.000625968,0.0013408661,-0.00015258789,4.5776367e-05,4.5776367e-05
0.010926412,-0.012375124,0.9938459,0.23928833,-0.21296692,9.793823,2.7740479,-15.98053,-37.602234,0.23957013,-0.21774966,9.801305,0.0013580322,-0.00044505298,-0.00054836273,-9.1552734e-05,4.5776367e-05,0.00010681152
0.010936179,-0.012340655,0.9938427,0.2368927,-0.21534729,9.8033905,3.0151367,-16.038513,-37.472534,0.23969333,-0.21704933,9.801317,0.0002759695,0.001734823,0.0010814667,-0.00015258789,-6.1035156e-05,4.5776367e-05
0.010929708,-0.012344438,0.9938445,0.2368927,-0.21774292,9.793823,2.0812988,-15.06958,-38.745117,0.2395719,-0.21714076,9.801318,0.00015440583,0.0008639246,-7.8201294e-05,-0.00021362305,0.00016784668,-1.5258789e-05
0.01089339,-0.012319086,0.99385357,0.22492981,-0.20578003,9.800995,2.156067,-15.365601,-37.828064,0.23879308,-0.21674304,9.801346,-0.00095522404,0.0014104098,-0.0014867783,-0.00021362305,4.5776367e-05,-0.00019836426
0.010843776,-0.012303203,0.99386626,0.2416687,-0.21534729,9.8033905,2.6565552,-14.96582,-38.069153,0.2377684,-0.21656616,9.801375,-0.0023093224,0.0012182295,-0.0012979507,-0.00015258789,0.0,0.00022888184
0.010861103,-0.01229526,0.9938616,0.22970581,-0.21296692,9.815353,2.4368286,-14.700317,-36.419678,0.23809811,-0.21636419,9.801372,0.00022473931,0.0007765293,0.00041294098,-0.00015258789,0.0,0.00024414062
0.010868345,-0.012265297,0.99385923,0.23210144,-0.22013855,9.784256,2.7069092,-15.466309,-38.6261,0.23818032,-0.21575883,9.801383,0.00015501678,0.0018383414,-0.0009918213,-0.00015258789,-0.00012207031,6.1035156e-05
0.01084702,-0.012266352,0.99386483,0.2416687,-0.22492981,9.8033905,3.5858154,-15.70282,-38.33313,0.23775636,-0.21583688,9.801392,-0.0006299466,-0.0004760921,0.00029087067,3.0517578e-05,4.5776367e-05,0.000289917
0.010824828,-0.012269187,0.9938707,0.23928833,-0.21774292,9.800995,2.2079468,-15.940857,-38.098145,0.23731877,-0.21595201,9.801399,-0.00067323446,0.00059221685,0.0006761551,-9.1552734e-05,4.5776367e-05,0.00030517578
0.010823567,-0.012298864,0.99387145,0.23210144,-0.22013855,9.789032,2.8747559,-15.536499,-37.590027,0.23735544,-0.21653569,9.801386,3.4481287e-05,-0.0005121231,-0.0022611618,-0.00021362305,4.5776367e-05,4.5776367e-05
0.010845551,-0.0122916745,0.9938656,0.24406433,-0.21534729,9.793823,3.0288696,-15.673828,-37.472534,0.2377798,-0.21633594,9.801379,0.0010375232,0.0009729266,0.0005712509,-9.1552734e-05,0.0,0.00018310547
0.010839224,-0.012337343,0.993868,0.23928833,-0.21534729,9.793823,1.6204834,-15.200806,-35.279846,0.2377486,-0.21724592,9.801361,0.00034840405,-0.0017153323,0.0002155304,-3.0517578e-05,4.5776367e-05,-7.6293945e-05
0.010865485,-0.012302458,0.9938606,0.2416687,-0.21534729,9.800995,1.5899658,-15.324402,-38.40027,0.23820071,-0.21649314,9.801367,0.0013249964,0.0016111583,0.00046634674,-0.00021362305,0.00016784668,4.5776367e-05
0.010848887,-0.0123437885,0.9938656,0.2368927,-0.21534729,9.808182,3.0395508,-15.301514,-38.4552,0.23795517,-0.21734594,9.801353,0.00038011372,-0.0013658106,-1.9073486e-05,3.0517578e-05,0.000289917,-0.00032043457
0.010876869,-0.012319036,0.99385786,0.24406433,-0.21296692,9.800995,2.5421143,-15.548706,-38.86261,0.2384628,-0.2167866,9.801353,0.0012985617,0.0009510368,0.00035858154,-3.0517578e-05,0.00016784668,0.00018310547
0.010889074,-0.012297954,0.99385434,0.23928833,-0.22253418,9.7986145,3.1341553,-14.927673,-38.685608,0.23866273,-0.21634151,9.801358,0.00013837218,0.0007491112,-7.534027e-05,3.0517578e-05,-0.00012207031,-0.0001373291
0.010889041,-0.01232738,0.9938548,0.24885559,-0.22732544,9.800995,2.1774292,-14.852905,-37.953186,0.23872349,-0.21691693,9.801344,0.0007966757,-0.00058591366,0.0010681152,-9.1552734e-05,0.00016784668,-6.1035156e-05
0.010937015,-0.01238257,0.9938432,0.23449707,-0.21296692,9.805786,3.3737183,-15.216064,-37.243652,0.23979759,-0.21786661,9.801296,0.0021106452,-0.0013217181,-0.00071811676,-9.1552734e-05,-6.1035156e-05,-0.00032043457
0.010940301,-0.012281628,0.9938407,0.24885559,-0.22253418,9.793823,3.578186,-15.847778,-38.36212,0.23965238,-0.21588407,9.801344,-0.00034998357,0.0036216378,-0.0014371872,-3.0517578e-05,4.5776367e-05,-0.0002593994
0.010942095,-0.012322681,0.9938409,0.2416687,-0.22013855,9.7986145,3.3355713,-15.788269,-38.793945,0.23977403,-0.21668194,9.801324,0.0004658997,-0.0010522157,0.0019140244,-9.1552734e-05,0.0,-7.6293945e-05
0.010914548,-0.012294821,0.99384767,0.23928833,-0.21534729,9.805786,2.8549194,-16.052246,-37.165833,0.23916529,-0.21621156,9.801349,-0.00036086142,0.0010892004,-0.0011205673,-9.1552734e-05,0.00016784668,-6.1035156e-05
0.010936512,-0.012260555,0.99384135,0.2368927,-0.21774292,9.808182,2.9525757,-15.52887,-38.1958,0.23953262,-0.2154823,9.801356,0.00094023347,0.0018033087,0.00084114075,-3.0517578e-05,0.00010681152,0.00030517578
0.010938565,-0.012313565,0.99384165,0.2368927,-0.21534729,9.800995,3.352356,-15.65094,-37.631226,0.23968443,-0.21651323,9.80133,7.161498e-05,-0.001469031,-6.389618e-05,-9.1552734e-05,0.0,4.5776367e-05
0.010930759,-0.0123216985,0.99384385,0.23210144,-0.21774292,9.812973,2.822876,-14.730835,-38.33008,0.23954542,-0.21669334,9.80133,0.0004260093,-5.7443976e-05,0.0023450851,-0.00015258789,4.5776367e-05,-0.0001373291
0.010956704,-0.012309104,0.9938369,0.2416687,-0.22253418,9.793823,2.7038574,-15.615845,-38.279724,0.24003763,-0.21637703,9.801325,0.0006688833,0.0012731701,-0.001461029,-0.00015258789,-1.5258789e-05,0.00030517578
0.010927662,-0.012346163,0.99384505,0.23449707,-0.21774292,9.796219,2.7679443,-16.052246,-37.99286,0.23953465,-0.21718004,9.801319,-0.0014715195,-0.0007891059,0.00031757355,-0.00015258789,0.0,-1.5258789e-05
0.010915899,-0.01239294,0.9938489,0.2416687,-0.21774292,9.812973,2.8656006,-15.603638,-38.435364,0.23939718,-0.21812639,9.801301,-0.000117868185,-0.0012867898,-0.00090408325,-0.00021362305,-0.00012207031,-1.5258789e-05
0.010906859,-0.012358439,0.9938507,0.23449707,-0.21534729,9.791428,3.3599854,-15.354919,-38.17749,0.23914446,-0.21747617,9.801321,-0.00010718405,0.0021199286,-0.00012207031,-0.00021362305,0.00010681152,-1.5258789e-05
0.010869025,-0.0123721855,0.9938608,0.23928833,-0.21057129,9.7986145,2.2888184,-16.012573,-37.738037,0.23841691,-0.21784693,9.801331,-0.0010510832,-0.00036911666,-0.0005598068,-3.0517578e-05,0.00022888184,-0.0001373291
0.010858654,-0.012358448,0.9938633,0.23928833,-0.22013855,9.796219,2.6489258,-15.185547,-37.73651,0.23818097,-0.21760626,9.801342,0.0003912449,0.0010525584,-6.0081482e-05,-0.00015258789,4.5776367e-05,-1.5258789e-05
0.010882141,-0.012357468,0.99385715,0.2368927,-0.21774292,9.8033905,3.3432007,-15.490723,-39.486694,0.23864837,-0.21752383,9.801332,0.00111036,0.0005004704,0.00028705597,-9.1552734e-05,0.00016784668,-7.6293945e-05
0.010855232,-0.012310943,0.9938634,0.24645996,-0.22013855,9.791428,3.2684326,-15.577698,-38.294983,0.23801349,-0.21668664,9.801367,-0.0006401986,0.002049625,-0.00077724457,-9.1552734e-05,0.00016784668,4.5776367e-05
0.010897068,-0.012320934,0.9938526,0.2368927,-0.22253418,9.800995,2.3742676,-15.859985,-37.786865,0.23887047,-0.21676926,9.801344,0.0021002889,0.00044323504,-0.0009946823,-0.00015258789,4.5776367e-05,-0.0001373291
0.0108995745,-0.01236289,0.9938527,0.22970581,-0.21774292,9.800995,1.7242432,-16.049194,-37.797546,0.23900814,-0.21758284,9.801322,0.0004990101,-0.00086806715,0.0023727417,-0.00021362305,0.00016784668,-0.00019836426
0.01087453,-0.012351446,0.99385905,0.24406433,-0.22013855,9.805786,1.9241333,-15.161133,-37.701416,0.2384837,-0.21742661,9.801339,-0.00064115226,0.0006554425,0.00014686584,-0.00015258789,4.5776367e-05,6.1035156e-05
0.010871778,-0.012366861,0.99386,0.23928833,-0.22013855,9.8033905,3.3111572,-14.627075,-38.102722,0.23846084,-0.21773542,9.801332,0.00033792853,-0.0007234961,-0.00086307526,-9.1552734e-05,0.00016784668,-0.00019836426
0.010853821,-0.012351352,0.9938644,0.2416687,-0.21774292,9.810577,2.5619507,-15.341187,-37.38556,0.23806956,-0.21748053,9.801348,-0.00093621016,0.0007021129,0.00022029877,0.0001373291,-4.5776367e-05,0.0002746582
0.010843663,-0.012332989,0.9938668,0.23210144,-0.22492981,9.800995,1.8981934,-15.745544,-37.667847,0.23782824,-0.21714884,9.801361,1.4677644e-05,0.00013320148,0.0006275177,7.6293945e-05,0.0,0.0001373291
0.010849186,-0.01228692,0.9938646,0.23449707,-0.20817566,9.805786,2.632141,-15.553284,-37.809753,0.23784256,-0.21623322,9.801381,0.00024792552,0.0015962124,-0.0015077591,7.6293945e-05,6.1035156e-05,0.0002593994
0.010883242,-0.012234912,0.9938548,0.23449707,-0.21296692,9.808182,2.8808594,-15.237427,-38.435364,0.23841456,-0.21512459,9.801391,0.0013590604,0.0023907572,-0.00036525726,1.5258789e-05,6.1035156e-05,1.5258789e-05
0.010916787,-0.012222305,0.9938459,0.2368927,-0.21774292,9.8033905,2.7435303,-14.663696,-38.464355,0.23905854,-0.21478763,9.801383,0.0018935949,0.00014172494,0.00084114075,1.5258789e-05,6.1035156e-05,-4.5776367e-05
0.010939799,-0.012218368,0.9938398,0.22732544,-0.21534729,9.796219,3.2730103,-15.5807495,-37.76703,0.2395101,-0.21464853,9.801374,1.6480684e-05,0.00048302114,-0.0007123947,1.5258789e-05,1.5258789e-05,7.6293945e-05
0.010884419,-0.012210647,0.9938541,0.2368927,-0.21057129,9.796219,2.5436401,-15.628052,-38.12561,0.23838742,-0.21464697,9.801402,-0.0024344623,-0.00049084425,-0.00095558167,7.6293945e-05,-0.00016784668,1.5258789e-05
0.01091845,-0.012247513,0.9938458,0.2416687,-0.21534729,9.810577,2.9663086,-15.161133,-38.12256,0.23914441,-0.21527602,9.80137,0.000881955,-0.0015396476,6.67572e-06,0.0001373291,-4.5776367e-05,0.00033569336
0.0109160505,-0.012275444,0.99384695,0.23928833,-0.22253418,9.805786,3.540039,-15.058899,-37.217712,0.23915483,-0.21582861,9.801357,-0.00010947883,-0.00048102438,0.0016078949,-0.00010681152,-0.00022888184,1.5258789e-05
0.010895587,-0.012336078,0.9938533,0.2368927,-0.21534729,9.796219,3.741455,-15.686035,-39.167786,0.23887248,-0.21706937,9.801337,-0.0005558282,-0.0023425817,0.000910759,-4.5776367e-05,0.00012207031,-0.00010681152
0.010895646,-0.012309122,0.9938528,0.2416687,-0.21774292,9.8033905,2.6474,-16.400146,-41.079712,0.23881738,-0.21654212,9.80135,-0.0002695173,0.0007276684,0.0010843277,-4.5776367e-05,-4.5776367e-05,-0.00010681152
0.010889751,-0.012270332,0.99385375,0.2416687,-0.21774292,9.793823,2.2705078,-16.223145,-39.14032,0.2386186,-0.21579961,9.801372,-0.00056140125,0.0016657561,0.00024700165,7.6293945e-05,-0.00010681152,1.5258789e-05
0.010925573,-0.01227058,0.99384433,0.23449707,-0.21774292,9.8033905,2.708435,-15.315247,-39.501953,0.23933499,-0.21570784,9.801356,0.0018499345,0.00012610853,-0.0012741089,-4.5776367e-05,0.00018310547,-0.00022888184
0.010899116,-0.012267921,0.99385124,0.2416687,-0.22970581,9.796219,2.3773193,-15.786743,-37.997437,0.2388007,-0.2157272,9.801368,-0.0012083352,0.00015154481,0.0005874634,-0.00010681152,0.0,0.00015258789
0.01091148,-0.0123315,0.99384904,0.23210144,-0.21534729,9.810577,2.682495,-15.975952,-39.030457,0.23918056,-0.21693699,9.801332,9.648502e-05,-0.0020011365,-0.0005559921,1.5258789e-05,-0.00016784668,1.5258789e-05
0.010904691,-0.012285275,0.99385005,0.23449707,-0.21774292,9.8033905,1.8829346,-15.884399,-38.754272,0.23894836,-0.21605147,9.801357,-0.0001758635,0.0024075508,0.0013914108,-0.00016784668,-4.5776367e-05,0.0002746582
0.010863064,-0.01227838,0.99386084,0.2368927,-0.21296692,9.805786,3.9855957,-15.673828,-38.871765,0.23810208,-0.21602887,9.801379,-0.0014761984,-1.4990568e-05,-0.0003566742,-0.00010681152,6.1035156e-05,-4.5776367e-05
0.010876305,-0.012256202,0.993857,0.24645996,-0.21774292,9.793823,2.5543213,-15.560913,-37.280273,0.2383204,-0.21555956,9.801384,0.00024265051,0.00044851005,-0.0011968613,0.0001373291,-0.00010681152,-4.5776367e-05
0.010896847,-0.012242401,0.9938514,0.23928833,-0.21057129,9.7986145,2.5405884,-15.777588,-37.776184,0.23870204,-0.21523434,9.801381,0.0005799383,0.00012165308,-0.00015926361,0.00019836426,6.1035156e-05,0.0001373291
0.010927502,-0.012199243,0.99384266,0.2368927,-0.21534729,9.796219,3.6712646,-15.551758,-38.305664,0.23922445,-0.21430779,9.80139,0.0012589097,0.0015806705,-0.00091362,1.5258789e-05,-4.5776367e-05,-4.5776367e-05
0.010905771,-0.012222068,0.99384874,0.24645996,-0.22013855,9.8033905,2.1987915,-16.007996,-39.016724,0.23883791,-0.21481273,9.801388,-0.00096581876,-0.00079499185,-0.0010843277,1.5258789e-05,-4.5776367e-05,7.6293945e-05
0.010912859,-0.012259205,0.9938475,0.23449707,-0.21774292,9.7986145,3.2836914,-15.060425,-39.24713,0.23905712,-0.21551971,9.801367,0.00070537627,-0.0010340512,0.0013532639,-0.00010681152,0.00018310547,7.6293945e-05
0.010902672,-0.012262796,0.99385023,0.23928833,-0.21774292,9.7986145,2.9663086,-15.237427,-37.760925,0.23886107,-0.21561742,9.80137,-0.00077433884,2.2530556e-05,-0.00020217896,-0.00010681152,-0.00022888184,0.00019836426
0.010893641,-0.012289188,0.99385303,0.2368927,-0.22013855,9.8033905,3.0288696,-15.74707,-37.413025,0.23873572,-0.2161578,9.801361,-0.000876382,-0.0013458282,-0.00013160706,0.00019836426,0.0,0.00033569336
0.010931695,-0.012271141,0.9938428,0.24406433,-0.21774292,9.793823,3.2180786,-15.002441,-37.87079,0.23945846,-0.21570225,9.8013525,0.0012646317,0.0008276105,0.00039196014,-4.5776367e-05,-0.00010681152,-4.5776367e-05
0.010939321,-0.012264224,0.99384063,0.2368927,-0.22253418,9.793823,2.4383545,-16.140747,-38.676453,0.2395964,-0.21554641,9.8013525,-0.00032824278,0.00021727383,0.0017004013,1.5258789e-05,-0.00010681152,-0.00010681152
0.01090372,-0.012284863,0.9938503,0.2368927,-0.21296692,9.800995,3.427124,-15.562439,-38.827515,0.2389281,-0.21604604,9.801358,-0.001553312,-0.0005148947,-0.002371788,-4.5776367e-05,-0.00010681152,0.0002746582
0.010891608,-0.012302806,0.99385375,0.2368927,-0.21774292,9.8033905,2.7801514,-15.6814575,-38.59558,0.23872352,-0.21642955,9.801355,-0.00015124679,-0.00059719384,0.0006456375,-0.00010681152,-4.5776367e-05,0.00015258789
0.01085683,-0.012255664,0.9938621,0.23210144,-0.21057129,9.789032,3.038025,-15.377808,-37.942505,0.23793006,-0.21560147,9.801392,-0.0019844472,0.001431495,-0.0010023117,7.6293945e-05,6.1035156e-05,0.0001373291
0.010851002,-0.012221794,0.99386305,0.24885559,-0.21774292,9.793823,1.7532349,-15.313721,-38.33008,0.23774295,-0.21495493,9.801411,-0.0010636151,0.0019601882,-0.0012989044,-4.5776367e-05,-0.00016784668,0.0002593994
0.010861142,-0.012263055,0.9938611,0.2368927,-0.21296692,9.800995,2.909851,-16.326904,-38.658142,0.23803167,-0.21573439,9.801387,0.00058209896,-0.0013299733,-0.0010175705,-0.00016784668,-0.00016784668,0.0002593994
0.010850523,-0.01224187,0.9938635,0.2368927,-0.21296692,9.8033905,2.658081,-14.891052,-38.20343,0.23777525,-0.21534875,9.801401,-0.00086022913,0.001171425,0.0017185211,-0.00010681152,-4.5776367e-05,0.00021362305
0.010879738,-0.01222844,0.99385566,0.23928833,-0.21534729,9.793823,2.5558472,-15.409851,-37.854004,0.23833103,-0.21500747,9.801395,0.0004813224,0.00036624074,0.00082302094,-4.5776367e-05,-0.00010681152,1.5258789e-05
0.010862771,-0.012248431,0.9938604,0.24406433,-0.21296692,9.7986145,2.859497,-15.751648,-38.313293,0.23803373,-0.21544407,9.8013935,8.177757e-05,-0.00017687678,-0.0016803741,-4.5776367e-05,6.1035156e-05,0.0001373291
0.010897564,-0.012230627,0.993851,0.2368927,-0.21057129,9.789032,2.5482178,-15.478516,-38.39569,0.23869179,-0.2150022,9.801387,0.0022843033,0.00082297623,0.0006313324,1.5258789e-05,0.00024414062,0.0001373291
0.010887075,-0.012254658,0.99385417,0.23928833,-0.21296692,9.800995,2.696228,-15.911865,-37.660217,0.23876166,-0.21584225,9.801366,-0.0004233867,-0.0009648055,-0.00013828278,0.00019836426,-0.00022888184,0.0002593994
0.010889095,-0.012275568,0.993854,0.23449707,-0.20578003,9.793823,2.9190063,-16.183472,-38.47809,0.2386164,-0.21590373,9.801369,-3.875792e-05,-0.00065486133,0.00038051605,-4.5776367e-05,0.0,0.0001373291
0.010888704,-0.012269052,0.993854,0.23928833,-0.20578003,9.805786,2.6153564,-15.841675,-38.095093,0.23859501,-0.21577738,9.801373,0.0004466921,-5.595386e-05,0.00072574615,0.0001373291,0.00012207031,1.5258789e-05
0.01090595,-0.012284339,0.9938497,0.23449707,-0.22253418,9.7986145,3.0166626,-15.888977,-37.895203,0.23897156,-0.2160298,9.801357,0.00055640936,-0.0005326569,-0.0011119843,7.6293945e-05,-0.00010681152,-4.5776367e-05
0.010917229,-0.012296629,0.99384695,0.24406433,-0.21534729,9.800995,2.2598267,-15.075684,-36.48987,0.23922263,-0.21623966,9.801347,0.00077329576,0.00018386543,0.0016517639,-0.00010681152,0.00018310547,0.0001373291
0.010920639,-0.012326376,0.9938466,0.2416687,-0.21774292,9.7986145,3.994751,-15.52887,-38.389587,0.23935293,-0.21681209,9.8013315,0.00018179417,-0.0009467006,-0.0022439957,-0.00010681152,-4.5776367e-05,-0.000289917
0.010942901,-0.01231973,0.99384063,0.2416687,-0.21774292,9.805786,2.496338,-14.901733,-38.198853,0.23978393,-0.21662202,9.801324,0.0004608184,0.0003040582,0.000582695,-4.5776367e-05,-0.00010681152,-4.5776367e-05
0.010912642,-0.012328211,0.9938487,0.23210144,-0.21534729,9.800995,2.8747559,-15.611267,-37.22992,0.23919691,-0.21686955,9.801333,-0.0011336058,-0.0010997504,0.002459526,0.0001373291,0.0,-0.00022888184
0.010910685,-0.012289535,0.99384856,0.24406433,-0.21534729,9.7986145,3.1066895,-15.739441,-37.791443,0.23907703,-0.2161186,9.8013525,-0.0002771914,0.0012445301,-0.0015563965,0.0001373291,0.0,-0.00016784668
0.010922152,-0.012272974,0.9938453,0.2368927,-0.21296692,9.805786,2.0446777,-16.02478,-38.259888,0.2392716,-0.21576385,9.801356,-0.00023421645,0.000651598,0.0005645752,-4.5776367e-05,-0.00010681152,0.0002746582
0.0108814845,-0.012308201,0.9938565,0.23928833,-0.21057129,9.800995,2.9922485,-14.730835,-37.12921,0.23853244,-0.2165623,9.801356,-0.0016469955,-0.00094515085,5.722046e-05,-4.5776367e-05,0.0,7.6293945e-05
0.010917759,-0.012300644,0.9938469,0.23928833,-0.21296692,9.815353,2.583313,-14.675903,-38.383484,0.23924161,-0.21631674,9.801345,0.0009943247,-0.00048154593,-0.00075912476,0.00019836426,-0.00022888184,7.6293945e-05
0.010925905,-0.0123001225,0.99384475,0.2368927,-0.22013855,9.796219,2.632141,-15.47699,-38.171387,0.2394033,-0.21628456,9.801341,0.00059239566,0.0007019788,0.00093078613,-0.00010681152,6.1035156e-05,1.5258789e-05
0.010941935,-0.012310361,0.99384075,0.23928833,-0.21774292,9.796219,2.1865845,-15.16571,-34.994507,0.23974508,-0.21644147,9.80133,0.0002603531,-0.00011122227,-0.0008096695,-0.00010681152,-0.00016784668,1.5258789e-05
0.010942809,-0.012291025,0.9938402,0.23449707,-0.21534729,9.800995,2.6184082,-15.844727,-37.7182,0.23972215,-0.21606106,9.801339,-0.00067678094,0.0014298558,-5.1498413e-05,-4.5776367e-05,-4.5776367e-05,0.00021362305
0.010929298,-0.01226766,0.9938433,0.23449707,-0.21057129,9.8033905,3.0258179,-15.592957,-38.28888,0.23940332,-0.2156407,9.801356,-0.00036886334,0.0007751882,0.00091934204,1.5258789e-05,6.1035156e-05,0.00021362305
0.010942277,-0.012244268,0.99383956,0.24406433,-0.21296692,9.796219,2.0004272,-15.380859,-37.145996,0.23961379,-0.21514829,9.801362,-7.262826e-05,0.0012138337,-0.002729416,-0.00010681152,-0.00010681152,1.5258789e-05
0.0109579,-0.0123061715,0.99383646,0.2368927,-0.21534729,9.796219,1.8936157,-15.589905,-39.071655,0.2400554,-0.21631643,9.801325,0.0006932169,-0.0016940087,-0.00021648407,-0.00016784668,0.0,-0.00016784668
0.010940496,-0.01231652,0.99384123,0.2416687,-0.22253418,9.796219,2.1896362,-14.482117,-38.55591,0.23972917,-0.21656577,9.801327,-0.0006455928,-0.0004955828,-0.0011014938,-4.5776367e-05,-0.00010681152,0.0002746582
0.0109424135,-0.012286296,0.9938402,0.24406433,-0.21534729,9.796219,3.1784058,-15.802002,-38.33618,0.23970434,-0.21596965,9.801341,-0.0004042983,0.0010848343,0.0023002625,1.5258789e-05,-0.00016784668,0.00021362305
0.010918294,-0.012299967,0.9938468,0.23928833,-0.20100403,9.805786,2.972412,-14.9383545,-38.606262,0.2392509,-0.21630207,9.801345,-0.00066903234,-0.00048922,8.869171e-05,-4.5776367e-05,6.1035156e-05,-4.5776367e-05
0.010948568,-0.012270323,0.9938383,0.2416687,-0.22013855,9.805786,2.6107788,-15.837097,-38.77411,0.23979396,-0.21564072,9.801347,0.0006887913,0.0017239451,0.0005540848,-0.00010681152,6.1035156e-05,-4.5776367e-05
0.010978872,-0.012264124,0.9938303,0.23928833,-0.21296692,9.7986145,2.1621704,-15.141296,-38.311768,0.24038653,-0.2154376,9.801335,0.0010451525,0.0010436475,0.0010061264,-0.00010681152,-0.00010681152,0.00021362305
0.010979213,-0.012270441,0.9938303,0.23928833,-0.21296692,9.796219,2.4047852,-15.05127,-38.37738,0.24040657,-0.2155602,9.801332,-0.00016520917,-0.0005105287,-0.0012426376,-4.5776367e-05,0.0,-4.5776367e-05
0.0109349275,-0.012284375,0.9938421,0.2368927,-0.21774292,9.800995,2.1987915,-16.159058,-38.293457,0.23955072,-0.21595229,9.801345,-0.0014621019,-0.00036145747,0.00012874603,1.5258789e-05,-4.5776367e-05,0.00021362305
0.010929692,-0.012297089,0.99384373,0.2416687,-0.21296692,9.791428,3.8757324,-16.259766,-39.060974,0.23947263,-0.216215,9.80134,0.00054322183,-0.00010295212,-0.00039482117,-0.00010681152,0.00018310547,1.5258789e-05
0.010918733,-0.012328893,0.99384713,0.2416687,-0.22013855,9.805786,2.9785156,-16.615295,-38.79547,0.23932007,-0.21686645,9.801331,0.00020062923,-0.00087964535,0.00053977966,-0.00010681152,6.1035156e-05,0.0002593994
0.01091967,-0.012338319,0.993847,0.2368927,-0.21296692,9.7986145,3.2852173,-15.211487,-38.220215,0.2393585,-0.21704823,9.801326,-7.882714e-05,-0.00021381676,0.000992775,-0.00010681152,-4.5776367e-05,-4.5776367e-05
0.010889036,-0.012312661,0.9938546,0.2368927,-0.22732544,9.793823,2.861023,-15.753174,-38.163757,0.23869266,-0.21662915,9.801351,-0.0010893792,0.00032652915,-0.0001373291,7.6293945e-05,0.00012207031,1.5258789e-05
0.010868373,-0.012323191,0.9938602,0.24645996,-0.22253418,9.793823,3.0044556,-16.03241,-38.679504,0.23830168,-0.21689074,9.801355,-0.0007184595,-0.0008279383,0.0016565323,7.6293945e-05,6.1035156e-05,0.00033569336
0.010922773,-0.012332787,0.9938461,0.2416687,-0.22013855,9.8033905,4.0634155,-15.589905,-39.460754,0.23940895,-0.21693167,9.801327,0.0013040155,-0.0005736053,-0.0014457703,0.0002593994,-0.00022888184,7.6293945e-05
0.010901449,-0.0123120295,0.99385136,0.2416687,-0.21296692,9.793823,2.545166,-15.47699,-38.62152,0.23893945,-0.21658336,9.801347,-0.00084735453,0.00026641786,-0.0011644363,-0.00010681152,-0.00010681152,0.0002746582
0.010874478,-0.012310976,0.9938584,0.2368927,-0.22013855,9.796219,2.4337769,-16.065979,-39.34021,0.2383982,-0.21663545,9.801358,-0.0012521148,0.00031846762,3.1471252e-05,-0.00016784668,-4.5776367e-05,-0.00010681152
0.010894523,-0.012335661,0.99385357,0.2368927,-0.22013855,9.7986145,2.670288,-14.901733,-36.621094,0.23885034,-0.21706407,9.801337,0.00068329275,-0.00046488643,-0.00061511993,-0.00010681152,0.0,-0.00016784668
0.010900896,-0.012265406,0.9938507,0.24645996,-0.21774292,9.8033905,2.2720337,-16.375732,-37.96234,0.23883103,-0.21567321,9.801369,0.0004618615,0.0024733096,0.0010185242,7.6293945e-05,-4.5776367e-05,-4.5776367e-05
0.010886327,-0.01229846,0.99385506,0.23928833,-0.21296692,9.7986145,3.4042358,-16.075134,-38.778687,0.23860887,-0.21635878,9.801358,-1.6465783e-05,-0.0011745095,-0.0013990402,-4.5776367e-05,0.00018310547,1.5258789e-05
0.010893874,-0.012326243,0.99385357,0.23928833,-0.21296692,9.810577,3.7200928,-16.200256,-38.96942,0.23881772,-0.21688169,9.801343,-0.00022780895,-0.00087824464,0.00019264221,-4.5776367e-05,-0.00016784668,-0.00010681152
0.010924837,-0.01229911,0.99384505,0.23928833,-0.20578003,9.800995,2.6275635,-15.548706,-38.33618,0.23937987,-0.21626766,9.801343,0.0013560653,0.0009083748,0.00043964386,0.0001373291,0.0,-0.00010681152
0.01090482,-0.012296882,0.99385023,0.24645996,-0.21296692,9.800995,2.670288,-16.270447,-38.94043,0.23897515,-0.21627808,9.801352,-0.000374645,0.000415951,-0.0013046265,-0.00010681152,0.00012207031,-4.5776367e-05
0.010907419,-0.012288564,0.9938494,0.2416687,-0.21774292,9.791428,2.5527954,-15.484619,-37.716675,0.23900974,-0.21610841,9.801354,6.0871243e-05,0.0004930794,0.00025081635,-4.5776367e-05,0.0,-0.000289917
0.010901465,-0.012319301,0.9938515,0.2416687,-0.21296692,9.805786,1.7440796,-15.229797,-39.822388,0.23895492,-0.21672547,9.801342,0.00011919439,-0.00081571937,-0.00030994415,-0.00016784668,6.1035156e-05,1.5258789e-05
0.010882195,-0.012283685,0.9938559,0.24406433,-0.22013855,9.808182,3.0166626,-15.814209,-38.25836,0.23849545,-0.21608104,9.801368,-0.00040499866,0.00071164966,0.0018606186,0.00019836426,0.00012207031,-4.5776367e-05
0.010875338,-0.0122896945,0.9938578,0.22970581,-0.21774292,9.805786,3.5110474,-15.486145,-38.88855,0.23837095,-0.21621701,9.801368,0.00021006167,-0.00010052323,-0.00019645691,-0.00010681152,0.00012207031,-0.00010681152
0.010870518,-0.01229797,0.9938592,0.23928833,-0.21774292,9.796219,3.0303955,-15.444946,-38.786316,0.23829192,-0.2163918,9.801366,0.0005252063,-0.0004053414,-0.00061511993,1.5258789e-05,0.00018310547,-4.5776367e-05
0.010867954,-0.012315852,0.9938602,0.23449707,-0.21534729,9.800995,1.8951416,-15.744019,-38.1958,0.238278,-0.21674837,9.801359,-0.00018280745,-0.0005327314,0.0003862381,-0.00010681152,6.1035156e-05,1.5258789e-05
0.0108769825,-0.012304367,0.9938576,0.2368927,-0.22013855,9.796219,3.1799316,-15.803528,-38.261414,0.23843448,-0.21649948,9.801361,-0.00034230947,0.00018243492,0.0002603531,0.0001373291,-0.00022888184,-4.5776367e-05
0.010914132,-0.012306328,0.99384797,0.24406433,-0.21296692,9.8033905,3.5858154,-15.70282,-38.33313,0.239181,-0.21643764,9.801343,0.0006028116,0.00010870397,-0.0010910034,1.5258789e-05,-0.00010681152,1.5258789e-05
0.010963246,-0.012329774,0.99383545,0.24645996,-0.22253418,9.796219,3.3065796,-14.5477295,-39.144897,0.24021158,-0.21676348,9.8013115,0.001700744,-0.00075009465,0.0018291473,1.5258789e-05,-0.00022888184,0.0001373291
0.010919332,-0.012295416,0.9938464,0.2416687,-0.21296692,9.805786,2.56958,-15.118408,-37.794495,0.23926213,-0.21621026,9.801347,-0.0011724085,0.0013298094,-0.00054454803,1.5258789e-05,0.00012207031,0.0001373291
0.010902606,-0.012305652,0.99385095,0.23210144,-0.21534729,9.7986145,2.7755737,-15.67688,-39.12506,0.23894924,-0.21645552,9.801349,-0.00038050115,-0.0008121878,0.00075244904,1.5258789e-05,0.00012207031,7.6293945e-05
0.010881295,-0.012289829,0.99385625,0.23928833,-0.21774292,9.7986145,2.7648926,-14.303589,-37.864685,0.23849033,-0.2162036,9.801366,-0.0006581545,0.00015893579,0.001616478,1.5258789e-05,0.00012207031,-0.00010681152
0.010879029,-0.012270397,0.99385655,0.2416687,-0.21057129,9.7986145,2.5497437,-15.6311035,-37.3703,0.23840444,-0.21582974,9.801375,-0.0003387928,0.00048281252,-0.00035762787,0.0001373291,-4.5776367e-05,1.5258789e-05
0.010930903,-0.012244124,0.99384254,0.24406433,-0.21774292,9.791428,3.6758423,-15.4800415,-38.365173,0.23938619,-0.21517615,9.801366,0.00179483,0.0010322332,-0.00023937225,7.6293945e-05,-0.00010681152,0.00015258789
0.010944724,-0.012235873,0.9938388,0.23449707,-0.21296692,9.796219,2.0828247,-15.299988,-37.434387,0.23964511,-0.2149775,9.801364,0.00010354817,0.00034351647,-0.00015640259,7.6293945e-05,-4.5776367e-05,0.0002746582
0.010939412,-0.012265508,0.99384063,0.23210144,-0.21057129,9.800995,3.3325195,-16.015625,-38.082886,0.2396009,-0.21557127,9.801352,-9.158254e-05,-0.0019356608,-0.00043582916,0.0001373291,0.0,1.5258789e-05
0.010909258,-0.012260222,0.99384844,0.2368927,-0.21774292,9.8033905,2.696228,-15.913391,-37.583923,0.23898731,-0.21554932,9.801368,-0.0011740625,-0.00049212575,0.0014657974,0.00019836426,-4.5776367e-05,7.6293945e-05
0.010921785,-0.012268402,0.99384534,0.2368927,-0.21774292,9.805786,3.0563354,-16.833496,-38.012695,0.2392547,-0.21567544,9.801358,0.00094108284,0.00036294758,0.00022220612,-4.5776367e-05,0.00012207031,0.00015258789
0.010928283,-0.012247385,0.99384326,0.24406433,-0.22253418,9.774673,3.5263062,-15.274048,-37.939453,0.23934066,-0.21524699,9.801366,-6.335974e-05,0.0001385063,-0.002257347,0.0001373291,0.0,-0.00010681152
0.0109172305,-0.012271127,0.99384654,0.23449707,-0.21296692,9.800995,2.4230957,-15.21759,-35.54535,0.2391694,-0.21574102,9.801359,-0.00012780726,-0.00056521595,-0.00069999695,1.5258789e-05,6.1035156e-05,-4.5776367e-05
0.010914111,-0.012283689,0.99384755,0.23449707,-0.22013855,9.812973,2.5131226,-16.285706,-38.180542,0.2391333,-0.21599507,9.801354,0.00015608966,-0.00055861473,-0.00031661987,-4.5776367e-05,6.1035156e-05,7.6293945e-05
0.010913095,-0.012295823,0.993848,0.2368927,-0.21534729,9.800995,2.5619507,-15.187073,-38.186646,0.23913833,-0.21623504,9.801349,-0.00035247207,-0.0012509078,0.0012311935,0.0001373291,-0.00010681152,7.6293945e-05
0.010943599,-0.012259897,0.99383944,0.2368927,-0.21296692,9.808182,2.2140503,-15.718079,-38.73291,0.23967287,-0.21545027,9.801353,0.001047194,0.0017685145,-0.00093746185,7.6293945e-05,0.0,7.6293945e-05
0.010911394,-0.01222871,0.99384737,0.2368927,-0.21534729,9.805786,2.368164,-15.930176,-38.102722,0.23896416,-0.2149274,9.801382,-0.0013641417,0.0012521893,0.0006580353,-0.00010681152,-4.5776367e-05,0.00033569336
0.0108679375,-0.0122780595,0.9938595,0.24406433,-0.20817566,9.796219,3.2546997,-15.716553,-39.45465,0.2381988,-0.21600947,9.801377,-0.0015498698,-0.0017337799,-0.0008401871,-4.5776367e-05,0.00012207031,0.00021362305
0.010879122,-0.012250647,0.9938562,0.23210144,-0.21774292,9.817749,3.4988403,-15.629578,-39.294434,0.23836507,-0.21544334,9.801385,-4.7966838e-05,0.0015393496,0.0008802414,-4.5776367e-05,-0.00016784668,7.6293945e-05
0.010888462,-0.012249106,0.9938537,0.2368927,-0.21534729,9.808182,3.4973145,-15.931702,-37.771606,0.23854852,-0.21538803,9.801382,0.00023043156,-0.00018434227,0.00091171265,1.5258789e-05,0.0,0.0001373291
0.010910328,-0.012270817,0.9938483,0.23449707,-0.22013855,9.793823,2.7175903,-16.992188,-39.237976,0.2390308,-0.21575357,9.801362,0.00095939636,-6.8202615e-05,-0.00050640106,-0.00016784668,0.0,0.00021362305
0.010887902,-0.012321171,0.99385506,0.23928833,-0.21534729,9.769897,2.4597168,-15.629578,-38.648987,0.23868778,-0.21679862,9.801348,-0.00084909797,-0.0021358132,-2.0980835e-05,-0.00010681152,-0.00010681152,7.6293945e-05
0.010881604,-0.012318542,0.99385667,0.25125122,-0.22013855,9.8033905,2.696228,-15.913391,-37.50763,0.2385564,-0.21676418,9.801352,-0.0002502799,1.5497208e-06,0.00046348572,0.0001373291,0.0,7.6293945e-05
0.010939184,-0.012316345,0.9938415,0.24645996,-0.21774292,9.812973,3.0319214,-15.751648,-36.810303,0.23970258,-0.2165659,9.801328,0.001932621,-0.00018693507,0.0022211075,1.5258789e-05,0.0,-0.00016784668
0.010928592,-0.012300464,0.9938441,0.2368927,-0.21534729,9.789032,2.7023315,-15.614319,-38.505554,0.23945774,-0.21628399,9.80134,4.604459e-06,0.00074212253,0.00052165985,1.5258789e-05,-4.5776367e-05,0.0001373291
0.010887388,-0.012285843,0.9938546,0.2368927,-0.21774292,9.793823,2.632141,-15.551758,-37.809753,0.23860376,-0.21610923,9.801365,-0.0012770146,0.00030897558,-0.0012540817,1.5258789e-05,0.00024414062,-0.00010681152
0.010845761,-0.012250045,0.9938649,0.23449707,-0.22253418,9.805786,2.4765015,-15.341187,-38.212585,0.23769717,-0.21552144,9.8014,-0.002260819,0.0009112954,-0.0013132095,-4.5776367e-05,-4.5776367e-05,0.0001373291
0.010877828,-0.012258174,0.9938566,0.24406433,-0.21296692,9.805786,2.4841309,-15.197754,-37.88147,0.23835494,-0.21559401,9.801382,0.0011367649,-0.0006914884,0.0002412796,0.0002593994,-0.00016784668,-0.00010681152
0.010914958,-0.012260915,0.99384695,0.2368927,-0.21296692,9.810577,2.8656006,-15.602112,-38.435364,0.23910265,-0.21554749,9.801365,0.0020396262,4.2021275e-06,0.002231598,7.6293945e-05,6.1035156e-05,0.00021362305
0.010913442,-0.01223323,0.9938469,0.2416687,-0.21057129,9.786652,3.4347534,-15.112305,-40.39612,0.2390145,-0.21501026,9.801378,0.00025101006,0.00038538873,-0.0025091171,1.5258789e-05,0.00018310547,7.6293945e-05
0.010943199,-0.012263401,0.9938396,0.2416687,-0.21057129,9.8033905,3.3493042,-17.015076,-40.403748,0.23967218,-0.21551988,9.801352,0.0019932836,-0.0010299385,-0.0016794205,7.6293945e-05,0.00012207031,0.00021362305
0.010925884,-0.012252947,0.993844,0.23210144,-0.21774292,9.8033905,3.2424927,-16.23993,-37.89978,0.23930435,-0.2153622,9.801364,0.00020985305,0.00073480606,-4.7683716e-06,1.5258789e-05,0.00024414062,1.5258789e-05
0.01088789,-0.01227553,0.9938543,0.23928833,-0.20817566,9.810577,3.9627075,-14.28833,-39.041138,0.23859227,-0.21590625,9.80137,-0.0007428527,-0.00088502467,-0.0011262894,-0.00016784668,0.00024414062,1.5258789e-05
0.010907871,-0.012263456,0.99384886,0.24885559,-0.21296692,9.805786,2.8884888,-15.245056,-37.532043,0.23882622,-0.21638934,9.801353,-0.00095671415,-0.0013675988,-0.00043964386,-4.5776367e-05,-0.00010681152,1.5258789e-05
0.010900648,-0.01225912,0.9938507,0.2416687,-0.21534729,9.800995,3.3981323,-16.145325,-39.3219,0.23881295,-0.215551,9.801373,-3.2186508e-06,0.0013851672,0.0005083084,-4.5776367e-05,-4.5776367e-05,0.0001373291
0.010885886,-0.0122487275,0.9938544,0.24645996,-0.21296692,9.8033905,3.1845093,-15.731812,-38.246155,0.23849624,-0.21538758,9.801383,-0.0006324202,0.000504449,1.4305115e-05,1.5258789e-05,0.0,1.5258789e-05
0.010921314,-0.012297102,0.99384594,0.22732544,-0.21057129,9.8033905,4.029846,-16.392517,-39.624023,0.23930527,-0.21623789,9.801345,0.0016511679,-0.0010364503,0.00033950806,-0.00010681152,0.0,0.00015258789
0.010858163,-0.012247952,0.9938616,0.2368927,-0.22013855,9.800995,2.06604,-15.435791,-38.67035,0.23794064,-0.21544711,9.801395,-0.0024809688,0.0012888461,0.00038528442,1.5258789e-05,0.0,0.00021362305
0.010847412,-0.012291875,0.99386513,0.22732544,-0.21534729,9.8033905,3.3462524,-15.646362,-38.38501,0.23781739,-0.21633485,9.801378,0.0004938841,-0.0013937503,0.0013628006,-4.5776367e-05,0.00024414062,-4.5776367e-05
0.010816007,-0.012257731,0.99387276,0.24645996,-0.22013855,9.817749,3.793335,-14.746094,-37.77008,0.23711859,-0.21575175,9.801409,-0.00094786286,0.0015990287,-0.0008420944,-0.00010681152,0.00012207031,7.6293945e-05
0.010883051,-0.012250525,0.9938551,0.23928833,-0.22253418,9.796219,3.2852173,-15.135193,-38.583374,0.23844336,-0.21543038,9.801384,0.0024959892,0.0008112639,0.0005598068,-4.5776367e-05,-4.5776367e-05,1.5258789e-05
0.010862849,-0.0122336885,0.9938601,0.24645996,-0.2033844,9.78186,2.0324707,-16.394043,-37.57782,0.2380045,-0.2151556,9.8014,-0.00063188374,3.094971e-05,-0.0015554428,-4.5776367e-05,-4.5776367e-05,-0.00010681152
0.010907273,-0.012214613,0.9938482,0.23449707,-0.21296692,9.800995,2.229309,-15.428162,-38.29651,0.23885238,-0.21466292,9.801392,0.0021261275,0.0011987388,-0.0016698837,0.0001373291,0.00018310547,1.5258789e-05
0.010891647,-0.012212543,0.99385226,0.24406433,-0.21534729,9.7986145,2.4215698,-14.759827,-38.394165,0.2385358,-0.21466456,9.801398,-0.00016824901,-0.00024618208,-0.00111866,-4.5776367e-05,0.00018310547,0.0001373291
0.010892095,-0.0122431135,0.9938527,0.2368927,-0.21534729,9.789032,2.6397705,-15.408325,-37.480164,0.23860861,-0.2152611,9.801384,0.00020189583,-0.0015452206,0.0024366379,7.6293945e-05,6.1035156e-05,7.6293945e-05
0.010856187,-0.012243113,0.99386203,0.23449707,-0.20817566,9.7986145,3.062439,-14.941406,-37.628174,0.23789103,-0.2153578,9.801398,-0.001453191,-5.930662e-06,-0.0006017685,1.5258789e-05,-4.5776367e-05,-0.00016784668
0.010841499,-0.012228368,0.9938656,0.22970581,-0.21774292,9.808182,2.3391724,-16.664124,-37.799072,0.23756678,-0.21510907,9.801413,-0.00042197108,0.00021378696,-0.00040531158,0.0001373291,6.1035156e-05,1.5258789e-05
0.010841101,-0.012235273,0.99386585,0.2416687,-0.21057129,9.800995,3.5644531,-14.471436,-37.47711,0.23757324,-0.21524513,9.801409,0.00028578937,-0.0010680109,0.0014715195,7.6293945e-05,6.1035156e-05,7.6293945e-05
0.010865601,-0.012198985,0.9938589,0.23449707,-0.21534729,9.800995,2.972412,-14.9383545,-38.68103,0.23798706,-0.21446964,9.801415,0.00082165,0.0012660474,-0.00029277802,7.6293945e-05,0.0,7.6293945e-05
0.01081825,-0.012206735,0.99387133,0.23928833,-0.22013855,9.810577,3.8528442,-15.179443,-37.860107,0.23705709,-0.21474864,9.801433,-0.0011239797,-0.00037132204,0.0005941391,1.5258789e-05,0.00012207031,0.0001373291
0.010846844,-0.012212166,0.993864,0.23928833,-0.21534729,9.793823,2.4047852,-15.129089,-38.09204,0.23763977,-0.21477787,9.801417,0.0014086813,-0.00010022521,-0.00024700165,1.5258789e-05,0.00012207031,0.00021362305
0.010848782,-0.012234694,0.9938638,0.2368927,-0.21057129,9.800995,2.267456,-16.37268,-38.48877,0.23772551,-0.21521315,9.801406,0.00086694956,-0.0006417036,-0.0014410019,-4.5776367e-05,0.00018310547,0.0001373291
0.010876826,-0.012235323,0.99385655,0.2368927,-0.22013855,9.815353,1.9729614,-15.660095,-38.937378,0.23828721,-0.21514991,9.8013935,0.00075878203,0.00027401745,0.0015974045,1.5258789e-05,-4.5776367e-05,0.0001373291
0.010847816,-0.012218207,0.9938638,0.24406433,-0.21057129,9.810577,3.4301758,-15.565491,-38.29956,0.23767182,-0.21489339,9.8014145,-0.0010107458,0.00048083067,-0.0008497238,1.5258789e-05,6.1035156e-05,-4.5776367e-05
0.0108343465,-0.012256179,0.99386793,0.23928833,-0.21534729,9.793823,1.9805908,-15.969849,-36.358643,0.23748186,-0.21567209,9.801402,-0.00035072863,-0.0008893311,0.00023174286,-0.00016784668,-4.5776367e-05,0.00033569336
0.01086151,-0.0122906165,0.99386144,0.24406433,-0.21057129,9.7986145,2.3880005,-15.492249,-38.165283,0.23809652,-0.21627228,9.801373,0.0016813427,-0.0014856458,-0.00064468384,1.5258789e-05,0.00012207031,1.5258789e-05
0.010880605,-0.012289486,0.99385643,0.2368927,-0.22013855,9.7986145,2.9556274,-15.380859,-38.16681,0.23847583,-0.21619877,9.801367,0.0005900711,0.000587672,-0.00042533875,-0.00010681152,0.0,7.6293945e-05
0.010869611,-0.012218088,0.9938581,0.24406433,-0.21057129,9.800995,2.8030396,-15.246582,-37.982178,0.23810707,-0.21483237,9.801405,-0.0016891807,0.0009072274,0.0008621216,0.00019836426,6.1035156e-05,0.0001373291
0.0108501,-0.012197494,0.99386287,0.24406433,-0.21296692,9.796219,2.62146,-15.69519,-38.365173,0.23767424,-0.21448226,9.801424,-0.00055556,0.0013028532,0.0026521683,-0.00022888184,0.0,1.5258789e-05
0.010804833,-0.012206475,0.99387485,0.2416687,-0.21296692,9.791428,2.5436401,-13.95874,-37.179565,0.23678845,-0.21477963,9.801438,-0.0010921955,-0.00010280311,-0.0022220612,-0.00016784668,0.00024414062,0.00033569336
0.010809283,-0.012180225,0.99387324,0.22970581,-0.21534729,9.800995,1.8386841,-15.164185,-38.15155,0.23682262,-0.21425441,9.801449,0.0005566329,0.0010311157,-0.0003671646,1.5258789e-05,6.1035156e-05,0.00021362305
0.010775862,-0.012169514,0.9938818,0.2416687,-0.21534729,9.793823,2.56958,-15.194702,-37.356567,0.23613253,-0.2141348,9.801469,-0.0013764501,-0.0002799183,-8.583069e-05,0.0001373291,0.0,0.00019836426
0.010846307,-0.012211957,0.9938641,0.2368927,-0.20817566,9.7986145,2.4673462,-15.563965,-37.954712,0.23762861,-0.21477526,9.801418,0.002618447,-0.001071766,0.0001001358,1.5258789e-05,-4.5776367e-05,0.00033569336
0.010854913,-0.012190141,0.9938615,0.2416687,-0.22253418,9.796219,2.0202637,-14.866638,-37.57019,0.23775505,-0.21432552,9.801425,-0.00013519824,-8.4742904e-05,0.00022602081,0.0001373291,0.0,0.00033569336
0.010870024,-0.012226281,0.99385816,0.2368927,-0.21534729,9.791428,3.0761719,-14.649963,-37.342834,0.2381324,-0.21499144,9.8014,0.0011886507,-0.0011025518,-0.0019273758,7.6293945e-05,-4.5776367e-05,7.6293945e-05
0.010903172,-0.012209012,0.9938492,0.2368927,-0.21057129,9.800995,3.227234,-14.855957,-37.69226,0.23875871,-0.21456444,9.801394,0.001285255,0.0006168932,-0.00048351288,1.5258789e-05,6.1035156e-05,0.00039672852
0.010880297,-0.012231914,0.99385554,0.23210144,-0.21534729,9.8033905,3.1097412,-15.742493,-37.265015,0.23834945,-0.2150739,9.8013935,-0.0009472519,-0.0012676269,0.00015544891,0.0001373291,0.0,0.000579834
0.010889523,-0.0122446865,0.99385333,0.23928833,-0.21296692,9.8033905,3.1051636,-15.739441,-37.791443,0.23856048,-0.21529879,9.801384,0.00049349666,-0.0003014654,0.0021800995,-0.00010681152,-4.5776367e-05,0.0002746582
0.0109196445,-0.012286231,0.9938462,0.2368927,-0.22013855,9.796219,2.8762817,-15.386963,-38.012695,0.23924918,-0.21602984,9.801351,0.00027915835,-0.00077708066,-0.0001296997,-0.00010681152,-0.00022888184,0.00033569336
0.010919981,-0.012269793,0.9938458,0.23928833,-0.21534729,9.800995,2.5680542,-15.119934,-37.869263,0.23922159,-0.21570754,9.801359,-0.0008916706,0.00083066523,0.00071525574,-0.00010681152,-0.00022888184,0.00021362305
0.010908989,-0.012303098,0.9938492,0.23928833,-0.22013855,9.805786,2.456665,-15.704346,-38.511658,0.23907146,-0.21638837,9.801347,-0.0009663254,-0.0011305362,-0.0015916824,1.5258789e-05,-0.00022888184,0.0002746582
0.010892627,-0.012290279,0.9938533,0.24406433,-0.21534729,9.800995,3.1066895,-15.661621,-38.07831,0.2387177,-0.21618186,9.80136,-0.0008534193,0.0008100122,0.0010185242,-0.00016784668,0.0,0.0001373291
0.010907527,-0.012272825,0.9938491,0.23210144,-0.22492981,9.805786,2.9571533,-15.3793335,-38.316345,0.23897904,-0.21580042,9.801363,0.0005402863,0.0009242445,0.0006799698,-4.5776367e-05,0.0,-0.00010681152
0.010870759,-0.012287714,0.993859,0.2416687,-0.21296692,9.793823,1.8829346,-16.035461,-38.104248,0.23827532,-0.21619062,9.801371,-0.0013838261,-0.00058990717,0.00029182434,-4.5776367e-05,-4.5776367e-05,0.00021362305
0.010877169,-0.012270436,0.993857,0.23928833,-0.21296692,9.796219,2.7145386,-15.626526,-36.846924,0.23836735,-0.21583553,9.801376,-0.00026269257,0.00094152987,-0.0018663406,1.5258789e-05,-4.5776367e-05,0.00019836426
0.010886477,-0.012246665,0.99385417,0.23210144,-0.22013855,9.793823,3.85437,-15.103149,-37.994385,0.23850372,-0.21534564,9.801383,0.0007984191,0.001420185,0.000667572,-0.00016784668,6.1035156e-05,0.00039672852
0.010904002,-0.012241243,0.9938495,0.24406433,-0.21774292,9.8033905,2.8244019,-14.884949,-37.30316,0.23884265,-0.21519244,9.80138,0.0004774183,0.0007625967,-0.0014629364,-4.5776367e-05,-4.5776367e-05,0.00033569336
0.010888376,-0.012256117,0.99385387,0.23210144,-0.22013855,9.805786,2.5146484,-16.056824,-39.494324,0.23856142,-0.21552534,9.801378,2.8908253e-06,-0.0003040284,0.0031642914,-0.00016784668,6.1035156e-05,0.0001373291
0.010849814,-0.012251271,0.9938638,0.23928833,-0.22253418,9.796219,3.239441,-16.081238,-39.302063,0.2377807,-0.21553448,9.801397,-0.001127407,0.00016763806,-0.0009241104,1.5258789e-05,0.00018310547,-4.5776367e-05
0.010837896,-0.012262184,0.99386716,0.23449707,-0.20578003,9.808182,2.357483,-15.995789,-39.17389,0.23756528,-0.21577993,9.801396,-0.00042006373,0.0001809001,-0.0002861023,-0.00016784668,6.1035156e-05,0.00015258789
0.010789293,-0.012230688,0.9938793,0.2416687,-0.21296692,9.796219,2.230835,-15.353394,-38.583374,0.23719163,-0.21537098,9.801415,0.0018394738,-0.00020858645,0.0007171631,-0.00016784668,-4.5776367e-05,0.0002746582
0.010839977,-0.012280387,0.99386686,0.2368927,-0.21534729,9.784256,3.2791138,-15.283203,-38.763428,0.23764487,-0.21613026,9.801388,0.0016238093,-0.0011217743,0.00047588348,-0.00022888184,0.00018310547,1.5258789e-05
0.010835253,-0.012285902,0.99386823,0.2416687,-0.21774292,9.779465,1.9210815,-15.234375,-37.716675,0.23756196,-0.21625079,9.801387,0.00051285326,0.00042258203,-0.000954628,-4.5776367e-05,0.00018310547,1.5258789e-05
0.010845472,-0.012312198,0.99386597,0.25125122,-0.21774292,9.805786,2.6855469,-15.750122,-39.967346,0.23782103,-0.21673745,9.80137,0.0009801686,-0.0005334914,-0.00080013275,-0.00010681152,0.00012207031,1.5258789e-05
0.01087699,-0.012312745,0.99385774,0.23449707,-0.21296692,9.808182,3.1585693,-14.265442,-39.38141,0.23845209,-0.21666326,9.801356,0.0017758459,-0.00012777746,0.000579834,1.5258789e-05,0.00012207031,0.0002593994
0.010894178,-0.0122764455,0.9938527,0.2368927,-0.21774292,9.7986145,2.7389526,-14.962769,-37.61902,0.23871984,-0.2159072,9.801367,9.267032e-05,0.0014946908,-0.0015230179,1.5258789e-05,-4.5776367e-05,0.0001373291
0.01091078,-0.01227304,0.99384826,0.23449707,-0.21057129,9.796219,2.4612427,-15.783691,-37.773132,0.23904449,-0.21579583,9.801361,1.6778708e-05,0.00043314695,-0.0003681183,1.5258789e-05,-0.00010681152,0.00021362305
0.010873337,-0.012279186,0.99385816,0.2416687,-0.20578003,9.805786,3.93219,-15.171814,-38.087463,0.23830904,-0.21601693,9.8013735,-0.0014192611,-0.00028902292,0.0016679764,-4.5776367e-05,-4.5776367e-05,0.00021362305
0.010864407,-0.012254012,0.99386007,0.23928833,-0.21774292,9.8033905,4.057312,-15.431213,-41.090393,0.23807804,-0.21554878,9.80139,-0.0002206713,0.0011444986,-0.00048542023,-4.5776367e-05,6.1035156e-05,0.0001373291
0.010842034,-0.012283855,0.9938664,0.2416687,-0.21774292,9.800995,2.9571533,-14.923096,-40.715027,0.23769319,-0.21619253,9.801385,-7.042289e-05,-0.00084497035,-0.00080394745,-0.00010681152,0.00018310547,7.6293945e-05
0.010866618,-0.01230084,0.99386024,0.23449707,-0.21534729,9.805786,4.2099,-15.715027,-40.626526,0.23821996,-0.21645844,9.801367,0.00130862,-0.00010462105,9.6321106e-05,-0.00010681152,6.1035156e-05,0.0002593994
0.010892414,-0.012305583,0.9938536,0.23449707,-0.22492981,9.8033905,2.6947021,-17.274475,-40.504456,0.23874538,-0.21648164,9.8013525,0.001280114,0.00062792003,-0.0007266998,-0.00016784668,6.1035156e-05,0.00021362305
0.01086935,-0.01227463,0.9938591,0.23928833,-0.21534729,9.800995,3.6270142,-16.345215,-39.749146,0.23821986,-0.2159386,9.801377,-0.0008277446,0.0010403991,-0.00048732758,1.5258789e-05,0.0,1.5258789e-05
0.010849429,-0.012293993,0.99386466,0.2368927,-0.21296692,9.793823,4.095459,-14.935303,-38.874817,0.23786214,-0.21637082,9.801376,-0.00022788346,-0.00067713857,0.00015068054,-0.00010681152,0.00012207031,9.1552734e-05
0.010873851,-0.012282516,0.9938581,0.2416687,-0.20817566,9.7986145,2.6779175,-16.122437,-38.75885,0.2383263,-0.21608068,9.801373,0.00096575916,0.0007147491,0.001698494,1.5258789e-05,0.0,7.6293945e-05
0.01087746,-0.012244978,0.9938565,0.24645996,-0.21296692,9.8033905,2.62146,-15.69519,-38.365173,0.23832005,-0.21533698,9.801389,5.1259995e-06,0.0014256835,0.0004911423,1.5258789e-05,6.1035156e-05,1.5258789e-05
0.01088353,-0.012265759,0.9938553,0.23928833,-0.21534729,9.796219,3.2180786,-14.848328,-38.82141,0.23848473,-0.21572694,9.801376,0.0003209114,-0.00011368096,-0.0006246567,-0.00016784668,0.00012207031,7.6293945e-05
0.010877849,-0.01222561,0.9938561,0.23928833,-0.21296692,9.805786,3.781128,-14.808655,-38.990784,0.23828739,-0.21495725,9.801398,5.6520104e-05,0.0015020967,-0.0008993149,-4.5776367e-05,-4.5776367e-05,7.6293945e-05
0.010874702,-0.012238614,0.99385715,0.23928833,-0.21296692,9.8033905,2.6382446,-15.405273,-37.78076,0.23825163,-0.21521997,9.801393,-0.00017778575,-0.0010804683,0.002114296,1.5258789e-05,6.1035156e-05,1.5258789e-05
0.010858135,-0.012217015,0.9938611,0.2368927,-0.21534729,9.7986145,2.8930664,-14.944458,-38.528442,0.2378755,-0.21484227,9.80141,-3.567338e-05,0.00045381486,0.00043582916,0.00019836426,6.1035156e-05,0.0001373291
0.010848974,-0.0122151645,0.99386346,0.23928833,-0.20817566,9.800995,2.6687622,-14.5980835,-38.371277,0.2376886,-0.21483079,9.801415,-0.0005636662,-0.00027684867,-0.0001783371,0.0001373291,6.1035156e-05,-4.5776367e-05
0.01087856,-0.012223434,0.9938559,0.24406433,-0.21534729,9.800995,3.7216187,-16.201782,-38.742065,0.23829705,-0.21491277,9.801398,0.0016994327,-0.00019751489,-0.0002861023,-0.00010681152,0.0,0.0001373291
0.01087332,-0.012204843,0.99385697,0.23449707,-0.21774292,9.800995,2.0202637,-16.532898,-38.589478,0.23815352,-0.2145634,9.80141,-7.340312e-05,-6.4224005e-05,-0.00051403046,0.00019836426,0.00012207031,-0.00010681152
0.01088955,-0.012209503,0.9938528,0.23928833,-0.21534729,9.7986145,3.2836914,-15.060425,-39.24713,0.23848757,-0.21461079,9.801401,0.00030049682,0.0016546547,0.00030708313,1.5258789e-05,0.0,0.0001373291
0.010882049,-0.012208265,0.9938547,0.23449707,-0.20578003,9.796219,2.0462036,-15.873718,-38.75885,0.23833507,-0.21460679,9.801404,-0.0007278621,0.0002079308,-0.000746727,-0.00010681152,-0.00010681152,1.5258789e-05
0.010886191,-0.012208418,0.9938536,0.23928833,-0.21534729,9.805786,3.3233643,-16.004944,-39.213562,0.23841818,-0.21459861,9.801402,0.00015433133,-0.00027686357,-0.00033664703,-4.5776367e-05,-4.5776367e-05,-4.5776367e-05
0.010881062,-0.012207663,0.99385494,0.24645996,-0.21534729,9.791428,2.6672363,-16.418457,-38.441467,0.2383141,-0.21459767,9.801405,0.00026114285,-0.00052441657,-0.00024223328,0.0001373291,6.1035156e-05,-0.00010681152
0.0108315,-0.012238044,0.9938684,0.23449707,-0.21057129,9.774673,2.986145,-14.72168,-38.409424,0.23738717,-0.21532516,9.801412,-0.0014304668,-0.0014794171,-0.0017528534,1.5258789e-05,0.00012207031,7.6293945e-05
0.010848958,-0.01222442,0.99386364,0.2416687,-0.21296692,9.800995,2.7526855,-16.340637,-38.352966,0.23770759,-0.21501179,9.801411,0.00064732134,0.0005853176,-0.00021266937,7.6293945e-05,0.00012207031,1.5258789e-05
0.010837785,-0.012194189,0.993866,0.23928833,-0.21057129,9.810577,3.3203125,-16.15448,-38.867188,0.23742126,-0.21445078,9.80143,-0.00029669702,0.001008153,0.0020837784,1.5258789e-05,0.0,1.5258789e-05
0.010846212,-0.012222215,0.9938643,0.23928833,-0.21057129,9.8033905,2.1957397,-16.156006,-38.594055,0.23764813,-0.21497607,9.801414,0.00044564903,-0.0003810674,-0.0006713867,-0.00010681152,-4.5776367e-05,0.0001373291
0.010852566,-0.012209698,0.99386245,0.24406433,-0.21296692,9.7986145,1.9744873,-15.963745,-37.26349,0.23774897,-0.21471421,9.801416,0.0008558333,-0.00019042194,-0.0019035339,0.0001373291,0.00018310547,-0.00010681152
0.010864459,-0.012221612,0.9938595,0.2368927,-0.22013855,9.7986145,2.7923584,-15.539551,-37.81433,0.23801146,-0.21491514,9.801405,0.00034700334,-0.00023166835,0.00016784668,1.5258789e-05,0.0,-4.5776367e-05
0.010857911,-0.012203219,0.99386096,0.24645996,-0.21534729,9.812973,2.7053833,-14.097595,-36.68518,0.23784225,-0.21457316,9.801417,-0.0006866306,0.0011162758,0.0010843277,-0.00016784668,0.0,0.0002746582
0.010862374,-0.012196349,0.99385965,0.23210144,-0.21296692,9.812973,3.3096313,-14.550781,-38.842773,0.2379171,-0.21442682,9.801419,0.00042177737,-0.0004581213,0.00055217743,7.6293945e-05,-4.5776367e-05,0.00039672852
0.010870402,-0.012217695,0.9938579,0.2416687,-0.21296692,9.8033905,2.9708862,-15.167236,-37.36725,0.23812205,-0.21482255,9.801405,0.0002335459,-7.750094e-05,-0.0013856888,-4.5776367e-05,-0.00010681152,0.00039672852
0.010878035,-0.012184028,0.99385536,0.23928833,-0.21057129,9.7986145,3.2821655,-15.286255,-38.235474,0.23820429,-0.21414371,9.801418,-6.183982e-05,0.0013673902,-0.0025196075,7.6293945e-05,6.1035156e-05,0.00021362305
0.010829454,-0.012196498,0.99386823,0.23449707,-0.21534729,9.7986145,2.6550293,-15.040588,-37.705994,0.2372596,-0.21451831,9.801432,-0.0015523136,-0.0006182045,0.003273964,-0.00016784668,0.0,0.00021362305
0.010872424,-0.012175483,0.99385667,0.2368927,-0.20817566,9.7986145,2.6611328,-14.894104,-37.826538,0.23807433,-0.21399176,9.801425,0.0012346953,0.0012503713,-5.054474e-05,-4.5776367e-05,-0.00010681152,0.00021362305
0.010848566,-0.012169619,0.9938628,0.23928833,-0.20817566,9.796219,2.4414062,-16.072083,-38.435364,0.23758541,-0.21394135,9.801437,-0.0009328723,2.4810433e-05,0.0013999939,7.6293945e-05,6.1035156e-05,0.00021362305
0.010828968,-0.012129477,0.9938673,0.2368927,-0.21296692,9.805786,1.5380859,-16.493225,-38.409424,0.23711008,-0.21320923,9.801465,-0.0009278208,0.0014416873,-0.00017642975,-4.5776367e-05,-4.5776367e-05,0.00021362305
0.010825262,-0.012128805,0.99386823,0.23210144,-0.21296692,9.808182,3.0288696,-15.44342,-39.012146,0.23703463,-0.21320604,9.801466,-0.00012977421,0.00022818148,-0.0004415512,7.6293945e-05,0.0,0.0005187988
0.01079108,-0.012140164,0.99387735,0.23210144,-0.21534729,9.786652,2.053833,-15.805054,-38.365173,0.2363754,-0.21352004,9.801476,-0.0008876473,-0.00019058585,-0.001414299,-0.00010681152,0.00012207031,-0.00010681152
0.010791871,-0.012139021,0.9938771,0.2368927,-0.21534729,9.793823,2.7160645,-15.475464,-37.495422,0.23638882,-0.21349557,9.801476,4.6610832e-05,-0.00021652877,-0.0001411438,1.5258789e-05,0.0,0.00021362305
0.01082134,-0.012194587,0.9938703,0.2416687,-0.21534729,9.8033905,1.4068604,-15.7699585,-38.861084,0.23709346,-0.21450277,9.801435,0.0014896393,-0.002060771,0.001502037,1.5258789e-05,-4.5776367e-05,0.0005187988
0.01085358,-0.012196871,0.993862,0.23449707,-0.22013855,9.791428,3.0212402,-15.740967,-38.31787,0.23774244,-0.21446069,9.801421,0.0022741705,0.00076659024,3.1471252e-05,-0.00022888184,0.00024414062,0.00039672852
0.010862007,-0.012217559,0.9938601,0.23210144,-0.21296692,9.786652,2.6443481,-15.335083,-37.538147,0.23795402,-0.21484251,9.801409,0.00040097535,-0.0005452931,-0.0014123917,7.6293945e-05,0.00012207031,0.0002746582
0.010885192,-0.01224116,0.9938544,0.23210144,-0.23210144,9.805786,2.6504517,-15.037537,-38.23242,0.23846659,-0.21524149,9.801388,0.0010702759,-0.00036767125,0.00065898895,-0.00010681152,-0.00010681152,0.00021362305
0.0108826365,-0.012261223,0.9938554,0.2368927,-0.22013855,9.805786,3.0975342,-14.0625,-37.904358,0.23845738,-0.21564065,9.801378,-0.000609532,0.0002989024,0.00056934357,-0.00010681152,0.0,0.0002593994
0.010857489,-0.0122684715,0.9938621,0.2368927,-0.21296692,9.7986145,2.9129028,-14.811707,-36.84082,0.23796998,-0.21585013,9.801386,-0.0018066764,-0.00044734776,0.000538826,1.5258789e-05,-0.00022888184,0.00033569336
0.010829845,-0.012279962,0.99386954,0.23449707,-0.21534729,9.7986145,3.0303955,-15.522766,-38.198853,0.23744148,-0.2161492,9.801392,-0.0010458231,-0.00039556623,-0.00026988983,-4.5776367e-05,0.0,0.00038146973
0.01082298,-0.012257161,0.9938709,0.23928833,-0.22013855,9.800995,2.3544312,-16.145325,-38.900757,0.23725674,-0.21572185,9.801406,-0.0003604442,0.0015614778,-0.0009794235,-0.00016784668,-0.00010681152,0.00033569336
0.01083792,-0.012212716,0.9938663,0.23928833,-0.21774292,9.800995,3.2089233,-15.222168,-37.841797,0.23746261,-0.21481265,9.801421,0.00088374317,0.0013552308,-0.001291275,7.6293945e-05,0.00012207031,0.00045776367
0.010847,-0.012215628,0.993864,0.23449707,-0.21774292,9.810577,3.17688,-15.87677,-38.275146,0.23765014,-0.21484518,9.801416,0.00023172796,-5.427003e-05,-0.00070667267,1.5258789e-05,6.1035156e-05,0.00045776367
0.0108918715,-0.012262364,0.99385303,0.2416687,-0.21296692,9.805786,2.6779175,-16.278076,-37.88452,0.23864432,-0.21563807,9.8013735,0.0011383593,-0.0009339303,0.0004968643,-0.00010681152,-0.00016784668,0.00045776367
0.010886157,-0.012236465,0.9938541,0.23928833,-0.22013855,9.793823,2.7160645,-15.473938,-37.57019,0.23847607,-0.21514711,9.80139,0.0003569126,0.0007161349,-0.00094795227,-4.5776367e-05,6.1035156e-05,-4.5776367e-05
0.010873079,-0.012294678,0.99385846,0.23928833,-0.21774292,9.7986145,3.2165527,-15.077209,-37.73651,0.2383362,-0.21632053,9.801366,0.0007264465,-0.002400428,0.0011196136,7.6293945e-05,0.00018310547,0.00033569336
0.010888532,-0.012279304,0.99385417,0.24645996,-0.21774292,9.815353,2.9296875,-14.219666,-37.852478,0.23861296,-0.21597831,9.801368,0.0004350692,0.00110057,0.0012187958,-0.00010681152,0.0,0.00033569336
0.010927118,-0.012309082,0.99384457,0.24406433,-0.20578003,9.8033905,2.507019,-14.762878,-37.265015,0.23944628,-0.21645646,9.801336,0.0022037178,-0.00079652667,0.0017766953,1.5258789e-05,6.1035156e-05,0.00039672852
0.010927089,-0.012276171,0.99384403,0.23449707,-0.2033844,9.796219,3.477478,-14.620972,-37.579346,0.23937693,-0.21581304,9.8013525,-0.00011733174,0.0016818345,0.0008621216,-0.00016784668,0.00012207031,1.5258789e-05
0.010901057,-0.012252809,0.99385047,0.2416687,-0.21296692,9.793823,2.998352,-16.175842,-38.85956,0.23880795,-0.21542649,9.801375,-0.0009482056,0.0015083402,-0.0027694702,-0.00010681152,0.0,7.6293945e-05
0.010902404,-0.012248057,0.99385005,0.2368927,-0.21296692,9.800995,2.9525757,-15.6814575,-37.017822,0.23882493,-0.21532996,9.801377,0.00024360418,-5.453825e-05,-0.001534462,7.6293945e-05,0.0,0.0002746582
0.010883134,-0.012269613,0.9938554,0.24406433,-0.22492981,9.800995,2.5024414,-16.575623,-38.316345,0.23848486,-0.21580338,9.801374,-0.00039063394,-0.001232639,0.0010480881,-4.5776367e-05,0.00012207031,0.00019836426
0.010876252,-0.01231348,0.993858,0.23928833,-0.21534729,9.7986145,2.671814,-16.423035,-37.913513,0.23843886,-0.21667959,9.801355,0.00037905574,-0.0010795891,-0.0005722046,-0.00010681152,6.1035156e-05,0.00039672852
0.010888853,-0.012280155,0.9938541,0.2368927,-0.22013855,9.796219,1.902771,-15.597534,-38.090515,0.23862118,-0.2159941,9.801368,-3.094971e-05,0.0015756041,-6.198883e-05,-4.5776367e-05,6.1035156e-05,0.0002593994
0.010868526,-0.0122466395,0.9938589,0.24406433,-0.21774292,9.8033905,2.1453857,-15.583801,-37.947083,0.23814498,-0.21539354,9.801392,-0.00025559962,0.00096029043,-0.0013208389,1.5258789e-05,-4.5776367e-05,0.0001373291
0.010931226,-0.012306181,0.9938435,0.24645996,-0.21534729,9.7986145,2.871704,-15.457153,-38.404846,0.23952231,-0.21638863,9.801335,0.0024046004,-0.00089396536,0.0016841888,-0.00010681152,1.5258789e-05,0.00021362305
0.01092536,-0.012296173,0.99384487,0.2368927,-0.21774292,9.810577,1.7608643,-15.170288,-38.07373,0.23938419,-0.2162088,9.801344,0.00016658008,0.000114023685,-0.0015993118,-0.00010681152,6.1035156e-05,0.0002746582
0.0109581435,-0.012293043,0.9938362,0.23928833,-0.21774292,9.8033905,2.3010254,-15.567017,-38.705444,0.24003279,-0.21605906,9.801331,0.00070521235,0.0006979704,0.0014953613,1.5258789e-05,-4.5776367e-05,1.5258789e-05
0.010916988,-0.012253469,0.9938463,0.2416687,-0.22013855,9.8033905,2.2125244,-15.716553,-38.882446,0.23912767,-0.21539642,9.801368,-0.0010486841,0.0014869869,0.0016336441,-4.5776367e-05,6.1035156e-05,0.0002746582
0.01089702,-0.012242246,0.99385136,0.24406433,-0.20817566,9.786652,2.546692,-15.704346,-37.4588,0.23870522,-0.21523085,9.801382,-0.00085413456,-0.00014281273,-0.0013151169,7.6293945e-05,0.0,0.00021362305
0.010857364,-0.01221813,0.9938613,0.2368927,-0.21534729,9.808182,2.6123047,-15.838623,-38.546753,0.23786245,-0.21486618,9.801411,-0.0012161881,0.00227727,0.0005636215,-4.5776367e-05,0.00024414062,7.6293945e-05
0.01090339,-0.012228652,0.99384946,0.23449707,-0.22253418,9.789032,1.864624,-16.325378,-38.69171,0.2388041,-0.21494788,9.801386,0.0016950518,-0.00018909574,-0.0009784698,-4.5776367e-05,-0.00016784668,7.6293945e-05
0.010899821,-0.012190952,0.99384975,0.22970581,-0.22253418,9.8033905,3.0441284,-16.897583,-39.231873,0.23865406,-0.21422037,9.801406,0.00017860532,0.00075113773,-0.0009775162,0.00019836426,0.00024414062,0.00033569336
0.010879323,-0.012243831,0.993856,0.23210144,-0.21774292,9.808182,2.5604248,-15.339661,-37.687683,0.23835486,-0.21530952,9.801388,-0.0007202327,-0.0017386079,0.0006246567,-4.5776367e-05,-4.5776367e-05,0.00045776367
0.010882351,-0.012244577,0.99385524,0.2416687,-0.22253418,9.812973,2.7938843,-15.542603,-37.435913,0.23841694,-0.21531595,9.801387,0.0001718998,-4.7296286e-05,0.0005788803,-4.5776367e-05,6.1035156e-05,0.00039672852
0.010871702,-0.012238893,0.9938579,0.2368927,-0.22253418,9.800995,2.1652222,-15.145874,-37.783813,0.23819229,-0.21523352,9.801394,-0.0010478646,0.0008254051,0.00087451935,-0.00010681152,-0.000289917,0.0002746582
0.010861712,-0.012242174,0.9938606,0.23210144,-0.21534729,9.8033905,2.2827148,-15.930176,-39.079285,0.2379995,-0.2153246,9.801397,8.589029e-05,-2.4959445e-05,0.00041770935,-4.5776367e-05,0.00012207031,7.6293945e-05
0.010846788,-0.012211376,0.993864,0.24406433,-0.21774292,9.8033905,3.0273438,-15.745544,-37.64038,0.23763701,-0.2147626,9.801418,-0.0004929006,0.0013161004,-0.0003528595,-4.5776367e-05,0.00018310547,1.5258789e-05
0.010853852,-0.012242508,0.9938626,0.2416687,-0.21534729,9.808182,2.871704,-15.457153,-38.404846,0.23784313,-0.21535228,9.8014,0.0002515167,-0.0007380694,-0.0003938675,-0.00010681152,-0.00022888184,0.00033569336
0.010868346,-0.012247218,0.99385893,0.2368927,-0.22253418,9.7986145,2.3651123,-15.85083,-39.068604,0.2381426,-0.21540533,9.801392,0.0013679713,0.00053708255,0.001496315,-0.00022888184,0.00018310547,0.00021362305
0.010869625,-0.012307202,0.9938596,0.2368927,-0.21534729,9.808182,2.7389526,-16.633606,-38.261414,0.23829333,-0.21657473,9.801362,0.000754416,-0.0028498918,-0.00092220306,0.00019836426,0.00024414062,0.00021362305
0.010881853,-0.012331359,0.9938568,0.2368927,-0.22013855,9.7986145,2.3666382,-15.92865,-38.328552,0.23858814,-0.2170141,9.801345,0.00090681016,-0.00047969818,0.0020923615,-0.00016784668,0.0,0.0001373291
0.010869211,-0.012292341,0.99385947,0.24406433,-0.21296692,9.793823,2.4139404,-14.982605,-37.760925,0.23825403,-0.21628527,9.801369,-0.00066138804,0.0014266372,-0.00036525726,1.5258789e-05,0.00012207031,0.0001373291
0.010894624,-0.012284243,0.9938527,0.23928833,-0.22013855,9.808182,2.4612427,-15.708923,-37.908936,0.23874502,-0.21605846,9.801363,0.0007791668,0.00093372166,-0.001988411,-0.00010681152,-0.00016784668,0.00032043457
0.010892612,-0.012262745,0.99385285,0.23210144,-0.22253418,9.805786,3.439331,-15.34729,-38.25531,0.23865992,-0.21564353,9.8013735,-0.00033070147,0.001240313,0.00042819977,-0.00010681152,0.0,0.00019836426
0.010874594,-0.012257975,0.9938575,0.23210144,-0.20578003,9.800995,2.0767212,-15.141296,-38.987732,0.2382899,-0.21559882,9.801384,-0.00069473684,-0.00045230985,0.0014009476,0.0001373291,-0.00010681152,0.00021362305