timestamp,rotationVector_x,rotationVector_y,rotationVector_z,accelerometer_x,accelerometer_y,accelerometer_z,magneticField_x,magneticField_y,magneticField_z,gravity_x,gravity_y,gravity_z,linearAcceleration_x,linearAcceleration_y,linearAcceleration_z,gyroscope_x,gyroscope_y,gyroscope_z
2019-07-01T19:34:55.331Z,-0.7010038,0.03827872,-0.0476839,0.36131287,-9.734009,-0.29193115,-5.506897,41.215515,22.140503,0.12215879,-9.804893,0.13981244,0.094134636,-0.03227806,-0.17652147,0.0076141357,-0.07409668,0.0009918213
2019-07-01T19:34:55.552Z,-0.70033944,0.048511487,-0.052632585,-1.0935211,-9.726822,0.95951843,-4.008484,40.73944,20.851135,0.047213793,-9.805528,0.14065306,-0.14048442,0.01352787,0.3052776,0.05783081,-0.36260986,0.019989014
2019-07-01T19:34:55.744Z,-0.70394564,0.04399953,-0.030253308,-0.8422699,-9.542572,1.6247253,-2.508545,41.555786,22.615051,-0.19349915,-9.804615,0.049515847,-0.92558014,0.041089058,1.154833,-0.054275513,-0.5027466,0.09030151
2019-07-01T19:34:55.943Z,-0.6936595,0.05925428,-0.042053528,0.3014984,-9.489929,0.19142151,-1.0284424,40.792847,21.040344,-0.2607098,-9.798574,0.30058238,0.17743123,0.24926472,0.8220322,-0.04547119,0.034942627,0.06996155
2019-07-01T19:34:56.189Z,-0.68924993,0.04194841,-0.061030354,1.5625153,-9.736389,-0.04547119,-2.5421143,41.130066,20.869446,0.23205942,-9.793363,0.4545348,0.43598366,-0.5031185,-0.47562107,0.12434387,0.22869873,-0.050079346
2019-07-01T19:34:56.347Z,-0.6730515,-0.022114906,-0.036646947,0.8566284,-9.169296,0.026321411,-3.4729004,42.09442,19.969177,0.8040268,-9.730966,0.9122663,-0.0902912,0.21553516,-0.44637638,0.13626099,-0.28778076,-0.31414795
2019-07-01T19:34:56.553Z,-0.6576461,-0.08673846,0.040265124,0.64367676,-10.248459,0.9308014,-0.38146973,41.897583,15.350342,0.75184864,-9.706764,1.1763668,0.37998635,0.14185238,-0.2695923,0.27676392,-0.81074524,-0.063690186
2019-07-01T19:34:56.752Z,-0.63486433,-0.14915201,0.11825364,1.076767,-9.355942,2.2636108,5.517578,42.96875,12.68158,0.71807367,-9.669961,1.4651325,0.075534105,0.12967396,0.37230754,0.2679596,-0.9832001,0.124938965
2019-07-01T19:34:56.949Z,-0.6214171,-0.19079284,0.18524836,1.8496552,-9.205185,3.1537476,9.104919,42.869568,9.19342,0.49997684,-9.67541,1.5188318,0.4387542,0.39721298,0.7115655,0.14468384,-1.0315857,0.22602844
2019-07-01T19:34:57.155Z,-0.629091,-0.21405962,0.19632527,-2.0817566,-9.317657,-1.1198425,10.533142,42.30194,9.77478,0.60480016,-9.720678,1.1458676,-0.75810784,-0.73712826,-0.030821681,0.02281189,-0.67367554,0.15615845
2019-07-01T19:34:57.358Z,-0.65424496,-0.14566356,0.13711785,-0.47616577,-9.9756775,0.4402771,8.674622,41.72516,11.845398,0.3242146,-9.750625,0.99528927,-1.7075521,-0.17897987,-0.62296045,-0.19366455,0.23139954,-0.023071289
2019-07-01T19:34:57.558Z,-0.6673233,-0.08849757,0.08570215,0.0023956299,-9.573685,1.0959167,5.758667,40.856934,14.129639,0.15320313,-9.762308,0.91883963,-0.0833634,0.07520962,-0.0044838786,-0.09703064,1.0574036,0.0048980713
2019-07-01T19:34:57.762Z,-0.67773587,-0.053558704,0.029726058,-1.0743713,-9.566513,1.4691925,1.725769,40.130615,16.941833,0.3745886,-9.7714,0.74149215,-1.2642231,0.20078468,0.67871577,-0.12683105,0.57922363,-0.067108154
2019-07-01T19:34:57.967Z,-0.6612706,-0.017904019,-0.01946215,0.899704,-9.786652,0.44506836,-0.680542,40.56549,15.391541,0.51567394,-9.716305,1.2238826,-0.5791528,0.058137894,-0.60483277,-0.041809082,0.61331177,-0.22776794
2019-07-01T19:34:58.171Z,-0.66325647,-0.024575438,-0.035191353,2.3617096,-8.762512,0.9571228,-3.1707764,40.467834,16.304016,0.81792724,-9.702582,1.1667343,1.3555284,-0.5121803,-0.6389297,0.30039978,0.49931335,-0.13583374
2019-07-01T19:34:58.371Z,-0.6649565,-0.049963478,-0.019589227,2.2875366,-9.920639,0.5024872,-3.2592773,38.87329,14.021301,0.9854968,-9.696455,1.0853312,0.68590385,0.39457607,0.10206139,-0.14596558,-0.12919617,-0.111465454
2019-07-01T19:34:58.573Z,-0.6344032,-0.16946767,0.098359,0.79681396,-9.401398,1.5936127,-0.6820679,38.822937,14.660645,1.2615504,-9.63106,1.3496554,-0.27118742,-0.052775383,-0.16173756,0.19026184,-0.9203949,0.06072998
2019-07-01T19:34:58.778Z,-0.604124,-0.18999018,0.13458444,1.5385895,-9.332016,1.9621124,3.843689,39.649963,12.606812,1.2452363,-9.531749,1.9404993,-0.2731595,0.07365799,-0.24045968,0.34028625,-0.7667694,-0.0040130615
2019-07-01T19:34:58.978Z,-0.61086005,-0.1943371,0.16624948,1.2753754,-9.63829,2.3306122,4.9072266,40.771484,8.711243,0.86417794,-9.610975,1.7472143,0.35394013,0.25323868,0.5061476,0.23283386,-0.24227905,0.13092041
2019-07-01T19:34:59.181Z,-0.6304379,-0.20522812,0.20782082,0.095718384,-10.02832,2.292328,7.763672,39.793396,8.92334,0.3252025,-9.729331,1.1852216,0.61106527,-0.32732868,0.6095227,-0.25769043,-0.2973175,0.35021973
2019-07-01T19:34:59.386Z,-0.65254873,-0.13541065,0.12206235,-1.6845398,-9.394226,-0.928421,9.786987,38.323975,8.616638,0.39111856,-9.737441,1.0952879,-0.48262697,0.022174835,0.3600937,-0.20478821,-0.30873108,0.14918518
2019-07-01T19:34:59.596Z,-0.6638094,-0.10199314,0.09267579,-0.5479584,-9.662216,0.095718384,10.33783,37.76703,10.218811,0.26390976,-9.755964,0.9601579,-0.74704415,-0.097473145,-0.6097238,-0.08970642,-0.025482178,0.016937256
2019-07-01T19:34:59.799Z,-0.67050636,-0.054439787,0.05785878,-0.37806702,-9.477966,1.7946167,9.422302,36.97357,10.623169,0.026716795,-9.762341,0.9307985,-0.5058796,0.055544853,-0.1305092,0.08885193,0.5836792,0.05834961
2019-07-01T19:35:00.001Z,-0.6732515,-0.018427553,0.0059884936,0.009567261,-9.466003,0.70588684,8.273315,36.154175,12.391663,0.18807466,-9.762533,0.9099161,-1.0541693,0.25169754,1.0607054,-0.18383789,0.60292053,-0.0811615
2019-07-01T19:35:00.206Z,-0.66164404,-0.0047652465,-0.029848836,2.5507507,-11.126633,0.26081848,4.411316,35.73456,14.804077,0.45737174,-9.7197075,1.2200346,0.77770716,-0.3929882,-0.90828896,0.18353271,0.53004456,-0.12411499
2019-07-01T19:35:00.399Z,-0.6754005,-0.028010005,-0.028817743,1.0049896,-9.580856,0.119644165,2.3590088,36.618042,14.76593,0.7862744,-9.738544,0.8443448,0.53226674,0.08971596,-0.49897748,-0.052749634,0.1088562,-0.21157837
2019-07-01T19:35:00.605Z,-0.6909077,-0.029153613,-0.018713782,1.1964111,-9.47319,0.55752563,1.4663696,36.33423,15.348816,0.666493,-9.7746315,0.42750382,0.40632504,0.14689732,-0.13910818,-0.15316772,-0.13928223,-0.02154541
2019-07-01T19:35:00.812Z,-0.68228054,-0.0603556,-0.0069012754,1.1318054,-9.647858,0.55513,1.2741089,35.28595,17.332458,0.9548031,-9.741283,0.60507965,0.5737225,1.8119812e-05,-0.14330924,-0.11462402,-0.068359375,0.011932373
2019-07-01T19:35:01.030Z,-0.6749799,-0.10404651,0.034649,0.82073975,-9.559326,1.179657,3.378296,36.106873,14.241028,1.0302712,-9.730121,0.65854496,0.09126532,0.0697031,0.006131172,0.16809082,-0.4519806,-0.101623535
2019-07-01T19:35:01.215Z,-0.6515185,-0.14166622,0.07345649,1.7348022,-9.604797,1.2131653,5.305481,37.30316,17.501831,1.1220729,-9.681342,1.0876411,-0.053185105,-0.028776169,0.0072268248,0.13406372,-0.60824585,0.02041626
2019-07-01T19:35:01.418Z,-0.62303,-0.19076508,0.12678088,1.5266266,-9.475586,2.2612152,7.2769165,37.48169,11.341858,1.2491075,-9.613568,1.479672,0.16201961,0.12462807,0.13334107,0.30607605,-0.6028595,-0.0027923584
2019-07-01T19:35:01.622Z,-0.6030015,-0.23387289,0.19055519,1.4045868,-9.365509,2.0291138,10.551453,37.886047,6.2301636,1.1338435,-9.608202,1.6022626,0.43449152,0.4230919,0.7054579,0.25585938,-0.7566223,0.07649231
2019-07-01T19:35:01.826Z,-0.60895514,-0.25602534,0.24534853,0.14356995,-11.265411,0.74417114,12.260437,36.924744,3.6239624,0.63254213,-9.706341,1.2478889,0.9888961,-0.5446472,0.4718138,0.0415802,-0.68618774,0.32670593
2019-07-01T19:35:02.025Z,-0.6108465,-0.26853672,0.26962164,0.059814453,-9.829712,-0.7010956,14.489746,36.190796,4.6676636,0.42656595,-9.738334,1.0739174,-0.61358404,0.20829582,-0.14957237,-0.23979187,-0.38111877,0.16384888
2019-07-01T19:35:02.228Z,-0.61364955,-0.26161566,0.28146672,0.6006012,-9.3703,1.4715881,16.445923,35.009766,4.196167,0.15160926,-9.745978,1.078565,-0.56521523,0.043870926,0.1419679,-0.08114624,-0.3438568,0.17893982
2019-07-01T19:35:02.434Z,-0.63329476,-0.2636866,0.29952878,-0.14596558,-9.284149,1.409378,18.605042,34.64203,4.483032,-0.29109722,-9.785345,0.57677025,0.41272718,0.26591682,0.62380177,0.07725525,-0.010574341,0.22927856
2019-07-01T19:35:02.658Z,-0.67073095,-0.2284759,0.2469526,-0.6149597,-10.19342,2.6057892,18.966675,33.491516,5.821228,-0.2866301,-9.802375,-0.040819325,-0.15912107,0.47274017,1.995292,-0.41766357,-0.0044555664,0.1875
2019-07-01T19:35:02.838Z,-0.6176191,-0.20982075,0.22955482,-3.3332062,-7.755142,-0.38285828,15.782166,33.465576,10.174561,0.19205232,-9.695214,1.46162,0.005527526,-1.1901455,0.14038265,-0.20515442,0.87701416,-0.110305786
2019-07-01T19:35:03.035Z,-0.5586142,-0.29460567,0.3020238,-1.0743713,-8.3485565,2.4526367,14.335632,34.95941,2.0080566,0.81715345,-9.569026,1.9840356,0.37584317,-0.36636066,-1.6383884,1.2881775,-0.41526794,-0.20791626
2019-07-01T19:35:03.247Z,-0.53062296,-0.33455062,0.36354014,0.727417,-8.609375,2.3234253,15.252686,34.539795,-1.4389038,0.73576266,-9.553253,2.089114,-1.1995854,0.55498886,-0.31187153,0.027526855,-1.237381,-0.09075928
2019-07-01T19:35:03.437Z,-0.5533102,-0.29501417,0.34807953,2.416748,-9.817749,4.924423,17.453003,33.755493,-3.9535522,0.25490105,-9.576872,2.0949836,1.1869624,0.53477764,0.6589153,-0.06770325,-0.57385254,0.38223267
2019-07-01T19:35:03.638Z,-0.56027085,-0.3328785,0.35983178,-1.3734741,-11.172089,-0.55274963,17.5354,32.167053,-5.1879883,0.40513808,-9.686369,1.4766556,-0.5418359,-0.9152937,0.22647762,0.042373657,-0.6826477,0.22773743
2019-07-01T19:35:03.842Z,-0.6006778,-0.2834919,0.32432023,0.026321411,-9.690933,0.94755554,17.848206,31.590271,-3.277588,-0.075967506,-9.738263,1.1536257,-1.1676927,0.13255501,-0.7077776,-0.37834167,0.072021484,0.0073394775
2019-07-01T19:35:04.058Z,-0.6460436,-0.24656844,0.29410088,0.1651001,-9.4205475,1.105484,19.883728,30.56488,5.6396484,-0.53575844,-9.782638,0.42819107,0.9669454,0.20389175,0.1593926,-0.17332458,0.9916229,0.12670898
2019-07-01T19:35:04.277Z,-0.67695284,-0.20997038,0.2435814,0.7776642,-10.609772,2.7589264,17.689514,31.948853,5.6365967,-0.5076197,-9.793395,-0.046143986,0.55453855,-0.18305397,1.842149,-0.4229889,0.41360474,0.17790222
2019-07-01T19:35:04.560Z,-0.5535547,-0.29918072,0.30328885,-0.31106567,-8.930008,0.7082825,15.04364,33.509827,-2.0935059,0.90626955,-9.548973,2.0411186,-0.7434,0.22458458,-1.0210686,0.7919159,-0.7147217,-0.33668518
2019-07-01T19:35:04.707Z,-0.54682237,-0.3332553,0.37108445,3.0628204,-11.01416,1.3088684,15.79895,32.699585,-3.9505005,0.41557777,-9.637783,1.7637501,1.3876841,0.35747147,-0.18440998,0.016220093,-0.85894775,0.0716095
2019-07-01T19:35:04.909Z,-0.53592503,-0.40301993,0.41880372,-2.3330078,-9.255432,2.5339966,16.461182,31.89392,-7.0877075,0.4381339,-9.746941,0.9877115,-0.40206546,-0.7289171,0.18461627,-0.18353271,-0.8970032,0.35469055
2019-07-01T19:35:05.114Z,-0.55486864,-0.37957793,0.42007276,-0.28953552,-9.291336,0.8111725,18.695068,31.382751,-6.903076,-0.033429746,-9.761221,0.94224936,-1.9739734,0.26966858,0.32277477,-0.25120544,-0.75112915,0.15280151
2019-07-01T19:35:05.318Z,-0.5645829,-0.39169502,0.42933062,-1.1940155,-9.631119,0.22253418,18.774414,31.08368,-4.9301147,-0.25155774,-9.788225,0.5456649,-0.30388469,0.17611694,-0.119784236,-0.13581848,0.3209381,0.14533997
2019-07-01T19:35:05.522Z,-0.5553117,-0.4210396,0.43722177,-1.6462555,-10.755737,1.8448639,18.107605,30.83191,-6.538391,-0.067342624,-9.802376,0.28154117,-0.36934397,0.15962696,0.54725254,-0.14497375,-0.34196472,0.07423401
2019-07-01T19:35:05.726Z,-0.56005377,-0.41956028,0.40818477,-0.87098694,-10.167099,1.2131653,17.24701,31.054688,-4.873657,0.34055796,-9.79865,0.20219254,-0.6088977,-0.40457535,2.0078247,-0.21388245,-0.1907196,-0.1902008
2019-07-01T19:35:05.930Z,-0.5465755,-0.45139986,0.39433944,2.3353882,-9.023331,-1.6007996,13.360596,32.322693,-4.4555664,0.9501051,-9.760393,-0.04916312,0.5643538,0.1804409,-0.31740043,-0.012786865,0.20951843,-0.30651855
2019-07-01T19:35:06.131Z,-0.51491845,-0.49269795,0.43570003,1.9118652,-9.710068,-1.2418823,14.620972,32.06024,-6.8252563,0.9126511,-9.762863,-0.15479434,0.091144085,0.36927032,-1.2660205,-0.13899231,-0.5018921,-0.1525116
2019-07-01T19:35:06.334Z,-0.4695319,-0.5225625,0.47876537,2.8426666,-9.817749,-1.105484,12.574768,31.799316,-9.587097,0.9876908,-9.7559595,0.12686408,0.7372677,0.100245476,-1.0126115,0.146698,-0.63072205,0.027877808
2019-07-01T19:35:06.535Z,-0.43584704,-0.5525062,0.5205475,3.5246277,-9.08316,0.098098755,11.790466,31.045532,-13.1073,0.78994757,-9.774334,0.09363823,1.2168674,-0.17739582,-0.33647048,0.20425415,-0.83358765,-0.0013885498
2019-07-01T19:35:06.731Z,-0.43355396,-0.5608459,0.5439697,-1.4667969,-8.396408,1.5218353,11.782837,29.153442,-13.795471,0.31315356,-9.801524,-0.049369387,-0.20996308,0.16953373,0.9327421,-0.045776367,-0.63597107,0.31021118
2019-07-01T19:35:06.931Z,-0.43353328,-0.5439775,0.57829756,-1.9812622,-10.29631,0.82073975,12.487793,28.691101,-13.768005,-0.36927703,-9.794582,0.31650743,-0.16583338,0.2517891,0.5606637,0.12739563,-0.05834961,0.23532104
2019-07-01T19:35:07.169Z,-0.4283112,-0.5418324,0.59052855,0.62213135,-9.944565,0.3756714,13.644409,27.9068,-15.408325,-0.5247713,-9.782233,0.45046213,-0.6793781,-0.012633324,-0.27454793,0.11383057,-0.34080505,0.2516327
2019-07-01T19:35:07.368Z,-0.3997458,-0.5774517,0.61957955,-0.086135864,-10.248459,0.7513428,11.769104,27.42157,-15.884399,-0.88765806,-9.765496,0.13244493,1.0881202,-0.20051289,1.0929804,-0.118774414,-0.32247925,0.057434082
2019-07-01T19:35:07.573Z,-0.37812084,-0.61288124,0.6301593,-0.18424988,-11.60759,0.29431152,12.023926,26.062012,-16.926575,-1.1832519,-9.728167,-0.3647828,0.6537347,-0.613266,1.519469,-0.3221283,-0.82662964,0.29855347
2019-07-01T19:35:07.771Z,-0.3160551,-0.60572296,0.66175807,-0.06700134,-13.411774,-2.778061,9.507751,25.682068,-17.655945,-0.43493813,-9.775325,0.651336,-0.9579082,0.2579193,-0.18953365,-0.11798096,-0.1473999,-0.09362793
2019-07-01T19:35:07.974Z,-0.21798235,-0.62881356,0.7032017,-0.71784973,-10.159927,0.093322754,4.119873,24.16687,-19.026184,0.07892636,-9.742225,1.119472,-0.7551859,0.039658546,-1.0124199,0.51524353,-0.7405548,-0.31610107
2019-07-01T19:35:08.196Z,-0.1941496,-0.6401818,0.7097332,3.929016,-9.485153,1.8951111,-1.2878418,22.29309,-21.150208,0.06976084,-9.752247,1.0291729,0.5674093,0.62328434,0.52728915,0.2215271,-0.86920166,-0.15232849
2019-07-01T19:35:08.404Z,-0.15775353,-0.66574746,0.70460755,-1.9286194,-9.320038,0.3517456,-5.493164,21.183777,-17.729187,0.27742514,-9.782744,0.6255491,-1.0028234,-0.6549349,0.2195183,-0.16403198,-0.54525757,0.045532227
2019-07-01T19:35:08.634Z,-0.1944009,-0.64770246,0.71311766,-0.6963043,-9.9015045,1.1533356,-7.8033447,19.256592,-14.329529,-0.37131372,-9.763783,0.83728856,-0.42510262,0.055028915,-0.05040413,0.10632324,0.20652771,0.084991455
2019-07-01T19:35:08.823Z,-0.23346823,-0.66042954,0.682938,-0.29193115,-9.286545,2.3856506,-5.7922363,19.013977,-12.799072,-0.4436619,-9.794901,0.18290174,0.5326177,0.28254223,1.4999497,-0.105392456,0.42796326,0.040878296
2019-07-01T19:35:09.040Z,-0.2560786,-0.6523765,0.67582417,0.8494568,-12.567108,-0.03111267,-1.5808105,20.796204,-9.135437,-0.4740552,-9.793654,0.17315981,0.17253762,-0.92928314,1.6595725,-0.39537048,0.27867126,0.008453369
2019-07-01T19:35:09.240Z,-0.1849623,-0.6098479,0.73566306,-1.5457611,-11.265411,-1.1198425,5.090332,20.581055,-8.772278,0.07640686,-9.631956,1.8411885,0.4385281,-0.4004383,-2.3192675,0.49093628,-0.05088806,-0.09448242
2019-07-01T19:35:09.437Z,-0.1738213,-0.6140102,0.7344552,0.7992096,-8.8701935,1.2179413,8.720398,21.812439,-14.2578125,0.27776304,-9.632342,1.8196759,-1.0918285,0.75398445,-1.1040727,0.4473114,-0.44618225,-0.15440369
2019-07-01T19:35:09.643Z,-0.19492939,-0.60651034,0.730518,2.165512,-13.514664,0.7346039,8.938599,22.0047,-18.457031,0.13281192,-9.630317,1.8465474,1.9844527,0.49213028,0.84762394,0.036331177,0.3447113,-0.021362305
2019-07-01T19:35:09.837Z,-0.21481387,-0.6252654,0.6963437,-0.34695435,-10.851456,1.2897339,11.097717,23.532104,-18.309021,0.4912515,-9.716336,1.2336398,-2.1205935,-1.3950329,-1.5178758,-0.17082214,-0.025238037,-0.23321533
2019-07-01T19:35:10.048Z,-0.31798995,-0.57622254,0.65000397,0.39720154,-9.994827,0.7298126,14.103699,27.659607,-17.289734,0.23983082,-9.715645,1.3111486,-0.96711415,0.09120941,0.029037833,-0.093185425,1.152832,-0.0789032
2019-07-01T19:35:10.257Z,-0.39337006,-0.54229367,0.57546526,-2.8450623,-10.155136,1.421341,15.9713745,30.197144,-8.921814,0.54912233,-9.739677,1.0037615,-1.2804031,0.21598816,0.50992346,-0.17485046,1.5066376,-0.15177917
2019-07-01T19:35:10.456Z,-0.43007532,-0.47866628,0.5365055,1.5768738,-11.078766,0.20100403,13.601685,30.975342,-7.305908,0.6000945,-9.64214,1.6850537,0.49352938,-0.38969803,-1.200878,0.04017639,1.3550262,-0.2992401
2019-07-01T19:35:10.664Z,-0.48574275,-0.4545042,0.47688615,2.3784637,-9.702896,0.8374939,14.466858,31.5094,-2.8549194,0.5780494,-9.724468,1.127371,1.3177514,0.10539055,-0.38078058,0.08592224,1.0642548,-0.21090698
2019-07-01T19:35:10.860Z,-0.5165824,-0.43970197,0.44350782,1.7443695,-9.717255,0.51924133,13.726807,30.711365,-0.19226074,0.55795956,-9.759589,0.7807028,1.0895336,0.05955124,0.011467397,-0.3334961,0.76138306,-0.04786682
2019-07-01T19:35:11.066Z,-0.53946763,-0.42068806,0.41662535,1.5744781,-9.726822,0.29193115,13.757324,30.986023,2.0507812,0.53156495,-9.772104,0.62755203,0.79142845,0.3295002,-0.02596581,-0.1662445,0.3981018,-0.015365601
2019-07-01T19:35:11.273Z,-0.5647584,-0.3993704,0.40710238,0.3062744,-10.415955,-0.5431671,13.796997,31.558228,3.9794922,0.16302896,-9.796181,0.42269063,1.0759785,-0.13371849,-0.440199,-0.07485962,0.42643738,0.0796051
2019-07-01T19:35:11.488Z,-0.38959554,-0.5796695,0.60097826,-0.46899414,-9.827316,0.5766754,14.074707,28.353882,5.882263,-0.17394212,-9.802188,0.23925546,0.15152864,-0.04768181,-0.09716058,-0.11791992,0.23603821,0.2295227
2019-07-01T19:35:11.672Z,-0.38734,-0.5774471,0.610082,-0.5431671,-9.451645,1.4979095,15.155029,27.104187,6.867981,-0.33221248,-9.795662,0.32406127,-0.087325245,0.11199856,0.5240413,-0.030258179,-0.042099,0.13606262
2019-07-01T19:35:11.892Z,-0.38350385,-0.5716075,0.6204453,-0.5790558,-9.784256,0.830307,16.104126,27.340698,3.479004,-0.45354265,-9.7826805,0.5136658,-0.16399348,0.012309074,0.42720574,0.050064087,-0.11428833,0.06262207
2019-07-01T19:35:12.086Z,-0.38085732,-0.5683273,0.6276413,-0.5048828,-9.870392,0.55274963,16.307068,28.37677,3.0792236,-0.5472826,-9.771292,0.6266797,-0.082365155,-0.013510704,0.064949214,0.07119751,-0.06829834,0.06060791
2019-07-01T19:35:12.286Z,-0.37994313,-0.56889313,0.63140726,-0.6795654,-9.774673,0.6771698,16.122437,27.931213,2.6931763,-0.63099974,-9.766177,0.6277007,0.015510738,-0.01790905,-0.044748962,0.030151367,-0.056137085,0.04508972
2019-07-01T19:35:12.488Z,-0.3780508,-0.567471,0.6377618,-0.6628113,-9.542572,1.2945099,17.538452,26.998901,3.4988403,-0.7420255,-9.754337,0.6875292,0.16340333,0.016278267,0.11306512,-0.0113220215,-0.033294678,0.04472351
2019-07-01T19:35:12.688Z,-0.3707176,-0.55996394,0.6500829,-0.46420288,-9.408585,1.351944,16.694641,28.190613,2.192688,-0.8220642,-9.724744,0.9612253,0.15931916,0.07608223,0.63530266,0.06588745,-0.15791321,0.07417297
2019-07-01T19:35:12.894Z,-0.3681128,-0.5822615,0.64236563,-0.5312042,-9.724426,1.7371826,18.341064,27.207947,2.3025513,-0.80178255,-9.76105,0.4994436,0.37410676,0.3256426,1.2079992,0.0178833,-0.1453247,0.05883789
2019-07-01T19:35:13.133Z,-0.37599048,-0.61809796,0.6068662,0.8446655,-10.186249,3.7160492,18.066406,29.951477,3.175354,-0.48575702,-9.783841,-0.45922443,-0.4066516,-0.6301031,3.0477972,-0.47135925,-0.29499817,-0.032226562
2019-07-01T19:35:13.291Z,-0.25136912,-0.59504825,0.6937728,2.617752,-11.885147,-1.9836426,17.150879,32.96051,-7.1228027,0.29616183,-9.666941,1.62263,-0.07629144,-0.55179596,-0.92008936,-0.11932373,-0.15736389,-0.33491516
2019-07-01T19:35:13.506Z,-0.11053308,-0.62905395,0.7402142,-0.75613403,-9.169296,1.3686981,13.380432,33.000183,-16.325378,0.98787725,-9.588187,1.8058671,-0.8497097,0.2568817,-0.87313116,0.89453125,-1.6353607,-0.20187378
2019-07-01T19:35:13.703Z,-0.04982855,-0.6351725,0.7609497,2.079361,-9.686142,3.3260193,13.038635,33.30078,-20.327759,0.78354204,-9.599589,1.8450825,-0.794562,0.7887964,-0.06489754,0.34059143,-1.5841064,0.044128418
2019-07-01T19:35:13.905Z,-0.018252144,-0.6619594,0.7435099,-1.0193481,-5.1349945,2.3593292,11.987305,33.309937,-21.261597,0.94271463,-9.686476,1.205759,-0.7175525,-2.172038,0.83191586,0.101501465,-0.76908875,0.31027222
2019-07-01T19:35:14.192Z,-0.098034106,-0.66308653,0.73904616,0.18902588,-8.815155,1.5888367,14.324951,31.49414,-20.899963,-0.547006,-9.7407465,0.99450403,0.86478025,0.6140318,0.26372737,-0.018966675,0.33822632,0.20869446
2019-07-01T19:35:14.347Z,-0.1839754,-0.67930603,0.69361204,3.5246277,-13.794617,2.8402863,17.962646,33.244324,-17.973328,-0.45607498,-9.795606,0.09211201,-0.87347335,-0.43920135,2.8469148,-0.20222473,0.5386505,0.20654297
2019-07-01T19:35:14.561Z,-0.1069868,-0.61862034,0.7690617,0.65563965,-14.567505,-3.0341034,20.005798,33.050537,-13.113403,-0.1574414,-9.583032,2.076317,0.8441633,-1.6839952,-1.496733,-0.14920044,0.72283936,-0.0756073
2019-07-01T19:35:14.773Z,-0.0580298,-0.60820156,0.7790578,0.14356995,-6.9511566,0.8063812,17.271423,30.967712,-21.731567,0.7915219,-9.453377,2.4854634,-0.49683225,0.99496937,-2.495055,1.0435791,-0.7686615,-0.2687683
2019-07-01T19:35:14.975Z,-0.039572183,-0.5960459,0.79251844,3.7519531,-12.6388855,1.7180481,14.485168,30.291748,-24.473572,0.82038283,-9.360184,2.8079047,1.7726885,0.9942789,0.07172704,0.19398499,-0.08656311,-0.3212433
2019-07-01T19:35:15.175Z,-0.0039182175,-0.622516,0.77313685,-2.9647064,-9.468399,-0.18902588,12.121582,29.93164,-26.185608,1.4218236,-9.44901,2.2056832,-2.033732,-2.9930525,-1.2650266,0.11677551,-0.5887604,-0.054779053
2019-07-01T19:35:15.381Z,-0.3800605,-0.5357352,0.6001108,-0.4139557,-9.049652,1.1006927,12.962341,30.33142,-23.646545,0.32351,-9.708682,1.3443321,-1.8077426,0.6810503,-0.7723321,-0.48492432,0.32221985,0.037399292
2019-07-01T19:35:15.578Z,-0.43671554,-0.5213573,0.55408406,1.5194397,-8.087738,0.0023956299,16.94336,31.858826,-17.155457,0.1628951,-9.777723,0.734834,1.1695541,0.61544704,0.8813236,-0.4698944,1.0032806,0.31950378
2019-07-01T19:35:15.783Z,-0.37919736,-0.48993215,0.59332716,3.3834534,-11.047668,-2.4335022,17.604065,30.291748,-16.595459,0.5258272,-9.523755,2.2785916,-0.2013542,-1.3203182,-2.4305863,0.151474,0.4680481,-0.19361877
2019-07-01T19:35:15.985Z,-0.33048415,-0.5742166,0.62046176,0.32063293,-9.135803,0.7776642,15.484619,30.401611,-20.713806,0.7041418,-9.707757,1.1975007,0.419783,0.56343937,-0.55322385,0.33332825,-0.6670685,-0.047332764
2019-07-01T19:35:16.189Z,-0.30173874,-0.626871,0.65073186,-1.1102753,-10.19104,-0.48095703,11.611938,30.525208,-22.798157,-0.11101293,-9.801007,0.31354788,-0.22401157,-0.27182293,-0.3665152,-0.3136444,-1.3277283,0.36372375
2019-07-01T19:35:16.386Z,-0.27364665,-0.6322481,0.6790519,-0.9020996,-10.057037,0.64367676,11.380005,31.033325,-24.345398,-0.50087917,-9.781193,0.49778226,-0.621811,0.21390152,1.0618539,-0.41088867,-1.0313873,0.44467163
2019-07-01T19:35:16.589Z,-0.25360423,-0.63417244,0.6940163,-1.0001984,-9.734009,0.9451599,9.3688965,29.67987,-26.727295,-0.6197492,-9.764954,0.6572453,-0.10312754,-0.05176258,0.4234581,0.1889801,-0.39364624,0.13771057
2019-07-01T19:35:16.789Z,-0.20851065,-0.6476999,0.7115027,-0.8877411,-9.722046,0.9571228,8.232117,29.84314,-29.441833,-0.6812977,-9.755991,0.725852,-0.15403444,0.022388458,0.19089657,-0.006439209,-0.45619202,0.033065796
2019-07-01T19:35:16.989Z,-0.12961376,-0.66109514,0.73310494,-1.5744781,-9.71965,1.3351898,3.175354,30.239868,-29.75769,-0.65351677,-9.742889,0.90522194,-0.66850597,0.09959793,0.2428686,0.009262085,-0.9559479,0.090667725
2019-07-01T19:35:17.225Z,-0.041039303,-0.6787039,0.7327096,-2.108078,-9.415756,1.5768738,-3.0914307,30.099487,-27.944946,-0.21011436,-9.776511,0.7389658,-1.7225256,0.30413723,0.74081093,-0.058425903,-1.1805115,-0.0048675537
2019-07-01T19:35:17.427Z,0.006012704,-0.66580075,0.74608743,5.0392914,-13.263412,-1.3926239,-8.491516,29.88739,-28.219604,0.15550718,-9.74221,1.1115489,0.23728932,-0.54058933,-0.22702372,-0.108688354,-0.7929077,-0.26783752
2019-07-01T19:35:17.630Z,-0.1253918,0.67933065,-0.71913123,0.27757263,-9.274582,1.5649109,-15.081787,31.245422,-24.57428,0.7682365,-9.766292,0.44692308,1.9715292,0.4378271,0.31158575,0.067596436,-0.8666382,-0.10597229
2019-07-01T19:35:17.864Z,-0.22161332,0.65585226,-0.69952214,0.7537384,-9.5234375,0.275177,-21.910095,30.529785,-19.081116,0.88025033,-9.756697,0.44991896,0.20976776,-0.096261024,-0.2399385,-0.07925415,-1.6073151,-0.0030975342
2019-07-01T19:35:18.029Z,-0.26095104,0.6348534,-0.69584715,1.701294,-9.889542,0.34457397,-24.531555,30.541992,-15.118408,0.9299726,-9.746025,0.56615084,-0.18758768,-0.02186966,-0.5545656,0.10211182,-0.29829407,-0.05091858
2019-07-01T19:35:18.231Z,-0.23638056,0.6245494,-0.72139627,2.0626068,-9.47319,1.5553284,-24.882507,29.93927,-15.52887,1.0975119,-9.687184,1.0603399,0.5041913,0.06453991,-0.10314441,0.060821533,0.34831238,-0.049697876
2019-07-01T19:35:18.452Z,-0.22818688,0.6087521,-0.7385594,2.0362854,-8.764908,2.170288,-24.435425,29.473877,-17.530823,1.1735493,-9.617251,1.5171212,1.0799978,0.38629436,0.37440932,0.32525635,0.31929016,-0.1234436
2019-07-01T19:35:18.645Z,-0.21585271,0.619629,-0.7246563,2.629715,-9.360718,2.388031,-21.990967,28.779602,-19.66095,0.50881404,-9.698202,1.3624865,1.5803413,0.6540785,0.8255961,0.06137085,-0.102264404,0.16201782
2019-07-01T19:35:18.900Z,-0.21298698,0.631508,-0.71594185,-1.9525452,-8.932404,-0.2416687,-20.4422,30.688477,-17.523193,0.41455472,-9.736493,1.0950929,0.93805325,-0.94389343,-0.07952964,-0.13337708,-0.1938324,0.40795898
2019-07-01T19:35:19.092Z,-0.15371017,0.6440429,-0.7271532,0.51924133,-9.590439,-0.105285645,-17.55371,30.821228,-19.425964,-0.096574835,-9.731506,1.2078242,-1.3873895,0.27792263,-0.28057766,-0.09593201,0.26461792,0.01260376
2019-07-01T19:35:19.296Z,-0.08495491,0.6778208,-0.719972,0.18424988,-9.78186,0.93559265,-13.877869,32.164,-19.984436,-0.4275811,-9.775476,0.6539389,0.14214942,0.04745865,0.0883432,-0.0018005371,0.9512329,0.120651245
2019-07-01T19:35:19.503Z,-0.12084535,0.70716125,-0.6795944,-0.23210144,-10.236496,1.8017883,-9.806824,33.23517,-19.779968,-0.51411474,-9.788931,-0.28793582,0.6447474,0.28979874,1.4310005,-0.3632965,0.8507538,0.10154724
2019-07-01T19:35:19.700Z,-0.08200043,0.7072311,-0.69196314,-0.04307556,-10.609772,0.38763428,-6.454468,34.555054,-20.254517,-0.54511166,-9.790553,-0.13533066,1.6489998,-1.0731363,2.309769,-0.44137573,0.8610077,0.007888794
2019-07-01T19:35:19.910Z,-0.15038311,0.623924,-0.7502275,-1.0791626,-8.709869,2.1607208,-12.14447,30.497742,-25.378418,0.26780283,-9.64949,1.728005,-0.39163578,-0.6463423,-2.5567293,0.8399811,-0.2016449,-0.091674805
2019-07-01T19:35:20.145Z,-0.2189662,0.5787042,-0.76295316,-0.28474426,-8.688339,1.7874451,-14.889526,28.268433,-24.661255,1.1514206,-9.463864,2.297801,-1.4604173,0.85334396,-0.82807016,0.5013733,-0.95155334,-0.3644867
2019-07-01T19:35:20.350Z,-0.24479304,0.5728535,-0.7430028,3.0939178,-10.169495,6.723831,-16.938782,29.605103,-26.495361,0.8183321,-9.522739,2.1950264,1.5709503,0.58937263,0.75013447,0.1729126,-0.5520477,0.047607422
2019-07-01T19:35:20.555Z,-0.29671377,0.5907047,-0.7032509,-1.8376923,-8.231308,0.4091797,-17.726135,30.819702,-20.628357,1.0610616,-9.670384,1.2362056,-1.2485042,-1.6241026,0.012799501,-0.023727417,-0.8462372,0.19140625
2019-07-01T19:35:20.726Z,-0.23051502,0.6234471,-0.70804375,0.6077728,-9.107086,0.5383911,-11.994934,31.65741,-23.031616,0.28564984,-9.735852,1.1410328,-1.7202829,0.6033983,-0.15310466,-0.43434143,0.017471313,0.041809082
2019-07-01T19:35:20.947Z,-0.19670995,0.6837463,-0.6727786,0.13877869,-9.018555,2.2133636,-8.427429,33.851624,-21.67511,-0.12521994,-9.805096,-0.12167618,0.5756188,0.43448734,1.1226561,-0.28700256,1.0062866,0.21992493
2019-07-01T19:35:21.152Z,-0.17065099,0.6793669,-0.69266546,0.7130585,-10.466202,0.047851562,-6.855774,32.025146,-26.263428,0.027719375,-9.804901,0.18316577,0.6722525,-0.961566,2.7601273,-0.63319397,0.47079468,0.06825256
2019-07-01T19:35:21.330Z,-0.24645807,0.5738976,-0.739629,-0.25842285,-8.635696,1.2442627,-8.6502075,28.511047,-30.531311,0.75340927,-9.537116,2.1555016,0.23536068,-0.9716463,-3.0846596,1.1462097,-0.15180969,-0.09509277
2019-07-01T19:35:21.639Z,-0.31712434,0.52483726,-0.72109276,-0.098098755,-8.827118,1.8448639,-10.827637,27.82898,-26.95465,1.1653928,-9.428653,2.4316185,-2.247819,0.77126503,-1.0541773,0.36790466,-1.4767761,-0.23736572
2019-07-01T19:35:21.844Z,-0.34347862,0.5297455,-0.6692916,2.1176453,-11.495117,6.2404785,-9.913635,31.280518,-22.366333,0.438905,-9.592866,1.9886339,1.6133332,0.2933302,0.97210515,0.08036804,-0.8157654,0.46012878
2019-07-01T19:35:22.049Z,-0.3977118,0.52989453,-0.63171834,-1.9549408,-10.609772,1.8520508,-14.002991,34.321594,-17.121887,0.7449869,-9.704754,1.1971391,-1.4436057,-1.0555105,-0.21756732,-0.078704834,-0.77952576,0.20741272
2019-07-01T19:35:22.254Z,-0.34386072,0.5759885,-0.63937706,1.249054,-9.867996,0.20100403,-12.44812,35.012817,-17.875671,0.06716351,-9.757268,0.9806084,-1.0797744,0.3514881,-0.07458049,-0.3896942,-0.01966858,0.05909729
2019-07-01T19:35:22.460Z,-0.3492551,0.6040668,-0.60309434,2.2277222,-9.399002,1.8089752,-12.0529175,36.408997,-15.872192,-0.4482225,-9.793018,0.25740796,1.2663288,0.4360075,1.0881906,-0.31840515,0.60731506,0.26611328
2019-07-01T19:35:22.670Z,-0.35007116,0.52184445,-0.65496415,0.7393799,-13.828125,-5.596817,-15.214539,34.39331,-18.191528,0.20131965,-9.5853195,2.061918,0.0644431,-0.9878597,0.57859945,-0.33764648,-0.122177124,0.0716095
2019-07-01T19:35:22.869Z,-0.45374623,0.41588458,-0.5967669,-1.5385895,-9.221939,1.552948,-22.950745,32.122803,-17.204285,1.111711,-9.449232,2.376237,-1.0414709,-0.7568512,-2.1286204,1.2168884,-1.035675,-0.22764587
2019-07-01T19:35:23.073Z,-0.5959637,0.32400343,-0.38425428,-1.4715881,-10.291534,1.2203369,-24.728394,34.35669,-10.105896,0.51175517,-9.762052,0.7815704,-0.66096354,-0.17250156,0.28214496,-0.28266907,-1.3961487,0.598053
2019-07-01T19:35:23.279Z,-0.60327935,0.3050345,-0.3244523,1.249054,-9.348755,0.5407715,-23.55194,37.345886,-0.10681152,-0.11926825,-9.769576,0.84352815,-1.4490689,-0.047564507,1.1844532,-0.35108948,-1.013855,0.153656
2019-07-01T19:35:23.484Z,-0.39126405,0.5699042,-0.57504576,-0.27757263,-9.664612,1.7180481,-22.949219,37.423706,4.26178,-0.4778373,-9.785388,0.43387815,0.24580353,0.14133453,0.71457374,0.012313843,-0.46481323,0.29727173
2019-07-01T19:35:23.690Z,-0.3865989,0.6250481,-0.5355989,-3.8189392,-12.057434,-2.5579224,-19.644165,37.265015,5.982971,-1.0377096,-9.719753,-0.787354,0.8908341,0.3760233,2.506403,-0.28089905,-0.22283936,0.21980286
2019-07-01T19:35:23.894Z,-0.3341747,0.6030165,-0.61376727,-1.799408,-6.8075867,2.7517395,-18.240356,37.17041,11.418152,-0.5270144,-9.78049,0.4844162,-0.68537676,-1.0703459,-1.501853,-0.41033936,0.8558197,0.2619629
2019-07-01T19:35:24.100Z,-0.337455,0.5454662,-0.6625043,1.9669037,-9.279373,3.5413818,-19.961548,37.239075,6.7474365,0.2458241,-9.64836,1.7375568,0.0010440499,-0.2328167,-1.6208493,1.2462158,0.110809326,-0.4515381
2019-07-01T19:35:24.306Z,-0.41277066,0.49949786,-0.61216044,3.5748749,-8.671585,2.4143524,-22.270203,36.9812,1.2008667,0.51610494,-9.666153,1.5714619,1.2831235,0.5737686,0.23448074,0.11714172,-0.49119568,-0.23022461
2019-07-01T19:35:24.509Z,-0.52386314,0.4080442,-0.4743766,-0.5814514,-10.243668,0.550354,-20.367432,37.365723,5.505371,0.24862699,-9.734805,1.1585056,1.9386171,0.51342773,0.14336205,-0.16777039,-1.5852661,0.26239014
2019-07-01T19:35:24.625Z,-0.616584,0.3052819,-0.30127272,-1.2418823,-9.291336,3.5198364,-10.848999,36.55243,13.331604,-0.30962864,-9.787838,0.5222451,-1.6135539,-0.33408737,2.2414932,-0.38316345,-2.6306,0.57899475
2019-07-01T19:35:24.827Z,-0.6571154,0.19370572,-0.1708344,-1.0265198,-9.030518,2.6081696,3.2287598,36.009216,16.26892,-0.4887058,-9.775967,0.60168624,-0.16564602,0.25508213,1.1494747,0.107559204,-2.0117798,0.43128967
2019-07-01T19:35:25.028Z,-0.6677317,0.1128724,-0.08624411,-1.454834,-9.556931,0.45703125,11.381531,35.331726,13.4552,-0.48818555,-9.760784,0.8118769,-1.4630892,-0.054180145,0.66183203,-0.27912903,-1.5083618,-0.03364563
2019-07-01T19:35:25.234Z,-0.6789141,0.08331208,-0.0811229,-1.5433655,-9.087936,1.7180481,14.880371,34.936523,10.06012,-0.10437573,-9.785819,0.630267,-1.314526,0.10056019,-0.91195744,-0.009124756,-1.1596069,0.06538391
2019-07-01T19:35:25.435Z,-0.6637755,0.071118355,-0.111743435,1.2394867,-9.451645,2.0243225,14.054871,34.97467,7.305908,0.4279942,-9.739155,1.0658709,0.59887254,-0.5614643,1.0118663,0.13119507,0.25308228,-0.27896118
2019-07-01T19:35:25.640Z,-0.6632786,0.059859674,-0.13218333,1.1030884,-9.705292,0.94277954,12.309265,37.260437,7.9177856,0.8576343,-9.70607,1.1077265,-0.09433901,0.5284653,0.5289308,-0.030441284,-0.06414795,-0.3261261
2019-07-01T19:35:25.841Z,-0.6628756,0.06224664,-0.15786688,1.6654053,-9.315262,1.4428711,8.880615,37.602234,9.640503,1.162147,-9.673788,1.1124923,0.5204351,0.011193275,-0.045624375,0.0823822,0.17494202,-0.16003418
2019-07-01T19:35:26.038Z,-0.65835834,0.07050517,-0.15711829,2.120041,-8.831909,1.861618,6.7749023,37.467957,8.792114,1.0155417,-9.678826,1.208048,0.807356,0.69639397,0.33754683,-0.022201538,0.19137573,-0.13204956
2019-07-01T19:35:26.296Z,-0.6572669,0.055618953,-0.088641904,2.6536407,-13.330414,0.653244,9.031677,37.545776,8.868408,0.32851827,-9.718119,1.2730358,1.9520974,-0.21350002,0.4222219,0.022277832,-0.03237915,0.29542542
2019-07-01T19:35:26.447Z,-0.6721119,0.027517326,-0.061046965,-1.4380798,-9.834503,-0.100494385,16.000366,35.78186,4.521179,0.40675417,-9.753804,0.93179613,-0.57715344,-0.19190502,-0.2697109,-0.09269714,-0.5007324,0.16549683
2019-07-01T19:35:26.649Z,-0.6703478,0.039369542,-0.03324501,-0.7393799,-9.793823,1.0576324,17.172241,33.465576,2.9464722,-0.13450435,-9.758355,0.9626968,-1.0415418,-0.021821976,-0.16395473,-0.01449585,-0.3738556,0.21620178
2019-07-01T19:35:26.861Z,-0.6693929,0.051060412,-0.023156935,-0.74417114,-9.762711,1.0743713,18.437195,34.635925,3.8848877,-0.43784636,-9.749024,0.9670529,-0.5174177,0.057286263,0.39085865,0.0066375732,-0.13537598,0.22529602
2019-07-01T19:35:27.046Z,-0.673271,0.067192905,-0.040997583,-0.43788147,-9.693329,0.8925171,18.44635,34.477234,5.6655884,-0.42751795,-9.762318,0.82751065,-0.16164151,0.014099121,0.2874977,-0.032455444,0.085754395,0.098236084
2019-07-01T19:35:27.254Z,-0.6734013,0.07896845,-0.07034396,-0.5144501,-9.851257,0.37327576,16.059875,34.739685,7.6293945,-0.20416322,-9.77262,0.7903116,-0.16405343,0.017859459,-0.07395452,-0.021713257,0.32417297,-0.11048889
2019-07-01T19:35:27.466Z,-0.6744782,-0.088569194,0.10472769,0.047851562,-9.836899,0.5862427,14.569092,35.513306,8.149719,-0.12522464,-9.778618,0.73029584,-0.078904465,-0.014885902,-0.27045846,-0.015975952,0.24153137,-0.12489319
2019-07-01T19:35:27.662Z,-0.67179483,-0.11118622,0.12730166,-0.110076904,-9.82254,0.4402771,15.057373,35.464478,9.25293,-0.10460852,-9.780171,0.7125375,0.085626796,-0.039484024,-0.23141557,-0.017562866,0.04977417,-0.021057129
2019-07-01T19:35:27.919Z,-0.67022604,-0.10956469,0.1251447,-0.26081848,-9.923035,0.46180725,15.048218,35.31952,9.072876,-0.0907995,-9.776669,0.76085126,0.055709586,0.0035591125,-0.23020977,0.008651733,0.030593872,0.005645752
2019-07-01T19:35:28.123Z,-0.6678555,-0.109020576,0.12756062,0.093322754,-9.853638,0.653244,15.472412,35.861206,8.486938,-0.12038844,-9.7711115,0.82539666,0.18542355,-0.0029363632,-0.05211079,0.041931152,0.04232788,-0.020507812
2019-07-01T19:35:28.325Z,-0.66958135,-0.11155193,0.13251306,0.035888672,-9.779465,0.74894714,15.55481,35.94055,8.349609,-0.16002396,-9.775129,0.7691747,0.15961343,0.020458221,-0.0022907853,0.0048675537,-0.03652954,0.034469604
2019-07-01T19:35:28.524Z,-0.6679034,-0.11554717,0.13662577,-0.13639832,-9.755539,0.7513428,15.518188,34.909058,9.573364,-0.15258168,-9.7731495,0.7953949,0.108827695,0.010671616,-0.04911554,-0.005340576,-0.035247803,0.011993408
2019-07-01T19:35:28.734Z,-0.66789424,-0.11794225,0.13832374,-0.16270447,-9.84407,0.7154541,15.690613,35.44159,7.940674,-0.14248803,-9.774169,0.78466725,0.011341378,-0.0014696121,-0.045671284,0.013656616,-0.037384033,0.0010528564
2019-07-01T19:35:28.959Z,-0.67001104,-0.11516414,0.13657682,-0.22013855,-9.805786,0.68434143,15.446472,35.2005,8.882141,-0.16726819,-9.7771225,0.7418228,-0.034345075,-0.008103371,-0.0504753,-0.001373291,-0.003921509,0.0015411377
2019-07-01T19:35:29.137Z,-0.6710659,-0.114550024,0.13638556,-0.15074158,-9.808182,0.71784973,15.634155,35.56671,10.385132,-0.17816055,-9.778792,0.71684307,0.015134111,-0.0048265457,-0.030755818,-0.005340576,0.03303528,0.004058838
2019-07-01T19:35:29.332Z,-0.6716035,-0.11903492,0.14339173,0.026321411,-9.621536,0.6699829,15.711975,33.981323,8.624268,-0.21464053,-9.780542,0.68213856,0.0867493,-0.028381348,0.025104523,-0.0067443848,0.01159668,0.009735107
2019-07-01T19:35:29.539Z,-0.67152244,-0.120733045,0.14527126,-0.25125122,-9.750748,0.5862427,15.77301,35.446167,8.239746,-0.21667293,-9.780904,0.6762897,3.325939e-05,0.0839138,-0.005836189,-0.03778076,-0.055526733,0.050720215
2019-07-01T19:35:29.744Z,-0.67089254,-0.1210349,0.14423272,-0.279953,-9.937393,0.64367676,15.075684,35.980225,8.679199,-0.19519374,-9.780295,0.6914422,-0.07607125,-0.048838615,-0.09572995,0.030090332,-0.0016021729,-0.025390625
2019-07-01T19:35:29.945Z,-0.67120194,-0.123378,0.1480921,-0.2033844,-9.7986145,0.6628113,15.98053,34.658813,8.21991,-0.21748735,-9.7811775,0.67206526,0.020731702,-0.00053310394,0.014838338,0.009506226,-0.038970947,-0.0023651123
2019-07-01T19:35:30.152Z,-0.6706423,-0.12797885,0.15300792,-0.22013855,-9.800995,0.67237854,16.273499,33.944702,8.668518,-0.21924146,-9.781681,0.66411215,0.02822055,0.0015478134,0.02235037,-0.012420654,-0.035186768,0.012664795
2019-07-01T19:35:30.349Z,-0.6701119,-0.13049084,0.15578353,-0.24645996,-9.820145,0.6125641,17.063904,35.533142,8.203125,-0.22035441,-9.781573,0.66532654,-0.010451838,0.006465912,-0.00018638372,-0.008392334,-0.057113647,0.008880615
2019-07-01T19:35:30.549Z,-0.6710232,-0.129602,0.15564056,-0.21774292,-9.793823,0.6460571,16.270447,34.176636,7.130432,-0.23538819,-9.782526,0.6458903,-0.039098263,-0.0074853897,-0.034030855,-0.0012512207,-0.035125732,-0.0013885498
2019-07-01T19:35:30.756Z,-0.67132294,-0.12885526,0.15414806,-0.22732544,-9.772293,0.6197357,16.993713,33.770752,9.205627,-0.2266497,-9.783002,0.6417832,-0.01975201,-0.011333466,-0.033093214,0.0042419434,0.0051879883,-0.005783081
2019-07-01T19:35:30.957Z,-0.6718327,-0.12725252,0.15296124,-0.21534729,-9.827316,0.5862427,16.970825,33.48999,7.63855,-0.23482075,-9.783161,0.63640475,-0.015928254,0.004965782,-0.022236288,0.00289917,0.015930176,-0.0062713623
2019-07-01T19:35:31.161Z,-0.67215264,-0.1268854,0.15275238,-0.23928833,-9.827316,0.62213135,17.111206,34.883118,7.5408936,-0.23864035,-9.783495,0.62980115,-0.0008264482,-0.0027856827,-0.01209116,0.00088500977,0.014587402,-0.00065612793
2019-07-01T19:35:31.368Z,-0.6718379,-0.12754077,0.15338409,-0.23928833,-9.7986145,0.6795654,15.322876,34.39789,7.9681396,-0.23674278,-9.783217,0.63482666,0.013458565,0.0057086945,-0.005680144,0.0023498535,0.0017700195,0.003326416
2019-07-01T19:35:31.573Z,-0.6116024,-0.30547836,0.34258816,-0.2416687,-9.836899,0.5862427,16.125488,34.301758,8.293152,-0.24861234,-9.782593,0.6398929,-0.001864776,-0.004696846,-0.0053954124,0.006210327,-0.00032043457,0.0014801025
2019-07-01T19:35:31.772Z,-0.6115168,-0.3053505,0.3424727,-0.25842285,-9.817749,0.6628113,16.763306,34.277344,7.73468,-0.2470519,-9.782397,0.6434789,0.021641806,0.0044765472,0.0048033,-0.002105713,-0.0013580322,0.0093688965
2019-07-01T19:35:31.973Z,-0.6112808,-0.3048946,0.34211063,-0.2536316,-9.82254,0.64367676,16.955566,35.095215,7.0617676,-0.2431127,-9.781757,0.6545949,0.0023681968,0.00036239624,0.0022853613,0.007003784,-0.0036773682,0.00044250488
2019-07-01T19:35:32.183Z,-0.61137354,-0.30439207,0.34195936,-0.275177,-9.824936,0.6460571,16.59851,34.34601,6.6986084,-0.24691026,-9.781409,0.6583763,-0.011246592,-0.0032339096,-0.013328433,0.0039978027,-0.009414673,-0.0005950928
2019-07-01T19:35:32.408Z,-0.610754,-0.30544287,0.343486,-0.279953,-9.815353,0.63409424,15.829468,34.640503,9.355164,-0.2520585,-9.781123,0.660658,-0.004897237,0.00013542175,-0.005076587,0.0026550293,-0.018569946,0.0020446777
2019-07-01T19:35:32.587Z,-0.61116254,-0.30555797,0.34325606,-0.37806702,-9.851257,0.653244,15.545654,35.339355,10.643005,-0.25251198,-9.78186,0.6494882,-0.011395723,0.00046634674,-0.009639323,0.0039367676,-0.016433716,9.1552734e-05
2019-07-01T19:35:32.842Z,-0.6103469,-0.30646574,0.34580377,-0.29670715,-9.7986145,0.6316986,16.601562,34.19037,8.024597,-0.27218252,-9.780755,0.65813243,0.0024296343,-0.002855301,-0.007726133,0.0043029785,-0.010513306,0.006134033
2019-07-01T19:35:33.032Z,-0.6102215,-0.30764148,0.34677756,-0.34457397,-9.78186,0.4402771,16.107178,34.013367,7.7056885,-0.2739847,-9.781449,0.6469723,-0.0021500885,-0.0071907043,-0.03665048,0.0019836426,-0.010818481,0.00289917
2019-07-01T19:35:33.245Z,-0.61303455,-0.30610698,0.34384704,-0.16989136,-9.800995,0.5742798,15.879822,34.440613,7.1990967,-0.2794383,-9.784414,0.5979539,0.005552739,0.004889488,-0.08691841,0.0011291504,0.02015686,-0.0028533936
2019-07-01T19:35:33.439Z,-0.61572045,-0.30158782,0.33654463,-0.07417297,-9.812973,0.52163696,17.771912,35.217285,7.8826904,-0.24599656,-9.78597,0.5870871,0.08460112,0.0075588226,-0.006804049,0.0007019043,0.094558716,0.0027618408
2019-07-01T19:35:33.641Z,-0.6252202,-0.27664927,0.3042946,-1.409378,-9.628723,0.66760254,14.767456,34.274292,9.777832,-0.13237146,-9.784933,0.63870597,-0.4351502,0.04305172,-0.073477566,0.0015563965,0.18423462,-0.027648926
2019-07-01T19:35:33.843Z,-0.6477751,-0.20005883,0.21385156,-1.9669037,-9.643082,1.7180481,8.969116,35.394287,12.886047,0.042633977,-9.77455,0.79166806,-1.6705754,-0.051122665,0.11425239,0.08079529,0.7042084,-0.13076782
2019-07-01T19:35:34.049Z,-0.659447,-0.08633697,0.07021523,-0.6269226,-9.59761,1.2107697,-0.6591797,35.612488,15.213013,0.35079557,-9.73487,1.1312088,-1.5064021,0.08694458,0.11163163,0.13119507,1.561615,-0.31237793
2019-07-01T19:35:34.272Z,-0.6579064,0.004058224,-0.031931173,0.74417114,-9.6263275,1.3758698,-7.849121,37.043762,13.534546,0.3521425,-9.711447,1.3168892,-0.118961394,-0.11491966,-0.7828889,0.095565796,1.7589264,-0.35881042
2019-07-01T19:35:34.456Z,-0.6650339,0.04969972,-0.09319191,1.5744781,-8.085342,2.7278137,-11.743164,35.969543,15.287781,0.494891,-9.734002,1.0838288,1.2871852,-0.50386524,0.52947307,-0.009429932,1.0991974,-0.07493591
2019-07-01T19:35:34.663Z,-0.6718641,0.06765808,-0.12245267,1.1126556,-9.908676,0.5886383,-13.839722,35.90393,15.284729,0.6484351,-9.747024,0.8633975,0.799852,0.4548788,0.46291924,-0.22683716,0.5651703,-0.15940857
2019-07-01T19:35:34.888Z,-0.67285323,0.08951541,-0.15336685,0.9714813,-9.212372,-0.37327576,-13.990784,36.18622,14.970398,0.7631185,-9.746551,0.76993096,0.4963112,0.43043137,-0.40158963,-0.15567017,0.38258362,-0.083969116
2019-07-01T19:35:35.060Z,-0.68445647,0.121578775,-0.14813589,0.7513428,-10.693527,-0.38523865,-13.362122,35.713196,15.527344,0.31130508,-9.796208,0.3282869,0.8058593,-0.03467083,-1.1548328,-0.0105896,0.3765869,-0.001449585
2019-07-01T19:35:35.268Z,-0.7000246,0.13019703,-0.13513096,-0.5288086,-8.599808,2.9623108,-11.8133545,36.029053,16.433716,0.09583307,-9.805224,-0.13701248,-0.5235909,-0.640605,0.98655987,-0.34809875,0.048065186,0.28523254
2019-07-01T19:35:35.484Z,-0.68623203,-0.005468025,0.011493709,0.22013855,-9.59761,0.9403839,-12.792969,36.053467,14.291382,-0.07670003,-9.789777,0.5698788,-0.21355477,0.2593937,0.3688203,0.12594604,-0.025482178,0.053100586
2019-07-01T19:35:35.669Z,-0.6839171,-0.012898461,0.0014394051,-0.36131287,-9.94696,1.0552368,-12.016296,35.523987,13.999939,0.16522785,-9.785036,0.6294116,-0.38605917,0.07855606,0.64640635,0.08421326,-0.08729553,-0.07072449
2019-07-01T19:35:35.877Z,-0.67851126,-0.01077343,0.020878231,0.28953552,-9.810577,-0.086135864,-11.192322,35.865784,14.489746,-0.122702956,-9.775221,0.7748515,-0.05229179,-0.12535763,-0.20695943,0.10626221,-0.058761597,0.059143066
2019-07-01T19:35:36.077Z,-0.676767,-0.0146906795,0.006831663,0.047851562,-9.662216,0.9786682,-11.433411,35.925293,14.285278,0.12139015,-9.771615,0.81926,0.18048707,0.09929752,0.013554692,-0.04888916,-0.024932861,-0.01121521
2019-07-01T19:35:36.282Z,-0.67172986,-0.020641891,0.01022866,0.24406433,-9.789032,1.2299042,-11.886597,36.549377,14.204407,0.1650095,-9.759292,0.94836056,0.028544515,-0.050230026,0.030733883,0.138031,-0.029327393,-0.04623413
2019-07-01T19:35:36.487Z,-0.6714998,-0.035863366,0.026075538,-0.07896423,-9.815353,0.7513428,-11.262512,36.079407,14.686584,0.17686461,-9.760128,0.93755275,0.003947392,-0.029809952,-0.030337632,0.035583496,-0.09689331,-0.0098724365
2019-07-01T19:35:36.684Z,-0.6733795,-0.042125724,0.034844242,0.055038452,-9.815353,0.62213135,-10.9436035,35.798645,15.82489,0.14895825,-9.766095,0.87839097,-0.21431638,-0.06283951,-0.25567102,-0.014312744,-0.19572449,0.0067443848
2019-07-01T19:35:36.897Z,-0.68201405,-0.03679928,0.041361794,-0.44984436,-9.932602,0.30867004,-10.20813,35.990906,15.982056,-0.026944647,-9.784574,0.65709764,-0.14595582,-0.096030235,-0.22006643,-0.051696777,-0.07366943,0.03642273
2019-07-01T19:35:37.094Z,-0.68439543,-0.037603833,0.06920386,-0.38046265,-9.7005005,0.50727844,-7.827759,37.023926,16.247559,-0.3943426,-9.780813,0.5921026,0.16465172,0.02700901,0.022588432,-0.119384766,-0.044906616,0.15805054
2019-07-01T19:35:37.301Z,-0.68146515,-0.059578117,0.10384653,-0.6006012,-9.841675,0.7657013,-5.429077,36.51886,17.330933,-0.544326,-9.771326,0.6287178,0.082605064,-0.0067749023,0.011433125,0.017807007,-0.28814697,0.17178345
2019-07-01T19:35:37.497Z,-0.6853516,-0.087534495,0.12557833,-1.0097656,-9.7986145,0.83987427,-4.396057,36.221313,17.378235,-0.4657344,-9.785523,0.4438671,-0.17942265,0.06277466,0.30521718,-0.06654358,-0.428833,0.07008362
2019-07-01T19:35:37.755Z,-0.67872435,-0.13923758,0.18008877,-0.33499146,-10.231705,-0.088531494,-2.3208618,35.850525,17.294312,-0.4905654,-9.786556,0.39120933,0.1568228,0.17412186,0.21935117,-0.049743652,-0.40090942,0.06011963
2019-07-01T19:35:37.937Z,-0.66440344,-0.19938156,0.20479815,0.088531494,-9.22673,-0.07896423,-0.92315674,36.219788,19.125366,0.03170079,-9.799654,0.3690251,-0.17186789,-0.71719265,-0.70423925,0.008956909,-0.4585266,-0.07060242
2019-07-01T19:35:38.141Z,-0.63329834,-0.27567008,0.2565087,0.7537384,-9.722046,-0.23928833,-0.95825195,35.72235,17.362976,0.46954963,-9.785065,0.44991308,-0.022681773,0.16921425,-0.19293794,-0.014190674,-0.7928467,-0.30271912
2019-07-01T19:35:38.363Z,-0.60263485,-0.36932608,0.33665147,0.77049255,-9.839294,0.5694885,3.8528442,35.53772,16.374207,0.52770835,-9.7924385,0.00842378,0.2974434,0.1906147,0.45480046,-0.040893555,-1.1429443,-0.07548523
2019-07-01T19:35:38.561Z,-0.5383759,-0.46705103,0.42926416,-0.61016846,-9.6957245,0.100494385,8.950806,34.727478,14.338684,0.54899305,-9.790019,-0.1566179,-0.36763304,0.11241341,0.53109574,-0.117248535,-1.5762329,0.0059509277
2019-07-01T19:35:38.768Z,-0.48475727,-0.5121593,0.48861474,-0.3900299,-9.602402,-0.18185425,12.875366,35.092163,10.247803,0.51528436,-9.792959,0.053019308,-1.0991616,0.07304859,-0.26754612,0.113723755,-1.56633,-0.04737854
2019-07-01T19:35:38.967Z,-0.47244492,-0.5038551,0.5105827,0.31106567,-9.544968,-0.1531372,14.630127,35.38513,6.3095093,0.32939467,-9.790797,0.44965136,-0.45539257,0.19372368,-0.45542383,0.17462158,-0.5701904,-0.0005950928
2019-07-01T19:35:39.178Z,-0.49722028,-0.47088096,0.5014092,0.18185425,-10.408783,0.057434082,15.821838,35.482788,3.9413452,-0.0060370187,-9.787729,0.6088582,0.29366228,-0.2057581,-0.5471752,0.21340942,0.13731384,0.16098022
2019-07-01T19:35:39.373Z,-0.6835759,-0.04734755,0.05829741,-0.009567261,-9.939789,0.5766754,16.999817,36.042786,7.4050903,-0.10740514,-9.78782,0.5978556,-0.37643716,-0.021402359,-0.18109226,0.0043182373,0.67915344,0.055358887
2019-07-01T19:35:39.577Z,-0.6828647,-0.032679874,0.04586311,-0.20817566,-9.899109,1.7491608,15.045166,35.325623,8.395386,-0.14739846,-9.784638,0.63993794,-0.38435268,-0.07475662,0.7772084,-0.00039672852,0.61538696,-0.02532959
2019-07-01T19:35:39.779Z,-0.68269414,-0.0224928,0.03578072,-0.5096741,-9.932602,1.0145569,13.7161255,35.95276,10.0112915,-0.15728332,-9.783452,0.6555309,0.41879043,0.025409698,0.539516,0.09631348,0.57788086,0.04008484
2019-07-01T19:35:39.977Z,-0.68457973,-0.042007696,0.06387708,-0.31825256,-9.961319,0.119644165,14.328003,35.18982,10.20813,-0.26040244,-9.786002,0.5802782,-0.4597617,-0.015140533,0.30687398,-0.096969604,-0.11906433,-0.022583008
2019-07-01T19:35:40.185Z,-0.6863989,-0.0668785,0.088161245,-0.7417755,-10.195816,-0.20578003,14.746094,35.510254,10.180664,-0.24407588,-9.791941,0.4782465,-0.30717856,-0.017086029,-0.035663962,-0.07888794,-0.42358398,0.065200806
2019-07-01T19:35:40.387Z,-0.6904491,-0.06977675,0.09459057,-0.28234863,-9.963715,0.107681274,15.937805,33.633423,8.54187,-0.3041161,-9.7952795,0.36110494,-0.3555259,-0.027972221,-0.2407619,-0.04675293,-0.32589722,0.023605347
2019-07-01T19:35:40.585Z,-0.6924858,-0.055547003,0.07275305,-0.047851562,-9.702896,0.39242554,15.620422,35.195923,10.838318,-0.20850818,-9.798508,0.3408383,-0.090826556,-0.03187275,-0.15849784,-0.0054016113,0.09291077,-0.030151367
2019-07-01T19:35:40.792Z,-0.69149745,-0.038829714,0.046748627,0.16270447,-9.78186,0.38046265,13.705444,35.50415,11.204529,-0.08583221,-9.79817,0.39861152,0.13849656,0.072485924,-0.033497065,0.0066986084,0.31959534,-0.058258057
2019-07-01T19:35:40.992Z,-0.6891077,-0.028647045,0.029246459,0.24406433,-9.810577,0.38285828,13.119507,34.87854,11.857605,0.011223169,-9.795046,0.4767975,0.11150074,0.022405624,-0.11783469,0.036132812,0.27372742,-0.067596436
2019-07-01T19:35:41.197Z,-0.68833196,-0.024985662,0.0206784,0.15553284,-9.755539,0.4665985,11.930847,35.23407,12.0529175,0.07595774,-9.79352,0.5016068,0.07217555,-0.01876831,-0.17074502,0.042251587,0.15289307,-0.05055237
2019-07-01T19:35:41.399Z,-0.68680674,-0.024392202,0.018740281,0.06939697,-9.920639,0.42114258,11.769104,35.37445,11.257935,0.09497533,-9.791126,0.5433184,0.097361304,-0.01631546,-0.12072384,0.020080566,0.07048035,-0.023925781
2019-07-01T19:35:41.603Z,-0.6886718,-0.028514309,0.020834895,0.59103394,-9.96611,0.2632141,11.924744,35.08911,12.173462,0.123603344,-9.793685,0.4887246,0.02390366,-0.079138756,-0.07192078,0.008895874,-0.0069732666,0.0031433105
2019-07-01T19:35:41.805Z,-0.68763536,-0.0013816159,-0.023827065,-1.1772614,-10.04985,-0.2368927,11.3845825,35.482788,12.88147,0.34101492,-9.786237,0.53261364,-0.81719565,0.0409441,-0.588396,-0.0077209473,-0.0021972656,-0.06314087
2019-07-01T19:35:42.007Z,-0.68329483,0.08837716,-0.13088267,-1.3495483,-9.820145,2.5292206,6.4102173,35.50415,14.448547,0.51839995,-9.780362,0.49616978,-1.0753412,-0.027362823,0.3202734,0.009933472,1.0299835,-0.16699219
2019-07-01T19:35:42.212Z,-0.6360624,0.17279397,-0.23721823,0.3900299,-9.848862,1.179657,-0.77056885,36.619568,15.800476,0.5407663,-9.706915,1.2859828,-1.8339202,0.08371258,0.32431853,0.018005371,1.2403564,-0.20675659
2019-07-01T19:35:42.411Z,-0.6111358,0.22578657,-0.30791765,1.9621124,-9.537796,1.306488,-6.655884,38.505554,13.708496,0.62042075,-9.674231,1.4814614,0.71902525,-0.40018368,-0.45900488,-0.12194824,0.87579346,-0.1865387
2019-07-01T19:35:42.608Z,-0.61898917,0.24978358,-0.34605348,1.2514496,-9.434906,0.7465668,-9.660339,37.71515,14.804077,0.9711556,-9.699809,1.0681515,0.6697462,0.16724586,0.019661427,-0.16630554,0.30047607,-0.08476257
2019-07-01T19:35:42.813Z,-0.6199478,0.2541169,-0.35348988,1.3208313,-9.3703,0.6652069,-11.64093,36.56311,14.7994995,1.0446122,-9.699232,1.0020308,0.33195484,0.15402699,-0.5883527,-0.028121948,0.03517151,-0.08207703
2019-07-01T19:35:43.020Z,-0.61960477,0.2612701,-0.34434426,0.7657013,-10.557129,-0.5766754,-10.91156,36.60736,15.382385,0.82728106,-9.726563,0.9380618,0.6353133,0.24524117,-0.751002,-0.011566162,0.055892944,0.016815186
2019-07-01T19:35:43.220Z,-0.6449466,0.26912335,-0.30174616,-1.627121,-9.509079,0.22253418,-11.654663,36.04431,15.826416,0.39385188,-9.796089,0.2278379,0.28375587,-0.02780819,-0.6050853,-0.16966248,-0.12528992,0.24772644
2019-07-01T19:35:43.426Z,-0.6986774,-0.029589731,0.027649995,0.275177,-9.8033905,1.8711853,-8.500671,36.01532,18.10913,0.03564157,-9.804223,0.21524288,-0.77257675,-0.2145977,1.5390424,-0.32017517,-0.48667908,0.22212219
2019-07-01T19:35:43.629Z,-0.6861137,-0.057176918,0.07356352,-0.98583984,-9.690933,1.8376923,-4.232788,36.001587,18.836975,-0.18082684,-9.791735,0.50952864,0.29388356,-0.1512289,0.38738227,0.25868225,-0.38937378,0.14820862
2019-07-01T19:35:43.831Z,-0.672243,-0.09571484,0.13159817,-0.03111267,-9.968506,1.2012024,-1.6311646,35.173035,16.748047,-0.37928674,-9.769524,0.7635066,0.21999443,0.056859016,0.6813614,0.05331421,-0.5528412,0.12243652
2019-07-01T19:35:44.033Z,-0.66825396,-0.14695212,0.19123295,-0.6388855,-9.879959,1.3830566,2.105713,36.157227,15.740967,-0.478051,-9.775062,0.6245219,0.018906713,0.088171005,0.664826,-0.05657959,-0.79878235,0.13856506
2019-07-01T19:35:44.236Z,-0.6723374,-0.18202792,0.21845324,-0.70588684,-9.595215,1.4572296,6.907654,35.829163,14.419556,-0.4406516,-9.792428,0.29083067,-0.10937795,0.13075066,0.9409574,-0.11228943,-0.7230835,0.07417297
2019-07-01T19:35:44.438Z,-0.6770494,-0.18731444,0.22343346,-1.2538452,-10.018753,-0.114852905,8.204651,35.83374,15.65094,-0.48452225,-9.793839,0.12782757,-0.32814133,0.16534328,1.0914837,-0.2884674,-0.30628967,-0.024108887
2019-07-01T19:35:44.640Z,-0.656728,-0.21577838,0.22270642,-0.01914978,-8.918045,0.19381714,9.147644,35.084534,17.120361,0.040665697,-9.796941,0.4343947,-0.22067334,-0.6341114,-0.8769672,0.08854675,-0.09114075,-0.0066986084
2019-07-01T19:35:44.843Z,-0.6052671,-0.27332413,0.26442394,0.5694885,-10.073776,-0.39959717,9.114075,36.253357,16.226196,0.6097666,-9.719154,1.1561182,-0.41619223,0.23269176,-0.9531145,0.26985168,-0.44404602,-0.4098053
2019-07-01T19:35:45.040Z,-0.5856578,-0.33100578,0.31913581,0.06460571,-9.944565,0.69392395,7.45697,37.704468,12.286377,0.6678517,-9.739539,0.9304573,-0.32954532,0.013249397,-0.47215873,0.19404602,-0.8356781,-0.06893921
2019-07-01T19:35:45.241Z,-0.54978484,-0.36303514,0.36209604,1.2801666,-9.492325,1.5026855,12.840271,38.464355,7.3883057,0.7907307,-9.688777,1.2933427,-0.06443238,-0.03728485,-0.27191043,0.09527588,-0.8098297,0.07215881
2019-07-01T19:35:45.450Z,-0.53439116,-0.37610346,0.39316615,1.1126556,-9.243469,1.8017883,13.17749,37.338257,5.255127,0.65060335,-9.679809,1.4312268,0.2962479,0.53912354,0.34751868,0.2104187,-0.48454285,-0.02166748
2019-07-01T19:35:45.715Z,-0.5409812,-0.37552214,0.41666433,0.928421,-10.332214,0.49291992,14.906311,36.434937,5.001831,0.19457026,-9.718047,1.3008032,1.0302036,-0.28617668,0.10614109,0.0118255615,-0.26548767,0.2637329
2019-07-01T19:35:45.912Z,-0.544801,-0.38593045,0.4047446,-2.1296082,-9.387039,1.0887299,15.234375,36.22284,6.9854736,0.40484762,-9.740348,1.0640132,-0.45588037,-0.12581444,0.10518682,-0.113220215,-0.046310425,0.045043945
2019-07-01T19:35:46.114Z,-0.552608,-0.37851855,0.4210007,-0.62213135,-9.94696,0.8757782,17.219543,35.85205,5.847168,-0.02216954,-9.754775,1.0071051,-1.0047296,0.072974205,-0.4765525,-0.03440857,-0.08943176,0.1194458
2019-07-01T19:35:46.317Z,-0.56437254,-0.36659834,0.41636166,-0.45942688,-9.789032,0.95951843,17.591858,35.147095,6.063843,-0.21316068,-9.7607355,0.9235764,-0.53178036,0.020952225,0.18634808,-0.07473755,0.042999268,0.10220337
2019-07-01T19:35:46.516Z,-0.576067,-0.36085984,0.4110284,-0.4402771,-9.485153,0.77049255,18.182373,35.464478,7.6141357,-0.34479013,-9.772316,0.7438733,-0.26514414,0.041543007,0.21325642,-0.093063354,0.10493469,0.057556152
2019-07-01T19:35:46.720Z,-0.5732369,-0.37116724,0.4142093,-0.41156006,-9.647858,0.46420288,17.218018,35.476685,7.507324,-0.27658466,-9.780527,0.65968096,0.087231666,0.024245262,0.07296288,-0.016021729,-0.009841919,0.04925537
2019-07-01T19:35:46.924Z,-0.57139516,-0.38262546,0.4173086,-0.49531555,-9.810577,0.19381714,18.39447,34.825134,7.475281,-0.21827677,-9.789797,0.53162485,-0.27511984,-0.068039894,-0.22911721,-0.049743652,-0.10824585,-0.05709839
2019-07-01T19:35:47.126Z,-0.5733916,-0.38290283,0.41258994,-0.279953,-9.820145,0.34934998,17.399597,35.768127,8.843994,-0.16936414,-9.793303,0.48263428,-0.2137075,0.0069026947,-0.16241077,-0.06489563,-0.08015442,-0.014877319
2019-07-01T19:35:47.347Z,-0.6158304,-0.3129471,0.3341814,-0.052642822,-9.815353,0.41156006,16.76941,36.169434,8.346558,-0.100749984,-9.795916,0.44751725,0.011194751,0.02239132,-0.0054781437,-0.012176514,0.14941406,-0.020935059
2019-07-01T19:35:47.542Z,-0.6180559,-0.3073524,0.32442272,-0.028717041,-9.779465,0.5048828,16.390991,36.499023,9.411621,-0.03392797,-9.795716,0.46172467,0.035497546,0.014377594,-0.04410121,0.014511108,0.13542175,-0.042007446
2019-07-01T19:35:47.750Z,-0.61865574,-0.30357933,0.31767336,0.055038452,-9.82254,0.47138977,15.405273,36.146545,8.848572,0.023339523,-9.794253,0.49238566,-0.00811124,0.0091667175,-0.05500108,0.009567261,0.10920715,-0.03387451
2019-07-01T19:35:47.992Z,-0.6187428,-0.30031353,0.31203768,0.07896423,-9.84407,0.46899414,15.187073,36.717224,8.520508,0.073872015,-9.792096,0.52895284,-0.010512844,0.0073652267,-0.07205665,0.020309448,0.07489014,-0.03413391
2019-07-01T19:35:48.188Z,-0.6194452,-0.2977588,0.30775678,0.06939697,-9.879959,0.47138977,15.979004,36.175537,9.889221,0.103466414,-9.791122,0.5418638,-0.016787112,-0.0067071915,-0.053527832,0.019821167,0.07647705,-0.028869629
2019-07-01T19:35:48.391Z,-0.6219946,-0.29432493,0.30430853,0.090927124,-9.769897,0.550354,14.199829,37.808228,9.840393,0.090121955,-9.792458,0.5196652,-0.01780013,-0.013264656,-0.029148757,0.0129852295,0.0690155,-0.01763916
2019-07-01T19:35:48.595Z,-0.6212672,-0.29426003,0.30451986,0.16270447,-9.824936,0.53359985,13.902283,36.320496,10.986328,0.09461369,-9.791416,0.5381518,0.05652553,0.022182465,0.006712258,-0.0043640137,0.042938232,0.0082092285
2019-07-01T19:35:48.803Z,-0.6201272,-0.2950637,0.30531082,0.13160706,-9.815353,0.5670929,14.758301,35.801697,10.087585,0.1042104,-9.790286,0.5566189,0.028747104,0.008374214,0.007287562,0.007980347,0.0021820068,0.009185791
2019-07-01T19:35:49.001Z,-0.6195529,-0.29557535,0.30642658,0.119644165,-9.836899,0.55274963,14.77356,36.091614,10.525513,0.09951161,-9.789875,0.5646556,-0.0014728755,0.002049446,0.004785478,0.007675171,-0.007949829,0.0001373291
2019-07-01T19:35:49.207Z,-0.6192492,-0.29585063,0.30734086,0.059814453,-9.839294,0.5790558,14.678955,35.868835,9.954834,0.09226289,-9.789703,0.56884134,-0.013554826,0.00511837,-0.004273951,0.0024719238,-0.017715454,0.004119873
2019-07-01T19:35:49.410Z,-0.6191193,-0.29611778,0.308084,0.055038452,-9.812973,0.5024872,14.422607,35.716248,8.80127,0.08547295,-9.7897625,0.5688954,-0.02135583,-0.0031013489,-0.02160269,0.004058838,-0.006668091,-0.0008392334
2019-07-01T19:35:49.613Z,-0.6195998,-0.29551047,0.30811325,0.033493042,-9.820145,0.5240326,15.135193,37.06665,10.105896,0.073248945,-9.790129,0.5642679,-0.033502817,-0.004173279,-0.033771217,0.0055999756,-0.005569458,-0.0015106201
2019-07-01T19:35:49.814Z,-0.61989087,-0.29493365,0.30807036,0.0143585205,-9.846466,0.55752563,14.492798,36.86676,11.5234375,0.064587355,-9.790213,0.5638716,-0.016692393,-0.0042943954,-0.021022737,0.006515503,0.007446289,-0.001449585
2019-07-01T19:35:50.014Z,-0.6199182,-0.29403165,0.3079941,0.033493042,-9.78186,0.57188416,14.884949,36.676025,11.244202,0.05607903,-9.789699,0.5736264,-0.0033629946,0.0015439987,0.006564915,0.0028381348,0.0071411133,0.0019226074
2019-07-01T19:35:50.220Z,-0.6196931,-0.29380783,0.30773324,0.01675415,-9.824936,0.57188416,14.599609,36.090088,9.020996,0.06021233,-9.789199,0.5816794,0.0080258325,-0.0045728683,-0.0009305477,0.0067596436,0.0072021484,-0.00065612793
2019-07-01T19:35:50.420Z,-0.6201045,-0.29269782,0.30746856,0.01675415,-9.810577,0.5814514,14.372253,36.138916,10.400391,0.047911946,-9.789102,0.5844449,-0.016712695,0.0054473877,-0.00927645,0.001739502,-0.01234436,0.00491333
2019-07-01T19:35:50.622Z,-0.62060505,-0.29138935,0.307166,-0.0143585205,-9.796219,0.5312042,14.108276,37.506104,10.388184,0.033070583,-9.788996,0.58725363,-0.027204666,-0.01106739,-0.011195362,0.0050354004,-0.002029419,-0.0016326904
2019-07-01T19:35:50.826Z,-0.62016815,-0.2917626,0.3070558,0.088531494,-9.894318,0.5623169,14.796448,36.753845,9.753418,0.043574005,-9.78857,0.59361684,0.008704677,0.014760971,0.0031980872,-0.00033569336,0.009155273,0.0012359619
2019-07-01T19:35:51.029Z,-0.62073314,-0.2917498,0.30742753,0.050247192,-9.791428,0.63409424,14.559937,36.805725,10.379028,0.03148302,-9.789432,0.5800128,-0.022012495,-0.007332802,-0.01660937,0.004928589,-0.0066070557,-0.0021820068
2019-07-01T19:35:51.232Z,-0.6198075,-0.2931308,0.30890927,-0.026321411,-9.856033,0.5790558,14.476013,36.72943,10.214233,0.03442087,-9.789023,0.5866933,-0.0034237541,-0.0068798065,-0.021081686,0.0039520264,-0.0061798096,-0.0015106201
2019-07-01T19:35:51.435Z,-0.62028366,-0.2917206,0.3072103,0.028717041,-9.779465,0.5934143,15.1901245,36.48529,10.28595,0.039529115,-9.788729,0.59128726,0.00054775923,0.00078487396,-0.008912265,0.006210327,-0.008621216,-0.0016937256
2019-07-01T19:35:51.642Z,-0.6200894,-0.29226032,0.30732408,0.047851562,-9.841675,0.5240326,14.039612,37.48932,11.82251,0.04567824,-9.788789,0.58983165,0.0032235086,-0.0026302338,-0.008233607,0.002532959,0.0071411133,-0.003036499
2019-07-01T19:35:51.869Z,-0.6204459,-0.29239815,0.30673528,0.21057129,-10.04747,0.5312042,15.629578,37.316895,10.136414,0.05177804,-9.7893715,0.57957727,0.0030626692,-0.008217812,0.00037783384,-0.003326416,0.0072021484,-0.0040130615
2019-07-01T19:35:52.043Z,-0.6235483,-0.28313223,0.30439556,-0.22970581,-9.827316,0.6915283,13.729858,35.864258,12.257385,-0.04600335,-9.787647,0.60847497,-0.17975545,0.02997303,0.08174932,-0.008636475,-0.021255493,0.015716553
2019-07-01T19:35:52.243Z,-0.58968294,-0.38764536,0.32895756,0.026321411,-7.104294,1.0671997,13.838196,36.44867,12.600708,0.966501,-9.758827,0.03932639,0.07301146,-0.71412945,-0.033839613,-0.07199097,-0.4152069,0.027877808
2019-07-01T19:35:52.443Z,-0.5262909,-0.41028214,0.40821385,2.6967163,-8.492126,-1.5816498,16.253662,36.845398,10.391235,0.7990428,-9.7150135,1.0725826,-0.35314542,-2.1504002,-0.20124185,-0.057022095,-0.8682251,-0.61946106
2019-07-01T19:35:52.647Z,-0.49021006,-0.25094903,0.47032443,-0.5790558,-11.688934,-0.9188385,15.261841,38.33008,-1.2710571,-1.1279532,-8.9449215,3.8583026,0.9984567,0.6672487,-1.8288703,1.2842102,0.20121765,0.20240784
2019-07-01T19:35:52.846Z,-0.38261932,-0.16353068,0.7100251,6.3433685,-4.051056,5.4269257,27.397156,27.420044,-13.504028,-3.5062582,-6.5404963,6.410806,4.8666735,-1.2643886,-5.968205,1.5360107,0.0143585205,1.7341461
2019-07-01T19:35:53.091Z,-0.3105072,-0.4193724,0.55095166,7.0085754,-17.71167,17.714066,24.891663,25.13733,-22.7005,2.0016155,-8.498065,4.466185,7.14783,1.0460119,11.09495,-0.62542725,-1.8855743,1.6243896
2019-07-01T19:35:53.289Z,0.022031719,-0.29093638,0.26118183,-0.057434082,-6.209381,0.74417114,-4.750061,29.347229,-29.99115,5.363375,-1.0927564,8.136982,-1.785275,-19.294096,1.0698128,-0.009063721,-0.93444824,-4.767273
2019-07-01T19:35:53.493Z,0.14865132,-0.04684746,0.050109867,1.9046936,-0.79441833,11.085953,-6.074524,3.869629,-45.846558,1.0525334,2.8301625,9.330206,-1.7497333,-0.1486845,-5.8283796,2.9344788,1.8845215,-4.3624573
2019-07-01T19:35:53.694Z,0.16539246,-0.15895568,0.101228185,6.250046,2.5818634,13.050461,-4.043579,-1.1703491,-45.97473,3.3464267,2.8246734,8.774567,0.52767587,0.20772815,-3.4195766,0.7287445,1.1979828,-0.70578
2019-07-01T19:35:53.866Z,0.06851288,-0.050026905,0.08673554,-0.4857483,1.1605225,13.249054,-3.0944824,3.501892,-44.97528,1.0904965,1.2487327,9.665499,1.9082589,1.7481248,0.279644,-0.45310974,-0.4753723,0.11224365
2019-07-01T19:35:54.034Z,0.076182455,-0.08031399,0.049184807,0.071777344,3.3547363,9.667007,2.8915405,9.350586,-42.970276,1.6371143,1.4057096,9.566307,-2.4384747,1.4900845,0.91338253,-0.87210083,1.1000519,-0.26374817
2019-07-01T19:35:54.231Z,0.081753165,-0.13193767,0.04037667,0.5647125,2.802002,9.5354,-2.6519775,7.675171,-43.16101,2.618978,1.4782094,9.334143,-1.7751184,1.9673632,-0.53706264,0.1561737,-0.5368347,-0.08451843
2019-07-01T19:35:54.464Z,0.08121956,-0.17054574,-0.0031277817,3.9936218,4.0989075,8.874985,-7.588196,10.850525,-43.899536,3.2797453,1.574759,9.106799,-0.23591232,1.2940667,0.85247517,-0.39646912,-0.45204163,0.072280884
2019-07-01T19:35:54.632Z,0.08480428,-0.09818017,-0.004784864,3.6347046,2.7876434,7.2717896,-2.7648926,9.060669,-44.462585,1.9013822,1.6584296,9.476537,-1.5890844,1.4488729,0.027355194,0.13674927,0.23579407,-0.4135437
2019-07-01T19:35:54.831Z,0.099115565,-0.022354335,-0.039128635,-0.64367676,3.4408722,8.786438,1.1657715,10.786438,-45.32776,0.3597703,1.949582,9.60417,0.4431816,0.8035281,0.24286175,-0.25317383,0.55026245,-0.12466431
2019-07-01T19:35:55.033Z,0.0894233,0.01187578,-0.0024719038,-1.4572296,1.9908295,11.267807,8.6380005,8.732605,-45.373535,-0.23630832,1.7461542,9.647046,-0.76022106,1.316849,-0.027175903,0.36973572,0.8962555,-0.028335571
2019-07-01T19:35:55.264Z,0.08360198,-0.013248056,0.012513195,-0.45703125,2.9766693,8.886948,6.793213,9.054565,-46.289062,0.2794032,1.630446,9.666125,-0.4836808,1.0194738,0.2448988,-0.27526855,-0.23127747,0.27624512
2019-07-01T19:35:55.470Z,0.075336635,0.0015887532,0.11007042,-0.45703125,2.490921,9.217148,7.7529907,10.571289,-45.492554,0.13175786,1.467825,9.695284,-0.5864287,0.97750795,0.043646812,-0.13935852,0.0017700195,0.03630066
2019-07-01T19:35:55.674Z,0.07148505,0.003493253,0.103123285,-0.78723145,2.2899323,9.492325,7.255554,11.688232,-43.43109,0.0766125,1.3980334,9.706184,-0.4905877,1.0059977,0.2190876,0.028076172,0.01373291,-0.04560852
2019-07-01T19:35:55.879Z,0.08021671,0.006218391,0.09845314,-0.5479584,2.486145,9.552155,5.923462,10.574341,-42.84668,0.03392446,1.572553,9.679687,-0.56401974,0.7671044,0.1654253,0.099487305,0.06315613,0.0071105957
2019-07-01T19:35:56.084Z,0.094555624,0.025390092,0.10000054,-0.48812866,2.514862,8.846268,7.537842,9.088135,-44.19861,-0.307627,1.8860955,9.618649,-0.5491278,0.80784357,0.0501976,0.04548645,0.04814148,0.015594482
2019-07-01T19:35:56.289Z,0.0924376,0.0077217678,0.097629264,-0.45942688,2.6943207,9.5234375,6.2957764,10.021973,-43.730164,0.026932748,1.8112769,9.637891,-0.65637046,0.7751957,0.014558792,0.0071258545,-0.0884552,0.05114746
2019-07-01T19:35:56.494Z,0.096898384,0.011064821,0.10167844,-0.43070984,2.5339966,9.466003,6.227112,8.866882,-45.776367,-0.021613345,1.903606,9.620094,-0.45615196,0.8036225,0.06275463,0.03527832,-0.033355713,0.05456543
2019-07-01T19:35:56.699Z,0.10880009,0.0101406565,0.10548309,-0.3397827,2.7852478,9.085556,7.2891235,8.999634,-44.432068,0.028508985,2.1301534,9.572462,-0.47874352,0.5786655,0.052200317,0.09336853,0.018737793,0.062820435
2019-07-01T19:35:56.904Z,0.11152552,0.010409661,0.10442381,-0.47616577,2.8498535,9.377472,5.4977417,8.518982,-44.53125,0.02665527,2.1829038,9.560576,-0.45687512,0.72299695,0.039776802,-0.005218506,-0.042099,-0.0016326904
2019-07-01T19:35:57.109Z,0.11141734,0.008401956,0.099594444,-0.5096741,2.8091736,9.375076,6.915283,7.962036,-45.458984,0.05470624,2.1770566,9.5617895,-0.45097,0.7130375,0.12380409,-0.031417847,-0.031707764,-0.018859863
2019-07-01T19:35:57.315Z,0.12214564,0.013257313,0.08617273,-0.29431152,2.8091736,9.236298,5.9768677,8.401489,-44.351196,-0.05063282,2.3909557,9.510582,-0.34564716,0.42791867,0.031716347,-0.0058898926,-0.017288208,0.03337097
2019-07-01T19:35:57.520Z,0.12876607,0.016621543,0.0823965,-0.21296692,2.8330994,9.542572,5.9051514,8.465576,-43.730164,-0.11403125,2.522351,9.476029,-0.15237355,0.3020842,0.04648781,0.013473511,-0.03390503,0.027572632
2019-07-01T19:35:57.724Z,0.13269904,0.014501218,0.08011014,-0.093322754,2.7397766,9.224335,6.1584473,9.005737,-45.140076,-0.07244896,2.5937169,9.457154,-0.08741003,0.20056415,0.007390976,-0.032836914,0.033706665,0.0023498535
2019-07-01T19:35:57.929Z,0.13260466,0.024029704,0.08172031,-0.33738708,2.8666077,9.236298,6.097412,9.207153,-43.737793,-0.25287208,2.606825,9.450444,-0.1506598,0.14281344,0.2073164,0.05935669,0.047821045,0.08163452
2019-07-01T19:35:58.134Z,0.13905437,0.028741613,0.09404098,-0.5144501,2.6943207,9.214767,7.3165894,7.762146,-44.232178,-0.29900274,2.7404823,9.411202,0.039726377,0.086107016,-0.08417606,0.04119873,0.072250366,0.044311523
2019-07-01T19:35:58.288Z,0.13315684,0.02558025,0.09067383,-0.34934998,2.8522491,9.59761,7.217407,7.2418213,-43.955994,-0.2581858,2.6221592,9.446058,-0.1988143,0.24285817,-0.057929993,-0.09892273,-0.06939697,-0.021057129
2019-07-01T19:35:58.504Z,0.13410941,0.026801845,0.09118027,-0.18664551,2.5770721,9.600006,7.5149536,8.651733,-44.587708,-0.27868882,2.6424835,9.43981,0.0059430003,0.10029197,0.10566139,0.2157898,0.14183044,0.057128906
2019-07-01T19:35:58.704Z,0.17851515,0.060460415,0.08779348,-1.1102753,3.661026,8.484955,10.128784,4.0130615,-44.354248,-0.85252416,3.5288618,9.109924,0.8844038,-0.87789536,0.22423744,0.45861816,0.47140503,-0.21989441
2019-07-01T19:35:58.897Z,0.19349587,0.10445762,0.089589015,-1.8783722,4.0773773,8.757736,13.896179,1.9348145,-44.781494,-1.6501695,3.8701065,8.858307,-0.372285,0.42000103,0.08315468,0.17272949,0.2822113,0.037826538
2019-07-01T19:35:59.102Z,0.1894278,0.1142293,0.089618504,-2.0650024,3.9936218,8.118851,13.114929,4.060364,-43.640137,-1.8427081,3.8087187,8.846948,-0.34071696,0.45173407,-0.4081154,-0.56140137,-0.27226257,-0.0038909912
2019-07-01T19:35:59.304Z,0.108660355,0.056877717,0.0972223,-0.4665985,1.6031952,9.875183,8.8974,10.707092,-43.849182,-0.89461356,2.2133825,9.511623,-0.7769553,0.9374089,-0.17372513,-0.5417328,-0.43554688,0.04864502
2019-07-01T19:35:59.517Z,0.105267465,0.036672805,0.09563109,-0.6891327,2.222931,9.401398,7.7209473,11.509705,-44.696045,-0.5140306,2.1110375,9.562933,-0.13912845,0.00021338463,0.23786259,-0.060012817,-0.07623291,-0.07395935
2019-07-01T19:35:59.708Z,0.120177075,0.03397902,0.09754657,-0.107681274,2.7517395,9.164505,8.190918,11.099243,-43.966675,-0.42809552,2.392294,9.500739,-0.1529961,-0.13139868,0.08791256,0.07247925,0.010070801,0.012359619
2019-07-01T19:35:59.908Z,0.1215799,0.030114366,0.09603397,0.0,2.136795,8.848663,6.95343,8.610535,-44.12079,-0.35423794,2.411416,9.498945,-0.22316432,0.106862545,-0.26665974,0.14285278,-0.019424438,0.03135681
2019-07-01T19:36:00.112Z,0.11148525,0.02554195,0.096078135,0.34457397,1.7491608,9.267395,6.591797,11.207581,-43.424988,-0.28525776,2.2101934,9.550081,-0.12027484,0.24201775,0.09122372,-0.04534912,-0.05784607,-0.03517151
2019-07-01T19:36:00.315Z,0.108788304,0.025109174,0.09287448,-0.27278137,2.0362854,9.82254,5.7662964,10.635376,-42.526245,-0.28908664,2.156815,9.562163,-0.09496224,-0.033313274,0.15406227,-0.14608765,-0.0061187744,-0.02355957
2019-07-01T19:36:00.519Z,0.10459006,0.017731598,0.093702406,0.090927124,1.8233337,9.812973,6.0943604,10.957336,-43.68286,-0.15205692,2.0632915,9.585932,-0.18986915,0.16994858,0.023672104,0.091171265,-0.03164673,0.034225464
2019-07-01T19:36:00.721Z,0.11535503,0.036876034,0.099110365,-0.85902405,2.3928223,9.3511505,6.340027,11.042786,-43.373108,-0.49011326,2.3063002,9.51899,0.21869576,-0.15371084,0.19653034,-0.026412964,0.024856567,0.018829346
2019-07-01T19:36:00.923Z,0.11233702,0.019907355,0.091828816,1.0097656,1.3950195,8.154739,7.5683594,9.820557,-44.351196,-0.18391256,2.2153974,9.551365,-0.336852,0.21668649,-0.080898285,0.095336914,0.00061035156,0.059509277
2019-07-01T19:36:01.142Z,0.11746241,0.01842432,0.092893384,0.0765686,2.3521423,9.209976,7.286072,10.675049,-44.015503,-0.14321446,2.311018,9.529379,-0.13510342,-0.08372092,0.09963131,-0.08584595,-0.0602417,-0.044265747
2019-07-01T19:36:01.334Z,0.1227652,0.01437453,0.09194673,-0.08375549,2.3330078,9.559326,6.416321,11.056519,-44.354248,-0.05717431,2.4050105,9.507,-0.058946446,-0.04714513,-0.018741608,0.06796265,-0.06512451,-0.00022888184
2019-07-01T19:36:01.537Z,0.13063724,0.0110677155,0.08797901,-0.007171631,2.5770721,9.255432,5.177307,10.316467,-44.229126,0.011070602,2.5491872,9.469525,-0.07442766,-0.074938536,0.03571987,0.049575806,-0.05632019,-0.013595581
2019-07-01T19:36:01.731Z,0.14478934,0.014873067,0.08879052,0.38046265,2.8809662,9.542572,5.1834106,8.717346,-44.628906,-0.035291765,2.8241186,9.391139,0.090864286,-0.21660185,0.08386707,0.08000183,-0.033294678,-0.011154175
2019-07-01T19:36:01.933Z,0.13407098,0.021730546,0.087908976,0.047851562,2.6440735,9.439682,5.9310913,9.05304,-43.91327,-0.18942952,2.6323986,9.444839,-0.08156195,0.20876408,-0.15762424,0.115371704,0.082336426,-0.0013885498
2019-07-01T19:36:02.140Z,0.12311219,0.012482173,0.08560151,-0.47138977,2.548355,9.688538,5.065918,9.655762,-44.50836,-0.035332892,2.4081028,9.506323,-0.05196788,0.13475037,-0.047276497,-0.13423157,-0.08766174,0.01449585
2019-07-01T19:36:02.342Z,0.12693259,0.018714754,0.0862823,-0.34934998,2.691925,9.817749,4.93927,10.295105,-43.693542,-0.14783838,2.491299,9.483773,0.04064907,-0.1311922,0.21560669,0.09814453,0.05393982,0.0002593994
2019-07-01T19:36:02.543Z,0.12905225,0.018893825,0.09108671,-0.48335266,2.9694977,9.808182,6.2789917,9.657288,-43.80493,-0.13529772,2.53266,9.473,-0.12658314,-0.08357835,0.111325264,0.043777466,0.047943115,0.030929565
2019-07-01T19:36:02.750Z,0.13326457,0.025614006,0.09357093,-0.36849976,2.7373962,9.317657,6.021118,9.275818,-43.64624,-0.2509314,2.625012,9.445461,0.10513106,-0.09496498,0.06999779,0.05683899,0.016860962,0.035079956
2019-07-01T19:36:02.957Z,0.1365301,0.027478648,0.09555574,-0.27038574,2.5866394,9.559326,6.2316895,8.709717,-44.522095,-0.27532452,2.690835,9.42624,-0.0034693778,-0.028844118,-0.0481081,0.03112793,0.038238525,0.008087158
2019-07-01T19:36:03.161Z,0.14001243,0.03070182,0.0976285,-0.21057129,2.6129608,9.4205475,8.09021,8.982849,-44.921875,-0.3249409,2.7632809,9.403673,0.018047512,-0.09637046,0.09190273,0.093688965,0.1018219,0.03501892
2019-07-01T19:36:03.367Z,0.1486716,0.054120593,0.09331385,-0.8279114,3.0556335,9.253052,7.6446533,7.8552246,-44.00177,-0.77132505,2.965378,9.315684,0.55442035,-0.39032793,0.034804344,0.16319275,0.36047363,-0.16607666
2019-07-01T19:36:03.564Z,0.16518334,0.08779457,0.07734293,-1.6175537,3.3379822,8.999405,12.47406,6.137085,-44.32068,-1.4357189,3.3059003,9.120314,-0.19645166,0.07961297,0.19902611,0.151474,0.19987488,0.048217773
2019-07-01T19:36:03.762Z,0.18148264,0.107935406,0.08025353,-3.1633148,4.1515503,8.6237335,13.163757,5.079651,-43.055725,-1.7765912,3.6373649,8.932172,0.20950437,-0.23079705,0.053219795,0.1003418,0.13059998,0.0073547363
2019-07-01T19:36:03.965Z,0.1503063,0.06843871,0.06906198,-1.282547,2.9910278,8.839081,13.101196,5.6640625,-43.91632,-1.1170315,2.9930854,9.271681,-0.90679574,0.7062042,-0.4418373,-0.49446106,-0.4480133,-0.0256958
2019-07-01T19:36:04.181Z,0.12695062,0.042897377,0.06304487,-0.96191406,2.7158508,9.32962,8.372498,9.5703125,-42.77649,-0.6751052,2.5155091,9.454461,-0.23397064,0.05357957,0.06860256,-0.24754333,-0.29792786,0.009979248
2019-07-01T19:36:04.370Z,0.098339416,0.017540472,0.06729398,0.22253418,1.6127625,9.846466,6.564331,12.290955,-42.59796,-0.21172811,1.9378703,9.610943,-0.11571585,0.1127218,-0.01730156,-0.13105774,-0.091934204,0.048034668
2019-07-01T19:36:04.572Z,0.10393986,0.019794492,0.071034625,0.3900299,1.6055908,8.669189,6.0821533,12.257385,-42.359924,-0.24025825,2.0495594,9.587073,0.038625076,-0.08382726,0.07291031,0.0023040771,-0.03945923,0.0054626465
2019-07-01T19:36:04.781Z,0.10538219,0.017109495,0.070356525,0.107681274,1.7276154,9.322433,4.740906,12.7456665,-41.67633,-0.18739997,2.0735376,9.583095,-0.035051778,-0.054872036,0.05846405,0.044692993,-0.010574341,-0.017028809
2019-07-01T19:36:04.989Z,0.11762837,0.014949641,0.07074925,-0.17945862,2.2588196,9.245865,5.781555,11.155701,-43.629456,-0.12717903,2.3057265,9.530889,0.08132011,-0.27264833,0.109129906,0.15556335,-0.045455933,0.022567749
2019-07-01T19:36:05.181Z,0.13317965,0.012846453,0.06962402,-0.06939697,2.5962067,9.205185,5.380249,9.2300415,-43.251038,-0.0672145,2.5997524,9.455536,-0.08519758,-0.2538967,0.04658127,0.15855408,-0.032073975,-0.012313843
2019-07-01T19:36:05.386Z,0.14002961,0.009831811,0.06735718,-0.01675415,2.6033936,9.71965,5.3985596,9.593201,-42.87567,-0.005489944,2.7259376,9.420171,-0.04932363,-0.053165674,-0.027592659,0.07211304,-0.042938232,0.006439209
2019-07-01T19:36:05.585Z,0.1445896,0.0054564155,0.07052979,0.17468262,2.7421722,9.824936,6.0562134,7.197571,-47.99652,0.09439118,2.8064466,9.396027,-0.03232587,-0.08202624,0.030874252,0.040786743,-0.029266357,0.053710938
2019-07-01T19:36:05.798Z,0.1280896,0.011864545,0.07623141,-0.35891724,2.4382935,10.813171,6.428528,8.31604,-48.008728,-0.038573567,2.5017545,9.482095,0.117335275,0.24781513,-0.40611267,-0.31510925,0.11038208,-0.004135132
2019-07-01T19:36:06.018Z,0.1187059,0.012134707,0.07065134,-0.1268158,2.165512,9.777069,4.737854,11.080933,-42.99774,-0.0712107,2.3225353,9.52739,0.0020911396,-0.056349993,-0.009721756,0.016220093,-0.010757446,-0.05128479
2019-07-01T19:36:06.199Z,0.12364318,0.018291513,0.0719293,-0.08375549,2.3569336,9.360718,5.6991577,10.998535,-43.052673,-0.18057477,2.4255078,9.500247,0.018995434,-0.10657382,0.02398777,0.032104492,0.022415161,0.013031006
2019-07-01T19:36:06.401Z,0.14335264,0.039862514,0.08478907,-0.3637085,2.7086792,9.253052,5.9814453,10.295105,-44.189453,-0.5318907,2.8363726,9.372431,0.5198672,-0.45472813,0.20151901,0.036010742,0.031692505,0.03074646
2019-07-01T19:36:06.599Z,0.15563968,0.03631433,0.092980176,-0.5766754,3.2015991,9.406189,7.38678,9.448242,-44.947815,-0.416131,3.0661979,9.305679,-0.5773307,-0.0060138702,-0.1298027,0.38891602,0.33084106,0.1429596
2019-07-01T19:36:06.815Z,0.14690752,0.01860653,0.079919934,-0.22970581,2.7062836,9.611969,9.643555,5.6518555,-43.70117,-0.12945515,2.869421,9.376569,0.04487367,0.06650305,0.10279274,-0.08920288,-0.24429321,-0.025939941
2019-07-01T19:36:07.006Z,0.15648791,0.015277155,0.08311926,-0.48335266,3.2063751,10.243668,8.276367,7.911682,-45.828247,-0.039745204,3.0452185,9.321773,0.07500218,-0.15066051,-0.19852829,-0.03704834,-0.12046814,-0.042495728
2019-07-01T19:36:07.212Z,0.13345721,0.017546663,0.08346097,-0.055038452,2.5244293,9.755539,5.4489136,7.194519,-43.36548,-0.12134204,2.6132212,9.4512825,-0.0899717,0.103655815,0.31280613,-0.053222656,-0.012039185,0.036483765
2019-07-01T19:36:07.420Z,0.14073099,0.025871793,0.13782915,-0.13877869,2.5411835,9.7005005,6.0272217,9.269714,-42.741394,-0.11687995,2.775115,9.405076,0.06247279,-0.08516574,-0.091259,-0.035629272,0.055526733,0.008392334
2019-07-01T19:36:07.626Z,0.15837198,0.031011643,0.14027406,-0.15553284,3.098709,8.504089,5.6915283,9.107971,-43.589783,-0.15845458,3.119679,9.295853,0.20126003,-0.3569095,0.059684753,0.05366516,-0.015945435,0.036239624
2019-07-01T19:36:07.818Z,0.14306645,0.027820146,0.13401027,-0.44984436,3.1011047,10.289139,6.037903,7.9681396,-44.441223,-0.15880957,2.8235788,9.390025,-0.18665586,0.099998474,0.06698227,0.013839722,0.10397339,-0.011642456
2019-07-01T19:36:08.017Z,0.12686116,0.03501489,0.13673377,-0.9379883,2.4502563,10.033112,7.5683594,7.9223633,-43.984985,-0.33406073,2.5368512,9.466951,0.26713255,0.15632534,-0.036798477,-0.028915405,-0.07281494,-0.017333984
2019-07-01T19:36:08.221Z,0.124411434,0.032301657,0.13168852,0.8279114,2.6895294,9.023331,7.0617676,9.277344,-44.366455,-0.30138707,2.4818778,9.482607,-0.2773462,-0.15800595,-0.009643555,-0.20716858,0.1282196,-0.049224854
2019-07-01T19:36:08.421Z,0.12547798,0.032317936,0.1341152,-0.42591858,2.3401794,8.807983,8.641052,10.247803,-43.4021,-0.29267976,2.5028765,9.477359,-0.089662015,-0.12401438,0.13131428,0.022277832,-0.033843994,-0.006149292
2019-07-01T19:36:08.627Z,0.124725364,0.027612325,0.1343678,-0.0765686,2.3856506,9.384644,5.908203,10.133362,-42.485046,-0.20347889,2.4766343,9.486584,0.048172668,-0.057745457,0.005173683,-0.0043640137,-0.03201294,-0.013473511
2019-07-01T19:36:08.828Z,0.12280495,0.024753578,0.13133028,0.028717041,2.395218,8.994614,6.222534,9.933472,-42.234802,-0.16111241,2.4323673,9.498843,-0.13045904,0.011795998,0.031784058,-0.061050415,0.0064086914,-0.006149292
2019-07-01T19:36:09.030Z,0.12042543,0.031391587,0.13308743,-0.6412811,2.3688965,9.439682,6.614685,10.046387,-44.11621,-0.29104134,2.404342,9.502885,0.08007833,-0.11704564,0.038674355,0.0074920654,0.015640259,0.0036315918
2019-07-01T19:36:09.253Z,0.118977726,0.028110633,0.13190772,-0.1603241,2.2372894,9.276978,6.930542,9.921265,-44.081116,-0.23453954,2.368222,9.513512,-0.08110832,-0.02459073,0.0046863556,-0.040283203,-0.04600525,0.02293396
2019-07-01T19:36:09.433Z,0.11285985,0.025008874,0.13430911,-0.14356995,2.0985107,10.013962,6.5704346,10.6918335,-43.07556,-0.18544324,2.2444017,9.544561,0.06396675,-0.006512165,-0.023245811,-0.013519287,-0.028656006,-0.0149383545
2019-07-01T19:36:09.640Z,0.11390474,0.024930034,0.13489437,-0.14117432,2.165512,9.647858,6.0821533,10.739136,-44.029236,-0.1797644,2.2642062,9.539991,0.017588869,-0.067607164,0.03956318,0.055496216,-0.009048462,-0.026855469
2019-07-01T19:36:09.844Z,0.12602395,0.024750186,0.13403222,-0.27757263,2.5818634,9.238693,5.557251,9.681702,-43.467712,-0.14570212,2.4938486,9.483136,-0.058761314,-0.18009019,0.14423656,0.18078613,-0.058898926,0.06996155
2019-07-01T19:36:10.046Z,0.13832775,0.020886175,0.1427904,-0.07896423,2.4765778,8.638092,6.881714,8.674622,-43.35022,-0.013979194,2.716798,9.422803,0.05755444,-0.03866005,-0.09177303,-0.02482605,0.04269409,0.0423584
2019-07-01T19:36:10.249Z,0.12721197,0.02595374,0.1370926,-0.021530151,2.411972,9.487549,6.2332153,8.709717,-44.221497,-0.1578299,2.519953,9.476039,-0.045592785,0.11413503,-0.14728832,-0.014373779,-0.03794861,-0.07536316
2019-07-01T19:36:10.451Z,0.13031545,0.01828564,0.14157873,0.98106384,2.2875366,9.384644,5.9677124,9.623718,-42.362976,0.009984998,2.5584917,9.467016,0.04744165,-0.008928299,-0.105685234,-0.017730713,0.09541321,0.08352661
2019-07-01T19:36:10.654Z,0.119991444,0.02285037,0.14375836,-0.34695435,2.5244293,9.915863,7.096863,10.083008,-44.429016,-0.10179953,2.375602,9.514018,-0.23541068,0.17747569,0.14411831,-0.01449585,-0.02670288,0.003616333
2019-07-01T19:36:10.856Z,0.12316285,0.02267354,0.14279991,-0.71784973,2.7469635,9.710068,6.7840576,10.125732,-43.42804,-0.0916562,2.4351614,9.499051,0.28622946,-0.048150063,-0.2371273,-0.025497437,0.03744507,-0.030761719
2019-07-01T19:36:11.059Z,0.12068156,0.0301539,0.14173187,-0.9762726,2.8283234,10.322632,7.9071045,9.977722,-42.900085,-0.24533235,2.4083192,9.503167,0.20026189,-0.017751455,0.05080986,-0.038879395,-0.031951904,0.0054016113
2019-07-01T19:36:11.266Z,0.1157698,0.027442817,0.13998108,-0.4857483,2.663208,9.595215,6.790161,10.198975,-43.336487,-0.21123832,2.3073256,9.529009,-0.15762565,0.055118322,-0.0403862,-0.03501892,-0.03904724,-0.020690918
2019-07-01T19:36:11.476Z,0.12706777,0.018395614,0.14262725,0.36610413,2.4071808,8.408386,6.4468384,9.738159,-43.415833,0.0013655033,2.497357,9.483332,-0.08774696,-0.16701198,0.15035534,0.11482239,-0.037384033,0.005935669
2019-07-01T19:36:11.665Z,0.11388432,0.013286554,0.13803333,0.21296692,2.0913239,9.415756,5.7113647,10.986328,-41.470337,0.051954396,2.2333627,9.54881,-0.121372804,0.2853539,-0.19082737,-0.20625305,-0.092666626,-0.02178955
2019-07-01T19:36:11.870Z,0.10850849,0.008000687,0.13796428,0.42591858,1.9381866,9.463608,5.0720215,11.395264,-43.173218,0.13913827,2.1167502,9.574467,0.041172788,-0.008421183,0.071881294,-0.00680542,-0.023834229,-0.0033416748
2019-07-01T19:36:12.072Z,0.10700008,0.0047131246,0.13766506,0.49771118,1.689331,9.224335,4.902649,11.238098,-43.27545,0.1978844,2.079181,9.581662,0.001572445,0.0125517845,-0.057929993,-0.009613037,-0.0036773682,0.017059326
2019-07-01T19:36:12.293Z,0.10691687,0.0055046254,0.13851635,0.39482117,1.9956207,9.777069,5.192566,10.53009,-43.28003,0.18417121,2.0795627,9.581852,0.039020643,-0.014026403,-0.03016758,0.012557983,0.046844482,-0.017028809
2019-07-01T19:36:12.487Z,0.12753771,0.027541092,0.14113662,-0.16749573,2.519638,9.236298,6.803894,10.488892,-43.052673,-0.17705564,2.531032,9.472746,0.04691392,-0.19631624,-0.02681923,0.15379333,0.12423706,0.013214111
2019-07-01T19:36:12.687Z,0.12599476,0.02560042,0.14061822,-0.16749573,2.490921,9.489929,6.2957764,10.021973,-43.5791,-0.14541839,2.4965076,9.482441,-0.08118461,-0.03534031,-0.018689156,0.059539795,0.025039673,-0.0008392334
2019-07-01T19:36:12.894Z,0.12912756,0.028874462,0.14111073,-0.15074158,2.5052795,9.442078,7.185364,10.231018,-44.102478,-0.19824706,2.5646951,9.463267,0.09079802,-0.05877328,-0.0007534027,0.010543823,-0.00819397,-0.0074920654
2019-07-01T19:36:13.086Z,0.13347867,0.039700348,0.14418277,0.13160706,2.7565308,9.76033,7.167053,7.8933716,-43.519592,-0.3853864,2.67709,9.426295,0.19637531,-0.16338038,-0.04143524,0.0390625,0.047088623,-0.0024871826
2019-07-01T19:36:13.289Z,0.11723006,0.0523102,0.15478414,-0.5168457,2.486145,8.982651,8.961487,8.601379,-44.506836,-0.6491274,2.4111052,9.483438,-0.07685447,0.058960676,0.014594078,0.0034637451,0.16297913,0.05596924
2019-07-01T19:36:13.505Z,0.119397,0.054138612,0.15645789,-0.6388855,2.3976135,9.250656,10.05249,9.320068,-43.04657,-0.6730922,2.4585972,9.4695635,0.0411489,-0.028504372,0.012561798,-0.10423279,0.112335205,0.046936035
2019-07-01T19:36:13.696Z,0.11688435,0.050336096,0.15355021,-0.72262573,2.399994,9.724426,9.124756,10.131836,-42.843628,-0.61541253,2.3980289,9.488999,-0.078354,0.03168297,-0.041811943,0.041885376,-0.019485474,0.0058288574
2019-07-01T19:36:13.901Z,0.11905527,0.039375667,0.14727873,-0.110076904,2.3282166,9.363113,9.411621,9.27124,-42.199707,-0.41379556,2.4047077,9.498239,-0.13105395,-0.054449797,0.10497093,-0.06489563,-0.09309387,-0.054901123
2019-07-01T19:36:14.109Z,0.12087972,0.03599333,0.14598382,-0.4019928,2.2994995,9.92543,7.9315186,10.336304,-41.92047,-0.34658042,2.4293687,9.494653,0.027222037,-0.13305235,-0.051784515,0.044387817,-0.06561279,-0.010238647
2019-07-01T19:36:14.302Z,0.13994291,0.0414598,0.14111644,-0.3900299,2.9144592,7.0588226,8.432007,9.138489,-43.167114,-0.4089009,2.802333,9.388829,0.10896641,-0.2649119,0.11929321,0.075912476,-0.036224365,-0.020263672
2019-07-01T19:36:14.505Z,0.12584558,0.032318745,0.13785654,-0.54556274,2.4335022,9.930222,7.951355,9.104919,-42.92755,-0.28213564,2.510939,9.475546,-0.2894347,0.31020164,-0.31183815,0.11903381,0.019424438,-0.031692505
2019-07-01T19:36:14.709Z,0.12604263,0.027752837,0.13574508,-0.17228699,2.4837494,9.427719,6.9717407,10.646057,-43.02826,-0.19911397,2.5022488,9.479952,0.0135730505,-0.13567066,0.21410465,-0.17889404,-0.09890747,-0.02331543
2019-07-01T19:36:14.911Z,0.12563315,0.02657029,0.13420439,-0.26081848,2.4550323,9.518646,6.161499,10.517883,-42.944336,-0.1813721,2.49114,9.483233,0.018060178,-0.071793556,-0.009793282,0.023132324,-0.039764404,-0.033935547
2019-07-01T19:36:15.120Z,0.12731208,0.026004972,0.13317397,-0.06460571,2.4215393,9.501892,6.52771,9.819031,-43.704224,-0.1686,2.5213308,9.475488,0.010787293,-0.05719185,-0.004650116,-0.0020446777,-0.019302368,-0.0079193115
2019-07-01T19:36:15.324Z,0.12421659,0.01996897,0.13161038,-0.047851562,2.3665009,9.544968,6.0928345,10.958862,-43.910217,-0.064469025,2.4471216,9.496201,-0.02866853,-0.02477932,-0.023194313,-0.020431519,-0.035614014,-0.012191772
2019-07-01T19:36:15.520Z,0.12842213,0.014324492,0.15493117,0.44267273,2.3856506,11.660233,5.519104,10.548401,-42.98706,0.1150641,2.5105186,9.479158,-0.12779516,-0.07405543,0.2829504,0.07859802,-0.41178894,-0.22209167
2019-07-01T19:36:15.726Z,0.10978554,0.16009057,0.15327902,-4.924423,4.5702972,3.5198364,10.450745,9.120178,-42.12036,-2.7122958,2.5676348,9.067585,2.6264071,-0.30444574,-1.1032019,-0.12800598,2.4573364,-0.37101746
2019-07-01T19:36:15.930Z,0.18868752,-0.007019495,0.05594661,0.6197357,3.397812,2.4406738,11.004639,7.267761,-43.04962,0.3420258,3.6206107,9.107392,-4.2166705,-1.2506325,1.8820591,0.61994934,-2.1484985,-0.035842896
2019-07-01T19:36:16.127Z,0.1179123,0.046522576,0.10746635,-0.29431152,2.9694977,8.140381,5.3482056,8.6502075,-44.12079,-0.6512415,2.3785508,9.49151,0.35834455,0.82848,-1.809659,-0.83843994,0.3061676,0.2682495
2019-07-01T19:36:16.334Z,0.06846601,0.02092631,0.10707049,-1.4189453,3.2159576,8.9730835,5.995178,13.926697,-42.092896,-0.26323628,1.3756046,9.706122,-0.9810165,0.7537966,0.2867689,-0.15859985,0.0045776367,-0.014465332
2019-07-01T19:36:16.547Z,0.07781667,0.0068283593,0.08663215,1.5744781,0.624527,9.824936,3.4957886,15.504456,-41.51764,-0.000790757,1.5274247,9.686969,0.64182067,-0.62358487,0.28204727,0.06895447,-0.019546509,-0.32417297
2019-07-01T19:36:16.753Z,0.08084593,0.00760657,0.0893158,1.8257294,2.1391907,9.994827,5.2612305,14.109802,-45.98694,-0.006474917,1.5873857,9.677321,-0.62049794,-0.14297462,0.25354576,0.07273865,-0.69499207,0.24119568
2019-07-01T19:36:16.958Z,0.08990435,0.0015768624,0.11172113,2.7541351,-1.0049896,10.301102,3.3203125,13.528442,-44.062805,0.16639243,1.7485491,9.648071,0.43761718,0.30662334,-0.3017559,-0.0036315918,0.51867676,0.120666504
2019-07-01T19:36:17.282Z,0.06880355,0.042295396,0.11111073,-0.2536316,0.98106384,10.102493,5.9936523,15.2908325,-41.39862,-0.6717488,1.428845,9.678716,0.4951734,-0.5055697,0.40689468,0.071762085,0.051498413,0.015045166
2019-07-01T19:36:17.349Z,0.10522112,0.032736644,0.120172605,-0.055038452,2.0530396,9.688538,5.606079,12.289429,-43.203735,-0.38547727,2.1132765,9.568482,0.23544046,-0.19345593,-0.06523037,0.14157104,-0.06274414,0.04711914
2019-07-01T19:36:17.558Z,0.11144889,0.037480015,0.11037795,-0.29193115,2.0817566,10.071396,5.7678223,12.30011,-43.206787,-0.4842112,2.238407,9.535485,0.22082257,-0.24823546,0.21829414,0.1671753,0.041290283,-0.0005340576
2019-07-01T19:36:17.750Z,0.123586714,0.032796957,0.12159026,-0.20100403,2.486145,9.0711975,6.173706,10.731506,-44.37256,-0.3384361,2.4641256,9.485986,0.16951057,-0.18585634,0.1071558,0.054519653,-0.06555176,0.05609131
2019-07-01T19:36:17.952Z,0.120693974,0.02701139,0.11517867,-0.2536316,2.416748,9.963715,4.5928955,11.125183,-42.7948,-0.24950989,2.3941748,9.506632,0.025151879,0.028110981,-0.06206608,0.080062866,-0.03982544,-0.057159424
2019-07-01T19:36:18.160Z,0.13362929,0.03081156,0.11910593,0.03111267,2.5531464,10.126419,5.644226,9.3688965,-42.288208,-0.28209782,2.6492915,9.4378,0.2309764,-0.103796005,0.034586906,0.11647034,0.14349365,0.035079956
2019-07-01T19:36:18.358Z,0.1499247,0.045463234,0.13179496,-0.74894714,3.0580292,8.956329,6.3964844,8.255005,-42.84668,-0.48525143,2.9957528,9.325254,0.22820437,-0.312078,0.36474133,0.14707947,0.012207031,0.10862732
2019-07-01T19:36:18.561Z,0.1445839,0.037506238,0.1264755,0.19621277,2.897705,9.406189,6.991577,9.103394,-43.530273,-0.3627386,2.8739598,9.369054,0.1469664,0.14657521,-0.24782085,-0.061843872,0.085998535,-0.0178833
2019-07-01T19:36:18.761Z,0.1523385,0.049043033,0.13845238,0.20817566,3.0149536,8.377274,8.584595,6.8008423,-43.159485,-0.5264352,3.0533712,9.30431,-0.02030015,-0.12046814,0.36978436,0.04963684,-0.0032958984,0.06286621
2019-07-01T19:36:18.965Z,0.11522834,0.035189837,0.12760468,-0.17228699,2.1056824,9.016159,6.164551,10.282898,-43.02826,-0.39108962,2.3130045,9.521946,0.170266,0.18161058,0.08990574,-0.2972107,-0.15675354,-0.1595459
2019-07-01T19:36:19.168Z,0.103839524,0.03908261,0.13230173,-0.5934143,2.0147552,9.554535,6.463623,11.61499,-42.91992,-0.48557526,2.1074603,9.5652075,0.15668112,-0.013756275,0.08255482,-0.21516418,0.0847168,0.058776855
2019-07-01T19:36:19.370Z,0.10574243,0.035625074,0.11190626,-0.6125641,2.050644,9.731613,6.6436768,12.141418,-43.50128,-0.4578564,2.1260889,9.562452,0.112864375,-0.22058177,0.16110039,0.0256958,0.051239014,0.055114746
2019-07-01T19:36:19.577Z,0.112746395,0.036634326,0.11034311,-0.5240326,2.2612152,9.583252,6.4605713,11.463928,-42.27295,-0.46502933,2.2614188,9.531008,0.08859795,-0.03261137,-0.013105392,0.10003662,-0.048202515,-0.03968811
2019-07-01T19:36:19.782Z,0.119171344,0.033663705,0.11576372,0.090927124,1.9908295,9.856033,6.1538696,10.444641,-45.111084,-0.380121,2.379949,9.505879,0.013112634,-0.1348095,0.098908424,-0.012664795,-0.0037841797,0.0045318604
2019-07-01T19:36:19.982Z,0.11671706,0.03589355,0.111483455,-0.1603241,2.0578308,9.114258,7.8201294,11.416626,-43.319702,-0.4390921,2.3361802,9.514193,-0.010324597,-0.012785435,-0.015663147,0.07798767,0.02180481,0.012054443
2019-07-01T19:36:20.181Z,0.11618582,0.02404272,0.10952937,0.34217834,2.0697937,9.750748,6.1660767,10.585022,-44.325256,-0.21577467,2.3005319,9.530549,0.0775865,-0.12597871,0.038345337,-0.123535156,-0.102508545,-0.06790161
2019-07-01T19:36:20.383Z,0.12754673,0.019953866,0.11368317,-0.49531555,2.4335022,8.477768,5.24292,11.315918,-43.008423,-0.10113625,2.5088139,9.479769,0.048532747,-0.13155437,0.16711521,0.14793396,-0.022125244,0.08023071
2019-07-01T19:36:20.586Z,0.11695721,0.008768431,0.10638757,0.5120697,2.222931,9.190826,6.3796997,11.457825,-42.269897,0.07423616,2.2832718,9.536853,-0.052597858,-0.036577463,-0.03902626,-0.07699585,-0.06011963,-0.020629883
2019-07-01T19:36:20.789Z,0.101816975,0.016122779,0.10716979,-0.22970581,1.8257294,10.301102,3.6483765,11.723328,-43.53943,-0.09869067,2.0086544,9.598227,0.17414391,0.07618666,0.0821476,-0.026901245,-0.051620483,-0.026062012
2019-07-01T19:36:20.992Z,0.124338925,0.026470281,0.11283274,-0.06700134,2.486145,9.190826,5.973816,13.105774,-42.070007,-0.23644984,2.4617882,9.489682,0.19378808,-0.38231802,0.23685265,-0.052017212,0.072631836,-0.016479492
2019-07-01T19:36:21.195Z,0.12904769,0.032476954,0.11704548,-0.23449707,2.244461,9.286545,6.05011,11.216736,-42.23175,-0.33064932,2.5655425,9.459336,0.14012536,-0.082006454,-0.1923523,0.23791504,0.04977417,0.05303955
2019-07-01T19:36:21.394Z,0.12308966,0.019905636,0.107803546,-0.17228699,2.3018951,10.837097,5.8898926,11.357117,-42.723083,-0.12481638,2.4232614,9.501717,-0.1308021,0.059917927,0.017640114,-0.031417847,0.010681152,-0.016296387
2019-07-01T19:36:21.601Z,0.13932388,0.02042143,0.10676537,0.35653687,2.8953094,8.3437805,4.7683716,11.503601,-43.099976,-0.10248118,2.7323601,9.417754,0.047055013,-0.1954422,0.15853977,0.012252808,0.02180481,0.000869751
2019-07-01T19:36:21.806Z,0.1102077,0.020421939,0.108631514,-0.011962891,1.9094696,10.667206,4.8355103,11.21521,-43.011475,-0.16082121,2.1785543,9.560252,0.037922725,0.22638535,-0.07618809,-0.22616577,-0.020095825,-0.081832886
2019-07-01T19:36:22.004Z,0.11370166,0.01903214,0.102108195,-0.29910278,2.0123596,9.269791,5.1071167,11.738586,-42.23633,-0.14112215,2.241577,9.545984,0.1071102,-0.06544232,0.06280041,0.0028533936,0.002380371,-0.015808105
2019-07-01T19:36:22.211Z,0.110618606,0.024286062,0.103929736,-0.035888672,2.0865479,9.39183,5.9173584,12.0147705,-42.967224,-0.24518336,2.1933162,9.555084,-0.02162312,-0.0988276,-0.029587746,-0.046142578,0.026260376,0.06916809
2019-07-01T19:36:22.412Z,0.10429789,0.018753601,0.10836218,0.023925781,2.009964,9.61676,5.8532715,12.301636,-42.530823,-0.1419022,2.0618508,9.586397,0.08138467,-0.082297325,0.15491867,-0.001373291,-0.043930054,0.00894165
2019-07-01T19:36:22.614Z,0.11300968,0.014022389,0.107522964,0.0765686,2.050644,9.824936,5.7159424,13.02948,-43.659973,-0.033307478,2.2187114,9.552309,-0.009384055,-0.14508605,0.05366993,0.10211182,-0.062927246,-0.0154418945
2019-07-01T19:36:22.816Z,0.12521182,0.015069498,0.10738041,-0.4283142,2.5220337,9.387039,4.8339844,11.218262,-43.237305,-0.027773261,2.4536319,9.494699,0.14470507,-0.20522451,0.047281265,0.06808472,0.038970947,0.022003174
2019-07-01T19:36:23.024Z,0.115892425,0.01940529,0.10897984,-0.30389404,2.100891,9.923035,3.9398193,11.012268,-43.24341,-0.12796748,2.2851303,9.535836,-0.049727023,-0.012679338,0.028429985,-0.015594482,-0.014663696,-0.07585144
2019-07-01T19:36:23.222Z,0.120061405,0.014019296,0.106386684,0.27757263,2.0075836,10.1479645,4.5547485,12.068176,-42.67578,-0.020857,2.3533232,9.520075,-0.0064949,-0.01514864,-0.05192566,0.036254883,-0.006668091,0.029220581
2019-07-01T19:36:23.425Z,0.12195565,0.018270526,0.11917084,-0.088531494,2.210968,9.346359,4.762268,11.280823,-42.541504,-0.067985766,2.3992224,9.50839,0.11873042,-0.090764046,0.040266037,-0.049987793,0.015640259,0.06941223
2019-07-01T19:36:23.627Z,0.12213951,0.012917418,0.10933638,0.17228699,2.3569336,9.281754,5.9036255,11.57074,-42.227173,0.012017276,2.3906505,9.510785,-0.020123206,-0.20446157,0.24076653,0.024902344,-0.055770874,-0.09013367
2019-07-01T19:36:23.831Z,0.1204945,0.008944012,0.11216734,0.35414124,2.1463623,9.324829,4.664612,10.908508,-42.538452,0.09206337,2.3506327,9.520318,0.00028802454,-0.041243076,-0.014687538,-0.06086731,0.0056762695,0.04437256
2019-07-01T19:36:24.032Z,0.10522923,0.0202781,0.11734314,-0.19621277,1.763504,10.222137,4.0496826,11.599731,-42.825317,-0.15048276,2.084335,9.581404,0.17064014,0.07774925,-0.10162735,-0.026779175,0.07891846,0.0062561035
2019-07-01T19:36:24.233Z,0.11343379,0.019797303,0.12158152,0.17945862,1.701294,9.882355,5.3771973,12.487793,-42.69867,-0.11231177,2.240605,9.546595,0.005524114,-0.14257216,0.044974327,0.13705444,0.021438599,0.086761475
2019-07-01T19:36:24.441Z,0.13627894,0.031141888,0.13697597,-1.071991,2.6823578,8.709869,6.2789917,9.347534,-43.374634,-0.23286267,2.7048528,9.423371,0.19752558,-0.4043572,0.33162022,0.1411438,0.079589844,0.09983826
2019-07-01T19:36:24.638Z,0.1299015,0.0135735,0.122716054,0.29670715,2.7278137,10.449463,5.2093506,10.585022,-43.156433,0.05074462,2.5392182,9.4720745,-0.20754015,0.09478164,-0.34970665,-0.029037476,-0.14245605,-0.043899536
2019-07-01T19:36:24.844Z,0.13634118,0.024786053,0.13689554,-0.72502136,2.8426666,8.700302,5.5023193,9.951782,-43.447876,-0.110751785,2.6894274,9.430011,0.07241107,-0.1428678,0.17117214,-0.06111145,0.15478516,0.01687622
2019-07-01T19:36:25.046Z,0.12900664,0.015875267,0.11660266,0.5264282,2.0769653,9.140579,4.6936035,11.416626,-41.908264,-0.011549312,2.5276787,9.475288,-0.24594896,-0.11460996,0.1954441,0.02319336,-0.17172241,-0.15226746
2019-07-01T19:36:25.249Z,0.11757125,0.015769998,0.11665014,0.17706299,2.2181396,10.892136,4.26178,10.958862,-42.964172,-0.03600047,2.3099031,9.530658,0.29288775,0.16575575,-0.22161007,-0.073638916,0.036102295,0.029281616
2019-07-01T19:36:25.451Z,0.124759,0.018711934,0.12421574,-0.062210083,2.141571,10.470993,3.7261963,11.351013,-41.731262,-0.05725731,2.4538689,9.494505,0.10614185,0.01645875,-0.09513378,0.02758789,-0.03390503,0.028427124
2019-07-01T19:36:25.653Z,0.120125845,0.015794884,0.113858305,0.2368927,2.0721893,9.480362,4.4799805,12.364197,-43.66913,-0.037220497,2.3585432,9.518732,-0.021276698,-0.08177686,-0.0053186417,-0.027328491,0.06896973,-0.07206726
2019-07-01T19:36:25.884Z,0.10385196,0.008555678,0.10866142,0.1483612,1.861618,9.827316,4.01001,12.471008,-42.723083,0.055437766,2.0318975,9.59368,-0.043559656,0.037196398,0.09634113,-0.13075256,-0.055160522,-0.050811768
2019-07-01T19:36:26.064Z,0.099584,0.0078080655,0.10886082,0.06700134,1.8352966,9.573685,3.942871,12.680054,-41.996765,0.0611625,1.9484068,9.6109495,0.104088396,-0.043227315,0.033566475,-0.10246277,-0.08503723,-0.026977539
2019-07-01T19:36:26.270Z,0.0963193,0.012047135,0.11020713,-0.052642822,1.8472595,9.4205475,5.670166,13.520813,-41.822815,-0.025525445,1.8946958,9.621842,0.032164954,-0.13827968,0.055952072,-0.067276,0.050811768,0.00680542
2019-07-01T19:36:26.465Z,0.102574185,0.016951652,0.11243364,-0.9762726,2.2660065,10.231705,5.0994873,13.491821,-42.936707,-0.10236035,2.0254712,9.594653,0.027484126,-0.23401666,0.090826035,0.028198242,0.03388977,-0.003036499
2019-07-01T19:36:26.672Z,0.11354497,0.008452773,0.11012904,0.17945862,2.0482635,9.255432,4.51355,12.788391,-41.545105,0.08156288,2.2171316,9.552384,-0.22808272,-0.2022512,0.06885052,0.113357544,0.014709473,0.006500244
2019-07-01T19:36:26.899Z,0.11982969,-0.00012472355,0.11070095,0.1483612,2.1391907,11.088333,2.444458,11.790466,-43.551636,0.262589,2.3184993,9.52502,0.16515899,-0.0759449,-0.058630943,0.089523315,-0.18998718,-0.012252808
2019-07-01T19:36:27.197Z,0.114769965,0.013366524,0.11567331,0.39959717,1.9477539,9.154938,4.2785645,11.778259,-45.140076,0.001748713,2.251053,9.544797,0.11263373,-0.08248925,0.19409275,0.00340271,0.016921997,0.034835815
2019-07-01T19:36:27.404Z,0.12093847,0.020094356,0.12012945,0.15792847,2.165512,9.274582,4.9972534,11.531067,-44.91577,-0.10332032,2.3841457,9.511865,0.08443845,-0.20684981,-0.07557583,-0.043029785,0.19168091,0.030929565
2019-07-01T19:36:27.519Z,0.12453334,0.01805884,0.089432396,-0.4402771,2.3593292,9.664612,6.5704346,12.127686,-42.52014,-0.1315078,2.4449048,9.49608,-0.07431054,-0.16670442,0.03913212,0.14352417,0.047027588,0.07093811
2019-07-01T19:36:27.724Z,0.129878,0.011490029,0.08487629,0.21774292,2.2133636,9.511475,3.8497925,10.939026,-44.084167,-0.006404933,2.5354466,9.473218,-0.007966484,-0.11621785,0.057086945,0.014572144,-0.10116577,-0.091430664
2019-07-01T19:36:27.884Z,0.13342348,0.006830624,0.08437994,-0.050247192,2.4550323,9.430115,3.5491943,11.201477,-42.81006,0.088523746,2.5953028,9.456582,-0.026107006,-0.12176037,-0.028316498,0.06918335,-0.018630981,-0.025634766
2019-07-01T19:36:28.088Z,0.13348977,0.0044311285,0.083690494,0.16270447,2.5028992,9.518646,4.156494,10.517883,-43.5791,0.13329364,2.5927217,9.456765,-0.061717123,-0.11803627,0.089814186,0.048477173,-0.0284729,0.01864624
2019-07-01T19:36:28.289Z,0.1337706,0.0071297856,0.09309895,0.06460571,2.4693909,9.279373,4.159546,10.214233,-41.752625,0.10629682,2.6015546,9.454681,0.16310193,-0.10302091,0.05188656,-0.016220093,0.10670471,0.07795715
2019-07-01T19:36:28.492Z,0.13223094,0.012906063,0.094042026,-0.08135986,2.3928223,9.032898,5.2261353,10.798645,-42.207336,-0.0058579864,2.5827017,9.460444,-0.07909958,-0.10686278,0.006344795,-0.044006348,-0.02229309,-0.048980713
2019-07-01T19:36:28.695Z,0.12693466,0.015395993,0.095620215,-0.13160706,2.3353882,9.86322,3.4194946,10.023499,-42.593384,-0.06003564,2.4865434,9.485984,0.12904763,0.015246153,-0.064011574,-0.046691895,0.03579712,0.0014190674
2019-07-01T19:36:28.899Z,0.13339926,0.015438454,0.09129993,-0.53359985,2.5842438,9.310471,5.5374146,10.75592,-43.437195,-0.059902925,2.6093185,9.45295,-0.021566026,-0.21102738,0.15972424,0.026489258,-0.024261475,0.06611633
2019-07-01T19:36:29.103Z,0.12304405,0.0025234225,0.10235107,0.26560974,2.589035,10.174286,5.2597046,11.604309,-42.57202,0.19814934,2.387248,9.5095825,-0.14109656,-0.0094566345,-0.20716572,-0.06288147,-0.056137085,0.052734375
2019-07-01T19:36:29.303Z,0.12292582,0.006099324,0.09955925,0.04307556,2.2348938,10.066605,4.574585,10.836792,-43.380737,0.121916026,2.39249,9.509549,0.18989766,0.10114765,0.12531853,0.009140015,0.05644226,0.015289307
2019-07-01T19:36:29.508Z,0.11686139,0.008188284,0.10224285,0.6891327,2.371292,8.815155,5.857849,12.297058,-42.00287,0.07569849,2.2805805,9.537484,-0.051099434,-0.20353508,-0.010849953,-0.090667725,0.055770874,0.021759033
2019-07-01T19:36:29.710Z,0.11438192,0.012872628,0.10762751,0.8231354,2.703888,8.690735,5.9280396,12.236023,-42.77191,-0.007867918,2.2425501,9.546795,-0.10531911,-0.15599966,0.19817162,0.04219055,0.04147339,0.027877808
2019-07-01T19:36:29.910Z,0.11359499,0.0121504525,0.10149276,-0.098098755,2.2755737,9.556931,5.177307,11.521912,-42.207336,-0.009388405,2.2259917,9.550669,-0.055231854,-0.094842434,0.031830788,0.008834839,-0.068481445,-0.052581787
2019-07-01T19:36:30.114Z,0.1208741,0.010545118,0.10213526,0.112457275,2.5627136,10.009171,5.6533813,11.413574,-42.626953,0.037929315,2.3618581,9.517908,0.18059683,-0.10537934,-0.011401176,0.07633972,0.022354126,0.022506714
2019-07-01T19:36:30.318Z,0.117052436,0.0078711305,0.097510494,-0.095718384,2.0721893,9.633499,4.1381836,11.752319,-42.79785,0.07129114,2.2839677,9.536708,-0.18387285,-0.06293893,0.02857685,-0.049194336,-0.122421265,-0.14224243
2019-07-01T19:36:30.523Z,0.12122833,0.009166939,0.09719893,-0.279953,2.3617096,9.59761,4.5669556,10.693359,-43.559265,0.05350615,2.3661835,9.516759,0.098740354,-0.13410687,0.15673447,0.04017639,0.021987915,0.056884766
2019-07-01T19:36:30.722Z,0.12920398,0.008891279,0.10485795,0.20578003,2.280365,9.774673,5.5099487,11.991882,-43.408203,0.093773164,2.5169709,9.477681,0.022944905,-0.09711909,-0.15886974,0.050430298,0.09425354,0.07014465
2019-07-01T19:36:30.925Z,0.12425451,0.015635662,0.10884138,-0.2416687,2.5100708,9.413361,5.7922363,11.140442,-43.821716,-0.03716528,2.436639,9.4990425,-0.038750134,-0.10064268,0.07759571,0.020874023,-0.05583191,0.0152282715
2019-07-01T19:36:31.127Z,0.11951443,0.0099433195,0.11092195,-0.009567261,2.0602264,9.241089,6.0180664,12.380981,-42.29431,0.06760755,2.3342159,9.524561,0.11278016,0.085790396,-0.29286098,-0.18798828,0.10598755,0.008255005
2019-07-01T19:36:31.332Z,0.10895403,0.011195831,0.102094784,0.6149597,2.038681,9.190826,4.8599243,13.166809,-40.727234,0.0010595324,2.135276,9.5713625,-0.13889027,-0.059974432,0.2695341,-0.036743164,0.0115356445,-0.031066895
2019-07-01T19:36:31.536Z,0.1099828,0.018157948,0.12590049,-0.0143585205,2.0626068,9.343979,6.829834,12.585449,-42.738342,-0.07948275,2.1712465,9.562937,0.04708469,-0.14958763,0.14830112,0.079208374,-0.021621704,0.019317627
2019-07-01T19:36:31.733Z,0.11635485,0.01550601,0.12524027,-0.08135986,2.170288,9.604797,5.8929443,11.354065,-42.422485,-0.013799011,2.2863197,9.5364,-0.07930625,-0.15086198,-0.1043787,0.04194641,-0.055770874,-0.017822266
2019-07-01T19:36:31.945Z,0.114411466,0.013379751,0.12042213,0.04067993,1.9908295,9.22673,5.1849365,11.820984,-42.977905,0.011473987,2.24421,9.546401,-0.09998609,-0.07969618,-0.04511261,-0.017059326,0.0028686523,0.0002593994
2019-07-01T19:36:32.142Z,0.111167334,0.00949136,0.12031639,0.18424988,2.1511536,9.078369,5.26886,11.901855,-43.115234,0.07869912,2.1732035,9.562499,0.036014035,-0.15623116,0.14188862,-0.09751892,-0.032318115,-0.07243347
2019-07-01T19:36:32.345Z,0.10962835,0.012078353,0.12707047,0.124420166,1.9238281,9.784256,5.4092407,11.395264,-42.471313,0.03970472,2.1496208,9.5680685,-0.033420317,-0.030454397,-0.05964756,0.058929443,0.020523071,0.07807922
2019-07-01T19:36:32.550Z,0.10649411,0.012910887,0.121380605,0.07417297,2.0937195,9.4253235,5.5358887,12.501526,-43.003845,0.0036471994,2.0918508,9.580947,0.073645055,-0.061165333,-0.043569565,-0.0050354004,-0.0012817383,0.025985718
2019-07-01T19:36:32.749Z,0.09593546,0.0114220325,0.122608274,-0.04067993,1.7946167,10.061813,5.7006836,12.663269,-43.58368,0.009423523,1.8860122,9.623578,0.046575755,0.022112727,0.035788536,-0.08981323,0.009765625,-0.07481384
2019-07-01T19:36:32.952Z,0.11185238,0.027384853,0.13585007,-0.40678406,2.1583252,9.023331,4.7683716,13.3255005,-42.95807,-0.23049414,2.2316906,9.54656,0.09957282,-0.36214018,0.1588993,-0.026107788,0.03994751,0.041488647
2019-07-01T19:36:33.157Z,0.12644547,0.028363692,0.14264102,-0.27757263,2.486145,9.004196,7.86438,12.060547,-41.378784,-0.19212586,2.5128763,9.477285,-0.011274666,-0.2757392,0.057765007,0.18421936,0.11325073,0.11332703
2019-07-01T19:36:33.360Z,0.120589174,0.022544542,0.13518949,-0.13400269,2.4071808,9.690933,7.437134,9.851074,-42.189026,-0.114998855,2.3851843,9.511471,-0.039819524,0.028077602,-0.17483139,0.14205933,-0.001953125,0.072280884
2019-07-01T19:36:33.561Z,0.1258712,0.021511145,0.13021825,-0.38523865,2.457428,9.444473,6.9137573,10.84137,-42.72003,-0.093352035,2.4822829,9.48683,-0.06728272,-0.14662766,0.28252792,-0.062942505,-0.04234314,-0.11354065
2019-07-01T19:36:33.760Z,0.11461061,0.028544031,0.13323736,-0.5431671,2.1607208,9.985245,5.7281494,11.270142,-42.356873,-0.2513937,2.2865653,9.533037,0.0837712,-0.021801949,-0.28189945,-0.02079773,-0.013381958,-0.0074920654
2019-07-01T19:36:33.969Z,0.104992226,0.016873866,0.11845124,-0.39482117,2.074585,9.195618,6.8481445,11.125183,-42.433167,-0.08281234,2.072189,9.584862,-0.26771098,0.16778135,-0.07158184,-0.08834839,0.014724731,-0.068573
2019-07-01T19:36:34.175Z,0.077678025,0.00075733935,0.07450286,1.5122681,1.2993011,8.745773,4.4952393,14.320374,-42.214966,0.09873914,1.5157782,9.688294,0.03073971,0.1897831,-0.52407074,-0.16734314,-0.123031616,-0.18916321
2019-07-01T19:36:34.369Z,0.023028081,0.0009789481,0.0006970091,-0.19621277,1.4117584,8.121246,0.82092285,18.218994,-40.36255,-0.018880488,0.45154995,9.79623,1.2262559,0.91851497,0.5635071,-0.3264618,-0.26402283,-0.6576996
2019-07-01T19:36:34.575Z,0.0071691303,0.029610256,-0.04597516,-1.3160553,1.2251282,11.234299,0.9552002,21.138,-39.54773,-0.5863354,0.11369598,9.788445,0.30216652,1.2881176,-0.58109856,-0.028366089,0.39816284,-0.42436218
2019-07-01T19:36:34.781Z,0.019742193,0.0672923,-0.041330244,-2.045868,0.14117432,10.310669,2.9541016,22.195435,-36.772156,-1.3314476,0.3313759,9.710192,-0.20211828,0.514005,-0.1603508,-0.032943726,0.12998962,0.24276733
2019-07-01T19:36:34.983Z,0.011260821,0.04545329,-0.018729651,-0.6077728,-1.2275238,10.071396,4.1885376,21.115112,-37.34436,-0.89449126,0.20388351,9.763642,-0.22030586,-1.0739956,0.9369488,-0.034957886,-0.1268158,0.0025177002
2019-07-01T19:36:35.186Z,0.007180394,0.045946494,-0.0455271,-1.3447723,-0.48812866,9.384644,4.560852,22.462463,-38.671875,-0.90566367,0.09950537,9.764235,-0.031850636,-0.7989555,-0.24543858,-0.048950195,-0.003189087,-0.35598755
2019-07-01T19:36:35.385Z,0.006213374,0.043489918,-0.034016244,-1.5553284,0.100494385,9.621536,3.0914307,22.15271,-39.353943,-0.85580856,0.09266132,9.768797,-0.8513598,-0.21030158,-0.33045006,-0.0054016113,-0.16200256,-0.24133301
2019-07-01T19:36:35.589Z,-0.0044646026,0.0177722,-0.062376156,-0.36131287,-0.0765686,10.887344,0.7598877,22.142029,-39.260864,-0.34237206,-0.10912289,9.800064,-0.79852426,0.26810253,-0.022795677,-0.014312744,-0.24649048,-0.34095764
2019-07-01T19:36:35.796Z,-0.0022385253,0.0076965406,-0.12461555,-0.0023956299,-1.0815582,10.750946,-0.8483887,23.620605,-37.080383,-0.14430177,-0.062372502,9.80539,-0.098466724,-0.16499755,0.47306347,0.04322815,-0.06677246,-0.8258209
2019-07-01T19:36:35.994Z,0.0077117733,-0.0047192555,-0.19801064,1.7156525,-0.9451599,9.9062805,-4.6539307,21.636963,-39.520264,0.060773846,0.16658008,9.805047,0.32634535,-1.0015495,0.32584667,0.15550232,-0.14239502,-0.6173248
2019-07-01T19:36:36.205Z,0.016643323,-0.022811787,-0.24346451,0.928421,-0.26081848,8.915665,-8.682251,19.696045,-39.674377,0.35429347,0.42540345,9.791011,1.0625165,-1.1595999,-0.49688148,0.057159424,-0.07685852,-0.2388916
2019-07-01T19:36:36.401Z,0.009228365,-0.026976816,-0.2328551,0.7465668,-0.6795654,9.035294,-10.592651,18.55774,-40.8844,0.47219244,0.29915228,9.790707,0.0017248392,-0.6704093,-0.40412903,0.011459351,-0.05479431,0.26115417
2019-07-01T19:36:36.602Z,-0.0046369964,-0.032722734,-0.18084379,1.7491608,-0.74894714,9.98764,-10.585022,18.47229,-39.164734,0.6473094,0.02666895,9.785228,0.5275351,-0.86564964,-0.4523735,-0.17008972,-0.06958008,0.69384766
2019-07-01T19:36:36.808Z,-0.025966344,-0.0404873,-0.11330417,1.6678009,0.2536316,10.607376,-8.743286,21.720886,-38.201904,0.8457551,-0.41543916,9.761275,0.75592625,0.39135045,0.14842129,-0.2284851,-0.10458374,0.3352661
2019-07-01T19:36:37.010Z,-0.027985703,-0.031381324,-0.11876537,-0.2632141,-0.28234863,9.643082,-8.659363,23.545837,-37.60681,0.67577624,-0.47141922,9.771975,-0.41411644,0.6203098,0.9368868,0.08934021,0.14170837,-0.03425598