rotationVector_x,rotationVector_y,rotationVector_z,accelerometer_x,accelerometer_y,accelerometer_z,magneticField_x,magneticField_y,magneticField_z,gravity_x,gravity_y,gravity_z,linearAcceleration_x,linearAcceleration_y,linearAcceleration_z,gyroscope_x,gyroscope_y,gyroscope_z
0.0107808355,-0.012150106,0.99174,0.23928833,-0.20578003,9.793823,4.0283203,-16.241455,-40.12146,0.24002102,-0.20943242,9.801476,0.00087952614,0.0015453845,0.0005502701,-0.00010681152,-0.00021362305,0.00030517578
0.010778339,-0.012152107,0.9917407,0.23449707,-0.21057129,9.808182,3.5202026,-15.188599,-39.585876,0.23997626,-0.20947894,9.801476,-0.00072568655,0.00014606118,-0.0010614395,-0.00010681152,-4.5776367e-05,0.00036621094
0.010766394,-0.01216235,0.9917442,0.23210144,-0.20817566,9.8033905,4.51355,-16.436768,-39.048767,0.23976374,-0.20971455,9.801476,-0.0005375594,-8.521974e-05,0.0020132065,1.5258789e-05,-0.00016784668,0.00030517578
0.01076129,-0.012117752,0.9917446,0.23928833,-0.21057129,9.808182,4.2373657,-15.437317,-38.75885,0.23955369,-0.2088595,9.801499,-0.0005699247,0.0014536977,-9.250641e-05,-4.5776367e-05,-4.5776367e-05,0.00036621094
0.010779619,-0.012172647,0.9917408,0.23449707,-0.20578003,9.805786,3.2745361,-15.583801,-37.5412,0.24005172,-0.20987593,9.801465,0.0006086081,-0.0016021729,9.727478e-05,7.6293945e-05,-4.5776367e-05,-0.00016784668
0.0107499305,-0.012148384,0.9917484,0.2416687,-0.21057129,9.7986145,4.156494,-15.367126,-39.193726,0.23940243,-0.20949122,9.801489,-0.00042118132,0.0006534904,4.1007996e-05,1.5258789e-05,7.6293945e-05,0.0
0.0107764,-0.012132657,0.9917408,0.23928833,-0.20817566,9.796219,4.043579,-16.256714,-38.160706,0.23989032,-0.20910516,9.801485,0.0012535304,0.00097468495,-0.00092983246,-4.5776367e-05,-0.00010681152,-4.5776367e-05
0.010810623,-0.012144462,0.99173176,0.2416687,-0.21057129,9.812973,3.3309937,-15.859985,-39.031982,0.24059942,-0.20923312,9.801465,0.001014635,-8.520484e-05,0.00018787384,-4.5776367e-05,1.5258789e-05,0.00018310547
0.010760737,-0.012153762,0.99174553,0.2368927,-0.20817566,9.8033905,3.7734985,-15.106201,-38.371277,0.23963034,-0.20956387,9.801481,-0.0020818412,-0.0007096231,0.0006046295,7.6293945e-05,-4.5776367e-05,0.00018310547
0.010780263,-0.012164814,0.99174047,0.23928833,-0.20817566,9.7986145,3.0303955,-15.52124,-38.34839,0.24004546,-0.20972115,9.801469,0.000633955,-0.00032405555,-0.0015077591,-4.5776367e-05,-0.00016784668,0.0005645752
0.0107464,-0.012144811,0.9917493,0.2416687,-0.21534729,9.789032,3.7979126,-14.674377,-37.52899,0.23932353,-0.20943205,9.801492,-0.0022284538,0.0008046627,-4.1007996e-05,-0.00016784668,-0.00021362305,0.00018310547
0.010762236,-0.012166283,0.9917454,0.2416687,-0.21057129,9.805786,4.161072,-15.296936,-38.65204,0.23969062,-0.20980372,9.801475,0.00029464066,-0.00027683377,-0.00178051,1.5258789e-05,-0.00016784668,0.00030517578
0.010785518,-0.012161091,0.991739,0.2416687,-0.20817566,9.796219,4.4433594,-14.479065,-38.27057,0.24014086,-0.20963275,9.801468,0.00030450523,0.0005247295,0.0010576248,7.6293945e-05,-4.5776367e-05,0.00024414062
0.010782063,-0.012118079,0.9917389,0.23928833,-0.21057129,9.7986145,4.283142,-16.38794,-38.049316,0.2399674,-0.20880374,9.80149,-0.00071822107,0.0016234517,0.0005455017,-4.5776367e-05,-0.00010681152,0.00036621094
0.010769719,-0.012131429,0.9917426,0.2368927,-0.20100403,9.805786,3.3981323,-16.374207,-37.93335,0.23975453,-0.20910117,9.801488,-0.00053320825,-0.00092339516,0.002275467,1.5258789e-05,7.6293945e-05,0.0
0.010787642,-0.012123727,0.99173754,0.2416687,-0.20817566,9.805786,3.5766602,-15.69519,-39.389038,0.24009207,-0.2088973,9.801485,0.00030077994,0.0005520135,0.0015211105,-4.5776367e-05,-0.0002746582,6.1035156e-05
0.010792854,-0.012118967,0.991736,0.23210144,-0.20817566,9.7986145,4.0512085,-15.80658,-39.73236,0.2401841,-0.2087888,9.801485,-0.0004914403,0.0004287064,-0.00137043,-0.000289917,-0.00016784668,0.00012207031
0.010785427,-0.012171319,0.9917392,0.23928833,-0.21534729,9.8033905,4.006958,-15.237427,-38.48114,0.24016395,-0.20983262,9.801463,-0.0007006228,-0.0011646003,-0.0012178421,-0.00010681152,-4.5776367e-05,6.1035156e-05
0.010782431,-0.012194465,0.9917406,0.23928833,-0.20817566,9.793823,3.3920288,-16.217041,-39.48822,0.24016075,-0.21029328,9.801454,-0.00019526482,1.1473894e-06,-0.0011301041,-0.00010681152,1.5258789e-05,0.00030517578
0.010765468,-0.012166896,0.9917446,0.2416687,-0.20817566,9.812973,4.1122437,-16.316223,-39.385986,0.23975635,-0.209806,9.801473,-0.00074636936,0.0009431243,-0.00042819977,7.6293945e-05,-0.00021362305,6.1035156e-05
0.010744923,-0.012117679,0.99174905,0.23928833,-0.21534729,9.8033905,3.9978027,-15.531921,-37.937927,0.23922814,-0.20890702,9.801506,-0.0016655028,0.0019627959,0.0011548996,-0.00010681152,-4.5776367e-05,0.00012207031
0.010773606,-0.012095661,0.9917407,0.2416687,-0.20817566,9.805786,3.994751,-15.52887,-38.31482,0.2397447,-0.20839158,9.801504,0.00021590292,0.0012162477,-0.0001783371,7.6293945e-05,-0.00016784668,0.00024414062
0.010757727,-0.012075786,0.9917446,0.24406433,-0.20578003,9.800995,3.4164429,-15.856934,-38.508606,0.23938066,-0.2080512,9.80152,-0.0006314218,0.00016383827,0.00050735474,1.5258789e-05,-0.00010681152,0.00012207031
0.010803103,-0.012095993,0.9917327,0.24406433,-0.21534729,9.8033905,2.935791,-15.742493,-38.69171,0.24033186,-0.2083098,9.801492,0.0010679215,-7.531047e-05,-0.0009241104,-4.5776367e-05,-0.00016784668,0.00018310547
0.01079115,-0.01206606,0.9917353,0.2368927,-0.21057129,9.800995,4.4815063,-17.094421,-39.331055,0.24002132,-0.20776144,9.801511,-0.0010187924,0.0008120239,0.0001783371,-0.00016784668,-4.5776367e-05,0.00030517578
0.010750287,-0.0121142175,0.9917475,0.2368927,-0.21057129,9.789032,4.5700073,-15.274048,-38.13629,0.23932634,-0.20882343,9.801505,-0.0015230924,-0.0012305379,0.0007677078,-0.00022888184,-0.00010681152,0.00018310547
0.010750994,-0.012146025,0.99174803,0.2416687,-0.21057129,9.800995,3.9016724,-15.904236,-37.782288,0.23941784,-0.209442,9.80149,-0.00043274462,-0.00011628866,0.0006875992,-0.00016784668,-0.00016784668,0.00024414062
0.010764491,-0.012161559,0.9917447,0.2416687,-0.21057129,9.810577,4.5425415,-15.856934,-38.40332,0.23972397,-0.2097048,9.8014765,0.00045128167,-9.7602606e-05,-1.5258789e-05,-4.5776367e-05,1.5258789e-05,0.00018310547
0.01075911,-0.012157811,0.99174607,0.2368927,-0.20578003,9.800995,4.3258667,-15.211487,-39.16931,0.23960784,-0.20964773,9.80148,-0.00014948845,0.0003181249,-9.536743e-06,-0.00016784668,-4.5776367e-05,0.00024414062
0.010767432,-0.012155106,0.99174374,0.2416687,-0.20578003,9.8033905,4.521179,-16.142273,-39.593506,0.23976673,-0.20957008,9.801478,-7.240474e-05,-0.0016597956,0.0013246536,1.5258789e-05,1.5258789e-05,0.00024414062
0.010774809,-0.012175917,0.9917422,0.23928833,-0.21296692,9.810577,3.5140991,-15.638733,-37.86316,0.23996404,-0.20995411,9.801465,0.0002116561,-0.000565812,-0.0007009506,7.6293945e-05,-4.5776367e-05,6.1035156e-05
0.010747592,-0.012179524,0.9917497,0.23928833,-0.2033844,9.805786,3.9962769,-15.3793335,-38.887024,0.23943174,-0.2101059,9.801476,-0.00071558356,-0.00063590705,0.002081871,7.6293945e-05,-0.00016784668,0.00012207031
0.010768666,-0.012168984,0.99174374,0.2416687,-0.20817566,9.7986145,3.7139893,-16.345215,-38.84735,0.23982503,-0.20983718,9.801471,0.000112622976,4.2423606e-05,-0.001326561,1.5258789e-05,-0.00016784668,-6.1035156e-05
0.010803867,-0.012144555,0.9917336,0.2416687,-0.21534729,9.800995,3.9047241,-15.7547,-38.130188,0.24046534,-0.20925516,9.801468,0.00043308735,0.0018428713,-0.0011882782,-4.5776367e-05,-4.5776367e-05,0.0
0.010797919,-0.012115344,0.99173456,0.2368927,-0.20100403,9.805786,3.9169312,-15.612793,-37.646484,0.24027592,-0.20870294,9.801484,-0.00056521595,0.0010442883,-0.00016021729,-4.5776367e-05,-0.00010681152,6.1035156e-05
0.010773418,-0.012096802,0.9917408,0.2416687,-0.21296692,9.8033905,3.717041,-16.197205,-39.346313,0.23974372,-0.20841439,9.801503,-0.0017115176,0.00028279424,5.9127808e-05,7.6293945e-05,-0.00016784668,0.00012207031
0.010762708,-0.012078152,0.9917433,0.24885559,-0.21296692,9.800995,3.5171509,-15.187073,-39.81018,0.23948546,-0.20808251,9.8015175,-0.00094744563,0.0006528199,-0.0013914108,1.5258789e-05,-0.00010681152,6.1035156e-05
0.010798818,-0.012104495,0.991734,0.24406433,-0.2033844,9.7986145,3.5171509,-15.264893,-39.071655,0.24026738,-0.20848852,9.801489,0.0011440217,-0.0010968149,-0.00044822693,0.0001373291,-4.5776367e-05,6.1035156e-05
0.010779427,-0.012106547,0.9917394,0.23449707,-0.20578003,9.7986145,3.1845093,-15.655518,-38.531494,0.23988692,-0.2085866,9.8014965,-0.0011309683,-0.00074090064,0.0012979507,-0.00016784668,-0.0002746582,0.00032043457
0.010781075,-0.012143279,0.99173975,0.2416687,-0.21296692,9.817749,3.4881592,-16.149902,-37.96692,0.24000914,-0.20929848,9.801478,-0.0005428046,-0.00075541437,0.00055122375,7.6293945e-05,-4.5776367e-05,0.0
0.010780564,-0.012097675,0.99173886,0.2368927,-0.21296692,9.8033905,3.251648,-16.018677,-38.00659,0.23988791,-0.20841008,9.8015,-0.00017951429,0.0017147511,0.00021457672,-4.5776367e-05,7.6293945e-05,0.00024414062
0.010766715,-0.012110722,0.99174297,0.23928833,-0.20578003,9.808182,4.1671753,-17.04712,-38.705444,0.23964438,-0.2087061,9.801499,-0.00017598271,-0.00014421344,-0.00033473969,-0.00016784668,7.6293945e-05,0.00012207031
0.0107702045,-0.012084098,0.9917414,0.2416687,-0.20100403,9.812973,4.2663574,-16.679382,-38.48419,0.23964891,-0.20817609,9.801511,6.67274e-05,0.0017186254,-0.0002193451,-0.00022888184,-0.00010681152,0.00012207031
0.010805183,-0.012083243,0.9917318,0.24406433,-0.21534729,9.800995,3.0456543,-17.053223,-38.056946,0.24034211,-0.20805474,9.8014965,0.0007917732,0.00064975023,0.0012960434,0.00019836426,-0.00021362305,0.00024414062
0.010778531,-0.012076053,0.9917389,0.23928833,-0.21057129,9.808182,2.8030396,-15.168762,-38.494873,0.23979484,-0.2079942,9.801511,-0.0015182048,-0.0006107837,-0.00089740753,-0.00010681152,7.6293945e-05,0.00018310547
0.01076482,-0.012137061,0.99174404,0.2368927,-0.2033844,9.805786,4.637146,-15.710449,-37.547302,0.23967086,-0.20922574,9.801488,0.00028900802,-0.0020228624,-0.00043678284,1.5258789e-05,7.6293945e-05,0.00036621094
0.010746685,-0.012123825,0.9917487,0.23928833,-0.21534729,9.8033905,3.5736084,-16.072083,-37.878418,0.23927814,-0.20902167,9.801502,-0.00073698163,0.000399217,-0.0012483597,7.6293945e-05,-4.5776367e-05,6.1035156e-05
0.0107681025,-0.012122465,0.99174285,0.2416687,-0.20578003,9.805786,3.9169312,-15.612793,-37.495422,0.23970057,-0.2089311,9.801494,0.0007248223,0.00032873452,0.0018758774,-0.00010681152,7.6293945e-05,0.00012207031
0.010780763,-0.012133472,0.99173963,0.23449707,-0.21774292,9.8033905,3.35083,-15.499878,-38.58185,0.23997906,-0.20910801,9.801483,0.0008997321,3.4436584e-05,0.0015764236,-0.00022888184,7.6293945e-05,0.00024414062
0.010764721,-0.0121502625,0.9917444,0.2368927,-0.21057129,9.817749,3.9047241,-15.7547,-38.130188,0.23970105,-0.20948367,9.801482,-0.00048063695,-6.698072e-05,-0.00037956238,-4.5776367e-05,1.5258789e-05,0.00012207031
0.010739926,-0.012113368,0.9917503,0.23210144,-0.20817566,9.796219,4.147339,-15.739441,-38.28888,0.23911832,-0.2088378,9.80151,-0.0008649379,0.0016877651,0.00054073334,-0.00016784668,1.5258789e-05,-0.00012207031
0.010719734,-0.012160206,0.99175686,0.2416687,-0.20578003,9.810577,3.0319214,-15.522766,-38.198853,0.2388309,-0.20981216,9.8014965,-0.0010063648,-0.0009773672,-0.0036182404,-0.00010681152,-0.00021362305,0.00012207031
0.010745881,-0.012117624,0.9917488,0.23928833,-0.21057129,9.7986145,3.8330078,-15.692139,-37.661743,0.2388952,-0.20870979,9.801518,-0.0008648485,0.00033588707,0.00020503998,1.5258789e-05,7.6293945e-05,0.0
0.010760509,-0.01213325,0.9917452,0.23928833,-0.20817566,9.810577,3.8269043,-15.611267,-38.77716,0.2395759,-0.20916428,9.801492,0.001597926,-0.0009149015,-0.0025815964,1.5258789e-05,1.5258789e-05,-6.1035156e-05
0.010783853,-0.0121746035,0.99173975,0.2368927,-0.2033844,9.8033905,3.8208008,-15.985107,-37.493896,0.24014066,-0.20990144,9.801462,0.0010065436,-0.001344651,0.0021162033,1.5258789e-05,-4.5776367e-05,6.1035156e-05
0.0107932165,-0.012165956,0.991737,0.23928833,-0.20100403,9.8033905,3.9978027,-15.380859,-38.661194,0.24030575,-0.20970467,9.801462,-0.00033657253,0.00012636185,-0.0009870529,7.6293945e-05,-0.00033569336,0.00018310547
0.010797414,-0.012150331,0.99173546,0.2416687,-0.21057129,9.808182,4.2053223,-16.244507,-38.39264,0.24035114,-0.2093872,9.801468,-0.0006528497,0.00079344213,0.0022192001,-0.00022888184,1.5258789e-05,0.00030517578
0.010796445,-0.012184382,0.99173653,0.23928833,-0.21057129,9.7986145,4.2800903,-14.715576,-37.48169,0.24041483,-0.21005459,9.801453,0.00046099722,-0.00069470704,0.0010032654,-4.5776367e-05,7.6293945e-05,0.00024414062
0.01079081,-0.012158281,0.9917375,0.2416687,-0.21774292,9.796219,4.8095703,-15.405273,-37.869263,0.24023923,-0.20956212,9.801468,-0.0005398989,0.0009675175,-0.0010795593,7.6293945e-05,-4.5776367e-05,6.1035156e-05
0.010777237,-0.012160539,0.99174124,0.23928833,-0.20578003,9.8033905,3.8009644,-14.524841,-38.027954,0.23997487,-0.20964676,9.801472,-0.0002568066,-0.00041370094,-0.0015277863,-4.5776367e-05,-0.00010681152,0.0004272461
0.010751024,-0.012093187,0.99174684,0.2416687,-0.20578003,9.805786,3.90625,-15.756226,-38.053894,0.23928979,-0.20841083,9.801515,-0.0017309934,0.002675265,0.0007457733,7.6293945e-05,-0.00010681152,0.00018310547
0.010756072,-0.012100723,0.99174565,0.23928833,-0.21296692,9.7986145,3.1707764,-16.02478,-38.305664,0.23940848,-0.20854278,9.801509,-0.0004118383,-0.0007816255,-0.00029468536,1.5258789e-05,-0.00010681152,6.1035156e-05
0.010771671,-0.012098746,0.9917413,0.24645996,-0.20578003,9.786652,4.168701,-15.226746,-38.485718,0.23971374,-0.20845756,9.801503,0.00046177208,0.00033308566,0.00091457367,-4.5776367e-05,-4.5776367e-05,0.00012207031
0.010780668,-0.012109942,0.99173915,0.2368927,-0.20817566,9.815353,4.045105,-16.25824,-37.860107,0.23991987,-0.20864914,9.801495,0.00025571883,5.157292e-05,-1.6212463e-05,0.0001373291,1.5258789e-05,0.00018310547
0.010735287,-0.01207707,0.9917507,0.2416687,-0.21296692,9.7986145,3.6621094,-15.7699585,-38.424683,0.23893775,-0.20814334,9.801529,-0.0023506284,0.00026533008,0.00030231476,7.6293945e-05,-0.00016784668,0.00018310547
0.010794133,-0.01202857,0.9917336,0.23928833,-0.1986084,9.808182,2.9541016,-15.531921,-37.51831,0.23998924,-0.20702092,9.801527,0.0014118403,0.0019914806,-0.0018701553,0.0001373291,-0.00010681152,0.00012207031
0.0107901255,-0.012013752,0.9917343,0.24406433,-0.21057129,9.800995,3.4927368,-15.85083,-38.812256,0.23987347,-0.20674375,9.801536,-0.0006240308,0.00028009713,3.6239624e-05,-4.5776367e-05,-0.0002746582,0.00030517578
0.010814339,-0.0120277535,0.99172807,0.23928833,-0.21057129,9.808182,3.4805298,-16.371155,-37.557983,0.24038883,-0.2069445,9.801518,3.2663345e-05,8.121133e-06,0.0014696121,-0.00022888184,-0.00010681152,0.00012207031
0.010789101,-0.012100183,0.9917366,0.2368927,-0.21534729,9.812973,3.251648,-16.018677,-38.00659,0.24006373,-0.20843348,9.801496,-0.0008289665,-0.0018471628,-0.00029277802,-0.00010681152,-0.00016784668,0.00012207031
0.01077578,-0.012107371,0.9917404,0.24406433,-0.21774292,9.805786,3.4423828,-17.02118,-38.59558,0.23981644,-0.20861359,9.801497,-0.0010928065,-0.00068578124,0.0018835068,7.6293945e-05,-4.5776367e-05,0.00030517578
0.010759132,-0.012092801,0.9917446,0.22970581,-0.20578003,9.793823,3.2470703,-16.0141,-38.609314,0.23945002,-0.20837906,9.801512,-0.0007004142,0.00024729967,-0.0020933151,1.5258789e-05,-4.5776367e-05,-0.00012207031
0.010740328,-0.0121458685,0.99175096,0.2416687,-0.21534729,9.8033905,3.918457,-15.463257,-38.07068,0.2392054,-0.20947085,9.801495,-0.0006816387,-0.0022491068,-0.00027561188,-4.5776367e-05,-0.00010681152,0.00012207031
0.010747694,-0.012139288,0.99174875,0.22970581,-0.1986084,9.810577,3.829956,-15.536499,-38.838196,0.23933583,-0.20932041,9.801495,-0.00034834445,0.00047717988,0.0007791519,0.0001373291,-0.00010681152,0.00012207031
0.010771731,-0.012081005,0.9917409,0.2416687,-0.21057129,9.810577,3.919983,-15.312195,-38.720703,0.23967172,-0.20811118,9.801512,0.0005057752,0.0021363795,4.1007996e-05,-4.5776367e-05,-4.5776367e-05,0.00024414062
0.010778815,-0.012090468,0.9917392,0.23928833,-0.2033844,9.7986145,3.3554077,-15.350342,-38.705444,0.23983558,-0.20827465,9.801504,-0.00011205673,-0.0003411919,-0.0015668869,1.5258789e-05,-4.5776367e-05,6.1035156e-05
0.01077483,-0.012094784,0.99174035,0.24645996,-0.2033844,9.805786,3.6727905,-15.70282,-37.657166,0.2397669,-0.2083708,9.801504,-5.0097704e-05,-1.02669e-05,0.0005531311,1.5258789e-05,-4.5776367e-05,0.00024414062
0.010777016,-0.012127538,0.9917405,0.23928833,-0.21534729,9.8033905,3.1646729,-16.093445,-38.69629,0.23989014,-0.20900345,9.801488,7.5653195e-05,-0.001533255,-0.00043582916,1.5258789e-05,7.6293945e-05,-0.00016784668
0.010814525,-0.012126153,0.9917303,0.24645996,-0.21296692,9.808182,3.7521362,-15.6188965,-38.09662,0.24063239,-0.20886417,9.801473,0.0017438531,0.00071009994,-0.0012464523,-0.00016784668,-4.5776367e-05,0.00012207031
0.01082129,-0.012177726,0.9917296,0.23928833,-0.21296692,9.808182,3.8970947,-15.899658,-38.459778,0.24089254,-0.20985031,9.801445,-3.2186508e-06,-0.0016281009,0.003001213,-0.00010681152,-0.00016784668,0.0
0.010799892,-0.012152517,0.99173486,0.2416687,-0.21296692,9.808182,4.484558,-15.579224,-37.21161,0.24040572,-0.20942244,9.801466,-0.001168102,0.0017639846,-0.00086021423,-0.00016784668,7.6293945e-05,0.00012207031
0.010768352,-0.012145704,0.9917433,0.23449707,-0.21057129,9.812973,3.3538818,-15.501404,-38.05542,0.23976214,-0.20938385,9.801483,-0.001001358,0.00052531064,-0.0008878708,-4.5776367e-05,-0.00016784668,0.00018310547
0.010815156,-0.012102228,0.99172956,0.23928833,-0.21057129,9.7986145,3.2730103,-15.4296875,-38.490295,0.24058661,-0.20839536,9.801483,0.0010343939,0.0014512241,0.00068092346,0.0001373291,7.6293945e-05,0.00012207031
0.010768001,-0.012130746,0.991743,0.2368927,-0.20100403,9.8033905,3.3203125,-16.307068,-37.84027,0.23971872,-0.209093,9.80149,-0.0014369637,-0.0014387965,-0.00017929077,-4.5776367e-05,-4.5776367e-05,0.00012207031
0.010780038,-0.012086714,0.9917388,0.24406433,-0.20817566,9.808182,3.9978027,-15.531921,-37.937927,0.23985076,-0.20819773,9.801505,0.00010550022,0.0019721538,0.00036144257,-4.5776367e-05,-0.00016784668,0.00030517578
0.010757089,-0.012085441,0.991745,0.23210144,-0.2033844,9.800995,3.37677,-14.990234,-37.950134,0.23939148,-0.20824152,9.801516,-0.0018384308,-0.0008460134,0.0007543564,7.6293945e-05,-4.5776367e-05,0.00024414062
0.01074155,-0.012079949,0.9917491,0.23928833,-0.20578003,9.805786,4.170227,-15.2282715,-38.259888,0.23906925,-0.20818083,9.801526,-0.00080282986,0.00030207634,0.00034236908,-0.00010681152,-0.00016784668,0.00012207031
0.0107183065,-0.012049814,0.9917548,0.2368927,-0.20817566,9.800995,3.6605835,-15.995789,-37.48932,0.23853387,-0.20766218,9.801549,-0.00074638426,0.0012228787,0.0005426407,1.5258789e-05,1.5258789e-05,0.00012207031
0.010738787,-0.012105448,0.9917504,0.2416687,-0.21057129,9.8033905,3.3752441,-15.138245,-37.52899,0.23907639,-0.20868666,9.801514,0.0011226237,-0.0020693243,-0.0013885498,-4.5776367e-05,7.6293945e-05,0.00012207031
0.010742707,-0.012084161,0.99174887,0.23449707,-0.21534729,9.8033905,3.9276123,-15.318298,-37.815857,0.23910251,-0.20825957,9.801523,-0.0005761534,0.00084011257,-0.00044250488,1.5258789e-05,-4.5776367e-05,0.00030517578
0.010753353,-0.012103379,0.9917464,0.23449707,-0.1986084,9.791428,3.0151367,-15.887451,-38.119507,0.2393609,-0.20860276,9.801509,0.00011283159,-0.0004963279,-0.00012779236,7.6293945e-05,-0.00016784668,0.00018310547
0.010767833,-0.012084237,0.991742,0.24645996,-0.21057129,9.808182,3.5751343,-15.922546,-38.227844,0.23960215,-0.20818594,9.801513,0.00010931492,0.0017320961,0.00055503845,-0.00035095215,-4.5776367e-05,0.00024414062
0.010798281,-0.01209513,0.99173397,0.2368927,-0.20817566,9.810577,2.8182983,-15.032959,-37.182617,0.24023388,-0.20830737,9.801494,0.0013740212,0.00018441677,0.0008506775,-0.00010681152,-4.5776367e-05,0.00024414062
0.010748675,-0.012115877,0.991748,0.2416687,-0.20817566,9.812973,4.055786,-15.887451,-38.69171,0.23929834,-0.20886064,9.801505,-0.002232477,-0.00044326484,0.0009012222,-0.00016784668,-0.00016784668,0.0005645752
0.010719515,-0.0121058,0.9917557,0.2416687,-0.21296692,9.805786,3.4332275,-15.41748,-38.645935,0.23869413,-0.2087511,9.801521,-0.0013942868,0.0011060834,-0.00034809113,-0.00010681152,7.6293945e-05,6.1035156e-05
0.01071509,-0.012105251,0.9917569,0.2368927,-0.20578003,9.808182,3.5263062,-15.194702,-38.68103,0.23860487,-0.20875363,9.801525,-0.000106319785,-7.5653195e-05,0.0005607605,-0.00010681152,-0.00010681152,6.1035156e-05
0.010699455,-0.012065082,0.99176025,0.24645996,-0.20817566,9.800995,3.0273438,-15.670776,-37.850952,0.23819631,-0.20801643,9.80155,-0.00093217194,0.0016079396,0.0024518967,7.6293945e-05,-4.5776367e-05,0.0
0.0107204765,-0.0120900525,0.99175507,0.23928833,-0.20817566,9.817749,3.668213,-15.623474,-38.62152,0.23867494,-0.20844093,9.801529,0.00075902045,-0.0006233156,-0.0015573502,-0.00016784668,-4.5776367e-05,0.00018310547
0.010774306,-0.012095575,0.9917405,0.24406433,-0.21296692,9.812973,3.9169312,-15.463257,-38.371277,0.23975842,-0.2083878,9.801504,0.0013522208,0.0002860427,8.869171e-05,1.5258789e-05,-0.00021362305,0.00018310547
0.010805337,-0.012147841,0.99173325,0.2416687,-0.21057129,9.812973,3.9001465,-15.750122,-38.809204,0.24050257,-0.20931488,9.801466,0.0010831952,-0.0014283508,-0.00024986267,-4.5776367e-05,1.5258789e-05,-0.00012207031
0.010817811,-0.0121484725,0.99172986,0.24406433,-0.21057129,9.805786,3.8070679,-16.049194,-38.86566,0.24075209,-0.20928985,9.80146,0.00035472214,0.00047428906,0.0004787445,-0.00010681152,-0.00016784668,0.00030517578
0.010825744,-0.012153191,0.9917278,0.2416687,-0.20817566,9.812973,2.8381348,-16.035461,-39.42871,0.24092129,-0.20935816,9.801455,-0.00028957427,-0.0004169494,0.00015926361,1.5258789e-05,-0.00010681152,0.00024414062
0.010816957,-0.012165398,0.9917305,0.24406433,-0.20817566,9.805786,3.9886475,-15.67688,-38.34381,0.24077635,-0.20962271,9.801453,-0.0008825511,-0.00037831068,0.001709938,-4.5776367e-05,-0.00016784668,0.00018310547
0.010812735,-0.012149967,0.9917313,0.23928833,-0.20817566,9.8033905,4.3777466,-15.940857,-38.414,0.24065481,-0.20933421,9.801461,0.00043947995,4.1291118e-05,-0.00052165985,1.5258789e-05,7.6293945e-05,0.00012207031
0.010761089,-0.012136643,0.99174505,0.2416687,-0.20100403,9.7986145,3.5186768,-15.342712,-38.331604,0.23959567,-0.20922874,9.80149,-0.0018317848,0.00065876544,-0.0008249283,7.6293945e-05,1.5258789e-05,0.00012207031
0.010758305,-0.012103867,0.99174505,0.23449707,-0.20817566,9.800995,3.340149,-15.943909,-37.464905,0.23946051,-0.20859745,9.801506,-0.00048941374,0.0021639168,-0.0013360977,-0.000289917,-4.5776367e-05,0.0
0.010745704,-0.0120967915,0.99174833,0.2416687,-0.21774292,9.800995,3.2989502,-14.918518,-38.313293,0.2391928,-0.20849705,9.801515,-0.0006970763,-8.586049e-05,0.00021743774,-4.5776367e-05,7.6293945e-05,7.6293945e-05
0.010745737,-0.012122125,0.9917489,0.24406433,-0.20817566,9.8033905,3.038025,-15.377808,-37.942505,0.23925513,-0.20899133,9.801503,-4.0456653e-05,-0.0010273308,-0.00016880035,1.5258789e-05,-0.00016784668,0.00012207031
0.010797417,-0.012114354,0.9917347,0.23449707,-0.20578003,9.800995,3.4439087,-15.274048,-38.391113,0.24026357,-0.20868514,9.801486,0.0018283278,0.00081016123,-0.0007505417,1.5258789e-05,1.5258789e-05,6.1035156e-05
0.010759094,-0.012109822,0.991745,0.2368927,-0.21057129,9.800995,3.2333374,-14.862061,-36.862183,0.23949073,-0.20871133,9.801504,-0.0014759004,0.00059498847,0.00030708313,-0.00022888184,-4.5776367e-05,0.00012207031
0.01074049,-0.012121461,0.99175036,0.2416687,-0.20578003,9.805786,5.230713,-14.941406,-38.16986,0.23914923,-0.20899406,9.801506,-0.00087307394,-0.00057144463,-0.0013914108,7.6293945e-05,1.5258789e-05,0.00012207031
0.010759223,-0.012108921,0.99174494,0.23928833,-0.20100403,9.812973,4.161072,-15.522766,-37.791443,0.23949109,-0.20869336,9.801504,0.00047676265,0.0007946193,-0.0010881424,1.5258789e-05,-4.5776367e-05,0.00012207031
0.010758393,-0.012069353,0.9917443,0.2416687,-0.21057129,9.805786,4.2099,-16.249084,-37.71515,0.23937824,-0.2079237,9.801523,-0.0006239116,0.0014662296,0.0007123947,-0.00010681152,1.5258789e-05,-4.5776367e-05
0.010776465,-0.012058685,0.9917391,0.23928833,-0.21057129,9.808182,3.4469604,-15.2786255,-37.86316,0.23971145,-0.20766146,9.80152,1.0058284e-05,0.00048162043,-0.00047588348,1.5258789e-05,-0.0002746582,0.0
0.010741641,-0.012096573,0.99174947,0.24406433,-0.21057129,9.800995,4.1625977,-15.524292,-37.41455,0.2391115,-0.20850493,9.801517,-0.0013186485,-0.0012958795,0.0017623901,-0.00010681152,1.5258789e-05,0.00018310547
0.010751582,-0.012114795,0.99174714,0.2416687,-0.20817566,9.7986145,3.4439087,-15.426636,-37.364197,0.23935348,-0.20883082,9.801504,9.582937e-05,-0.00047576427,0.000538826,-4.5776367e-05,-0.00016784668,6.1035156e-05
0.010770477,-0.012064224,0.9917409,0.24645996,-0.2033844,9.815353,2.84729,-16.044617,-38.223267,0.23960592,-0.20778745,9.801519,0.00033728778,0.0020614266,-0.00043296814,7.6293945e-05,-4.5776367e-05,0.00018310547
0.010773959,-0.012061359,0.99173987,0.2416687,-0.21057129,9.808182,3.1188965,-15.370178,-38.0188,0.23966816,-0.20772116,9.80152,1.49309635e-05,8.636713e-05,0.0013093948,-4.5776367e-05,-0.00010681152,0.0004272461
0.010751412,-0.012099911,0.99174684,0.24406433,-0.21774292,9.800995,3.4347534,-15.571594,-37.771606,0.2393139,-0.20854089,9.801512,-0.0008354634,-0.0012324303,0.0011930466,-4.5776367e-05,1.5258789e-05,0.00036621094
0.010707632,-0.012138796,0.99175966,0.23928833,-0.20817566,9.810577,4.060364,-15.892029,-38.012695,0.2385382,-0.2094305,9.801512,-0.0014954209,-0.0013157427,-0.0011148453,-0.00010681152,1.5258789e-05,0.00036621094
0.010693961,-0.012137996,0.99176335,0.2368927,-0.21296692,9.7986145,4.611206,-15.989685,-39.491272,0.23826447,-0.20945568,9.8015175,-0.0004838258,0.00015433133,-0.0004272461,-4.5776367e-05,-4.5776367e-05,0.00012207031
0.010702775,-0.01214416,0.99176115,0.2368927,-0.2033844,9.796219,4.400635,-15.505981,-37.94861,0.2384547,-0.2095497,9.801512,4.4599175e-05,0.0007200241,-0.000113487244,-0.00022888184,-4.5776367e-05,0.00024414062
0.010721264,-0.012093879,0.99175495,0.2416687,-0.21057129,9.820145,2.9968262,-16.252136,-38.42163,0.23869994,-0.20851329,9.801528,4.696846e-05,0.0018183738,-0.0015087128,1.5258789e-05,-9.1552734e-05,6.1035156e-05
0.01071887,-0.012106201,0.9917559,0.2368927,-0.21296692,9.796219,3.5324097,-14.974976,-38.635254,0.2386823,-0.20876086,9.801522,-0.0001733005,-7.7560544e-05,0.00074863434,1.5258789e-05,-0.00010681152,0.00030517578
0.010727288,-0.012128167,0.9917541,0.24406433,-0.21057129,9.796219,3.6483765,-15.985107,-38.996887,0.2389031,-0.20916437,9.801508,-0.00017353892,-0.00062803924,0.0006685257,-0.00010681152,1.5258789e-05,6.1035156e-05
0.010761109,-0.01213371,0.991745,0.2368927,-0.20578003,9.815353,3.9993286,-15.382385,-38.51013,0.23958893,-0.20917144,9.801491,-0.00013673306,0.00057952106,0.00067424774,-0.00022888184,-0.00021362305,0.00030517578
0.010752148,-0.01213723,0.9917475,0.2368927,-0.21534729,9.800995,3.7979126,-14.671326,-37.680054,0.23941937,-0.20926693,9.801494,-0.00070129335,-2.7284026e-05,0.0014104843,7.6293945e-05,-0.00010681152,0.00012207031
0.010733753,-0.012114021,0.991752,0.2368927,-0.21296692,9.810577,3.501892,-15.629578,-38.91754,0.2389972,-0.20886901,9.801513,-0.0014702678,0.0012388527,0.00015544891,-4.5776367e-05,-0.00016784668,0.00036621094
0.01072899,-0.0121739935,0.99175465,0.23928833,-0.20817566,9.800995,1.953125,-16.326904,-37.864685,0.23904842,-0.21005355,9.801485,-0.0003156513,-0.0021370947,-0.001326561,-0.00010681152,-0.00010681152,0.00030517578
0.0107449815,-0.012191878,0.9917507,0.23928833,-0.21057129,9.812973,3.9215088,-15.313721,-38.56964,0.23940988,-0.21035475,9.80147,5.045533e-05,-0.00088374317,-0.00088119507,1.5258789e-05,-0.00021362305,-6.1035156e-05
0.0107187675,-0.01214018,0.9917567,0.23928833,-0.20578003,9.808182,2.5344849,-15.7699585,-38.832092,0.23876296,-0.20942426,9.801507,-0.00074639916,0.0015509129,0.0008401871,7.6293945e-05,0.0001373291,0.00012207031
0.010752688,-0.012147507,0.9917476,0.24406433,-0.1986084,9.805786,3.6437988,-16.28418,-38.00049,0.23945513,-0.20946588,9.801489,0.00073838234,0.00013387203,-0.0008678436,1.5258789e-05,-0.00010681152,6.1035156e-05
0.010778594,-0.012124242,0.99174,0.2368927,-0.21057129,9.8033905,4.5700073,-15.501404,-36.97357,0.23991346,-0.20893441,9.801489,0.0005160123,0.0010456145,-0.0005750656,-4.5776367e-05,-0.00010681152,0.00036621094
0.01075286,-0.012096886,0.9917464,0.24406433,-0.21534729,9.805786,3.4164429,-15.858459,-38.357544,0.23933528,-0.2084775,9.801512,-0.0013135523,0.00082814693,0.0010519028,7.6293945e-05,-0.00010681152,6.1035156e-05
0.010744558,-0.012166734,0.99175024,0.24406433,-0.20578003,9.800995,3.5629272,-16.137695,-38.874817,0.23934028,-0.20986536,9.801482,-0.0008197129,-0.0016228706,-0.00088119507,-0.00022888184,-0.00010681152,6.1035156e-05
0.010747551,-0.012124804,0.9917485,0.23928833,-0.21296692,9.812973,3.3416748,-15.640259,-38.912964,0.23929773,-0.20903818,9.801501,-5.042553e-05,0.0013713837,-0.00075244904,-0.00010681152,-0.00010681152,0.0
0.010721042,-0.012128258,0.9917558,0.2416687,-0.20817566,9.808182,4.081726,-15.30304,-38.497925,0.23877916,-0.20918481,9.801511,-0.00074259937,0.00033256412,0.00046634674,-4.5776367e-05,0.0001373291,-6.1035156e-05
0.010762777,-0.012136206,0.9917446,0.23449707,-0.21534729,9.808182,3.5888672,-15.707397,-37.805176,0.23962815,-0.20921516,9.801489,0.0015246719,0.00060388446,-0.00032424927,-0.00010681152,-0.00010681152,0.00012207031
0.010762536,-0.012132533,0.9917446,0.2368927,-0.21296692,9.800995,3.5079956,-15.789795,-37.21466,0.23961443,-0.2091442,9.801491,-0.00038561225,0.00054745376,0.0013875961,-4.5776367e-05,-0.00010681152,7.6293945e-05
0.010794598,-0.012131924,0.9917358,0.24406433,-0.20817566,9.8033905,4.3777466,-16.091919,-37.763977,0.24025029,-0.20903641,9.801477,0.00064371526,-5.0485134e-05,-0.00019073486,1.5258789e-05,-4.5776367e-05,0.00030517578
0.010808232,-0.01217032,0.991733,0.23928833,-0.20100403,9.8033905,4.0786743,-15.452576,-38.22632,0.24061489,-0.20974487,9.801454,0.0005322397,-0.00029580295,-0.0007581711,-0.00022888184,-0.00016784668,0.0
0.010813954,-0.012181632,0.9917317,0.2416687,-0.21296692,9.800995,4.736328,-15.115356,-38.487244,0.2407562,-0.2099485,9.801446,0.00012360513,0.00040106475,0.0018930435,-0.00035095215,-4.5776367e-05,-0.00035095215
0.010758123,-0.012153035,0.99174625,0.23928833,-0.20578003,9.796219,3.565979,-16.142273,-38.346863,0.23957662,-0.20955749,9.801483,-0.0022850633,0.0012025684,0.0003080368,1.5258789e-05,7.6293945e-05,6.1035156e-05
0.010739871,-0.012076051,0.99174947,0.23928833,-0.20578003,9.805786,3.4957886,-15.930176,-37.997437,0.2390264,-0.20810977,9.801528,-0.0010170639,0.0028668046,5.2452087e-05,-0.00016784668,1.5258789e-05,0.00024414062
0.010746749,-0.012100603,0.99174815,0.24406433,-0.21057129,9.812973,3.2028198,-15.368652,-37.64496,0.2392229,-0.20856835,9.801514,0.00046220422,-0.0009751469,0.00018692017,1.5258789e-05,-4.5776367e-05,0.00018310547
0.010759788,-0.012142469,0.99174553,0.2368927,-0.20578003,9.808182,4.9468994,-15.7547,-38.624573,0.23958397,-0.20934632,9.801487,0.00056804717,-0.0009088516,0.00045585632,-4.5776367e-05,-4.5776367e-05,6.1035156e-05
0.010747907,-0.0121431975,0.9917488,0.23449707,-0.21774292,9.808182,3.7872314,-16.487122,-38.87787,0.23934959,-0.20939606,9.801493,-0.0006313473,0.00033064187,-1.7166138e-05,-0.00010681152,-4.5776367e-05,0.00018310547
0.010732617,-0.012146917,0.99175304,0.23449707,-0.20578003,9.808182,3.163147,-16.166687,-38.560486,0.23905466,-0.20951433,9.8014965,-0.0007933825,0.0006791353,-0.0012750626,-0.00016784668,7.6293945e-05,6.1035156e-05
0.010727468,-0.012133129,0.9917542,0.2416687,-0.21534729,9.810577,2.8686523,-15.606689,-37.982178,0.23891875,-0.20926066,9.801506,-0.00041992962,0.001865536,0.0005950928,-0.00047302246,-0.00010681152,0.00018310547
0.010721462,-0.012140283,0.99175596,0.23210144,-0.20578003,9.800995,4.5043945,-15.141296,-37.124634,0.23861054,-0.21000068,9.801497,-0.0010698587,-2.142787e-05,-0.00094890594,-4.5776367e-05,-4.5776367e-05,0.00030517578
0.010731234,-0.012170206,0.99175394,0.24645996,-0.21296692,9.8033905,3.892517,-15.895081,-39.138794,0.23908383,-0.20997293,9.801486,0.0010595322,0.0009159148,0.0017738342,-0.000289917,7.6293945e-05,0.00018310547
0.010745975,-0.012203338,0.9917507,0.23928833,-0.21296692,9.808182,3.112793,-15.591431,-37.76245,0.23945753,-0.21057542,9.801464,0.00042054057,-0.0010740012,0.0029363632,-0.00010681152,-0.00016784668,0.00018310547
0.010740927,-0.012195521,0.9917519,0.2368927,-0.21057129,9.805786,2.9525757,-15.5303955,-37.667847,0.23933816,-0.210438,9.801471,-0.00041769445,0.00046375394,-0.00027751923,-0.00010681152,-4.5776367e-05,0.00012207031
0.010733969,-0.012182453,0.9917535,0.24406433,-0.21057129,9.810577,3.5995483,-15.486145,-37.83722,0.239168,-0.21020375,9.801479,-0.0011904389,0.00115937,-0.0014448166,-0.00016784668,-0.00010681152,0.0
0.0107383365,-0.012146125,0.9917515,0.22970581,-0.2033844,9.812973,4.536438,-16.156006,-37.557983,0.23916642,-0.20948178,9.801495,0.00025755167,0.0016319305,-0.00096416473,-4.5776367e-05,-4.5776367e-05,0.0
0.010707389,-0.012137867,0.9917597,0.2416687,-0.2033844,9.812973,3.8482666,-15.25116,-38.101196,0.2385311,-0.20941307,9.801512,-0.0017133206,0.00058601797,-0.0014295578,-0.00010681152,-4.5776367e-05,6.1035156e-05
0.010715422,-0.01212439,0.9917572,0.2416687,-0.21296692,9.810577,4.0618896,-15.737915,-38.963318,0.23865804,-0.20912613,9.801516,-0.00039997697,0.00076675415,-0.0004682541,1.5258789e-05,-0.00010681152,0.0
0.010756515,-0.012149762,0.9917466,0.23928833,-0.21296692,9.793823,4.470825,-15.718079,-38.07068,0.2395367,-0.20949845,9.801486,0.0018330365,-0.001255706,-9.536743e-07,7.6293945e-05,-0.00010681152,6.1035156e-05
0.010794676,-0.012176042,0.9917368,0.2368927,-0.20578003,9.8033905,3.7597656,-15.322876,-38.71765,0.24035934,-0.20989715,9.801457,0.001011774,0.00010304153,-0.00015163422,-0.00010681152,-0.00015258789,0.00024414062
0.0107747475,-0.012133669,0.9917413,0.2416687,-0.21057129,9.808182,4.122925,-16.247559,-38.616943,0.23985997,-0.20912987,9.801486,-0.0011344254,0.0012633204,0.000538826,-4.5776367e-05,1.5258789e-05,0.00036621094
0.01074496,-0.012143681,0.99174964,0.24406433,-0.21774292,9.805786,4.0756226,-15.449524,-38.526917,0.23929216,-0.20941429,9.801493,-0.0010436624,-0.00037112832,0.00035953522,7.6293945e-05,-4.5776367e-05,0.00030517578
0.010765768,-0.012152525,0.99174416,0.2416687,-0.21296692,9.810577,3.9764404,-15.893555,-38.68866,0.23972738,-0.20952469,9.801481,0.00068309903,0.0006913096,-0.0008716583,-0.00016784668,-4.5776367e-05,0.00012207031
0.010754224,-0.012166473,0.9917476,0.2416687,-0.20578003,9.8033905,4.2282104,-15.733337,-38.137817,0.23953183,-0.2098314,9.801479,-0.00055629015,-0.00019146502,6.389618e-05,-0.000289917,1.5258789e-05,0.00018310547
0.010788998,-0.012153708,0.99173784,0.2416687,-0.20100403,9.8033905,3.6376953,-16.279602,-38.67798,0.24019204,-0.20947827,9.80147,0.0011724383,0.0011241883,0.00052547455,-0.00010681152,-0.00016784668,0.00024414062
0.010796322,-0.012138604,0.9917355,0.23928833,-0.20817566,9.808182,3.565979,-16.064453,-38.934326,0.24030083,-0.20916161,9.801474,9.034574e-05,0.00081785023,0.0009937286,-4.5776367e-05,1.5258789e-05,0.00018310547
0.010821267,-0.012168911,0.9917294,0.23928833,-0.20578003,9.791428,3.1539917,-16.693115,-36.628723,0.2408706,-0.20967835,9.801449,0.00049068034,-0.00082457066,-0.0007658005,1.5258789e-05,-0.00010681152,0.00030517578
0.010819495,-0.012206297,0.99173075,0.24645996,-0.20100403,9.805786,3.6575317,-15.917969,-38.30414,0.24092647,-0.21041325,9.801433,-0.00052432716,-0.0010374039,-0.00018692017,-4.5776367e-05,-0.00016784668,0.00012207031
0.010802026,-0.01217157,0.9917347,0.2416687,-0.20578003,9.812973,3.3554077,-15.350342,-38.705444,0.24049456,-0.20978788,9.801456,-0.0012782067,0.0016749799,-0.00028133392,-0.00016784668,-0.00016784668,6.1035156e-05
0.010753205,-0.012187469,0.9917484,0.23928833,-0.21534729,9.817749,3.2592773,-15.72113,-38.700867,0.23956263,-0.21024413,9.801468,-0.0015546232,-0.00026144087,0.00029277802,-4.5776367e-05,7.6293945e-05,0.00012207031
0.010725915,-0.012186685,0.9917558,0.23928833,-0.2033844,9.7986145,3.2608032,-15.873718,-37.675476,0.23901819,-0.2103104,9.801481,-0.0012448281,0.00028309226,0.00052547455,-0.00022888184,-4.5776367e-05,0.0
0.010718466,-0.012167929,0.9917574,0.2416687,-0.20578003,9.796219,3.567505,-16.142273,-38.346863,0.23882447,-0.20996666,9.801494,-0.0005683303,0.0006631315,-0.0007677078,1.5258789e-05,-4.5776367e-05,0.00024414062
0.010772029,-0.012163734,0.99174273,0.24885559,-0.21057129,9.7986145,4.710388,-15.927124,-37.368774,0.23987913,-0.2097247,9.801473,0.001485765,0.0011415035,0.00029182434,-0.00016784668,-0.00010681152,0.00030517578
0.010778265,-0.012205513,0.99174196,0.2416687,-0.21296692,9.820145,4.232788,-15.661621,-38.275146,0.24010482,-0.21052133,9.80145,0.00029583275,-0.00069886446,0.00021266937,-0.000289917,-0.00010681152,6.1035156e-05
0.010772014,-0.012185997,0.9917432,0.23928833,-0.21296692,9.817749,2.6550293,-15.042114,-37.55493,0.23993303,-0.2101592,9.801462,-1.8373132e-05,0.0015900731,0.0011014938,-0.00010681152,7.6293945e-05,0.00018310547
0.01078338,-0.012147693,0.9917393,0.24406433,-0.21296692,9.805786,3.9871216,-15.90271,-37.33368,0.24006572,-0.20937772,9.801476,0.0005671829,0.00175336,-7.05719e-05,-4.5776367e-05,7.6293945e-05,7.6293945e-05
0.010789617,-0.012129762,0.9917371,0.2416687,-0.20817566,9.805786,3.9138794,-15.611267,-38.023376,0.24014603,-0.20900914,9.801481,-4.61936e-06,0.00091439486,0.00028133392,-4.5776367e-05,-4.5776367e-05,0.00012207031
0.010782817,-0.012111776,0.99173856,0.23928833,-0.21296692,9.817749,4.3380737,-15.1474,-37.94861,0.23996705,-0.20867848,9.801493,-0.000300467,0.00082936883,0.0001783371,-4.5776367e-05,7.6293945e-05,-6.1035156e-05
0.01078308,-0.012158375,0.9917396,0.2416687,-0.20817566,9.800995,4.2938232,-16.171265,-37.779236,0.24008575,-0.20958705,9.80147,0.0005417764,-0.0023355335,-4.005432e-05,1.5258789e-05,-4.5776367e-05,6.1035156e-05
0.010764034,-0.012144873,0.99174446,0.2368927,-0.20817566,9.7986145,3.3294678,-16.085815,-38.02185,0.23967429,-0.20938055,9.801485,-0.00073613226,0.000107347965,0.00092697144,7.6293945e-05,0.00019836426,0.0
0.01076694,-0.012142644,0.9917436,0.23449707,-0.2033844,9.796219,3.982544,-15.823364,-38.223267,0.23972662,-0.20932837,9.801485,-0.00054199994,0.0005260855,-0.000166893,1.5258789e-05,-0.0002746582,0.00012207031
0.010764631,-0.012177602,0.99174505,0.24406433,-0.21296692,9.796219,3.8162231,-16.05835,-37.65869,0.23976581,-0.21001746,9.801469,0.00014309585,-0.00022509694,-0.00059223175,-0.000289917,7.6293945e-05,0.00012207031
0.01079135,-0.01215613,0.99173725,0.2368927,-0.21296692,9.796219,3.5934448,-15.710449,-37.278748,0.24024472,-0.2095185,9.801468,0.00013805926,0.0011822134,-6.1035156e-05,1.5258789e-05,-0.00016784668,0.00018310547
0.010739269,-0.012168298,0.99175173,0.2416687,-0.20817566,9.810577,3.3370972,-15.942383,-37.76703,0.23966064,-0.20858589,9.801502,-0.00022149086,0.0026296675,-0.0008163452,-4.5776367e-05,-0.00021362305,0.00018310547
0.010785531,-0.012114338,0.9917379,0.2368927,-0.20578003,9.812973,3.842163,-15.550232,-37.104797,0.24002723,-0.20872036,9.80149,0.0006021857,-0.00033554435,0.001206398,1.5258789e-05,-0.00010681152,6.1035156e-05
0.010776957,-0.012127541,0.9917405,0.23928833,-0.21774292,9.810577,3.9001465,-15.826416,-38.44452,0.23988897,-0.20900369,9.801488,-0.00044758618,-0.0007843822,-0.0014238358,1.5258789e-05,-4.5776367e-05,0.0005645752
0.010775509,-0.012164632,0.9917418,0.24645996,-0.21296692,9.810577,3.8406372,-15.24353,-39.15558,0.23995051,-0.2097318,9.801471,-0.00050745904,-0.0010188073,-0.00014781952,1.5258789e-05,-4.5776367e-05,0.00030517578
0.010794054,-0.012158269,0.9917366,0.23928833,-0.20817566,9.800995,4.6310425,-15.55481,-38.949585,0.24030365,-0.20955214,9.801465,0.00055912137,0.0009808391,0.0011892319,-0.00016784668,-0.00016784668,0.0
0.010816622,-0.012168716,0.9917307,0.2368927,-0.20578003,9.800995,2.8320312,-16.560364,-37.420654,0.24077776,-0.20968844,9.801451,0.00032697618,0.00015766919,0.00016021729,-0.00010681152,-0.00016784668,0.00018310547
0.010799741,-0.012183926,0.99173564,0.23928833,-0.20817566,9.808182,3.7002563,-14.891052,-38.549805,0.24047925,-0.21003583,9.801452,-0.0007903278,-0.00022806227,-0.0014858246,-0.00010681152,-4.5776367e-05,0.00030517578
0.01079961,-0.012185268,0.9917357,0.23210144,-0.20578003,9.805786,3.137207,-16.827393,-38.090515,0.2404799,-0.2100624,9.801451,0.00036625564,7.145107e-05,0.0026807785,-0.00016784668,7.6293945e-05,0.00012207031
0.01076255,-0.012141066,0.99174476,0.23210144,-0.2033844,9.808182,4.4311523,-16.366577,-39.48517,0.23963548,-0.20931068,9.801487,-0.0018779784,0.0019364655,-0.0006093979,1.5258789e-05,1.5258789e-05,6.1035156e-05
0.010737042,-0.012120563,0.99175125,0.23449707,-0.20578003,9.8033905,3.5568237,-16.362,-38.08899,0.23907849,-0.20898683,9.801508,-0.0010747612,0.0006362498,-0.0013628006,-0.00010681152,-4.5776367e-05,0.0
0.010721738,-0.012094039,0.99175483,0.2416687,-0.20100403,9.8033905,3.1036377,-15.888977,-37.142944,0.2387097,-0.20851494,9.801526,-0.0006981492,0.0018359274,-0.00057697296,-0.00016784668,1.5258789e-05,0.00019836426
0.010739071,-0.012133364,0.991751,0.23928833,-0.21057129,9.8033905,3.7399292,-15.760803,-38.72986,0.23914997,-0.20923056,9.8015,0.00028060377,-0.0012649447,0.0012083054,1.5258789e-05,-0.00010681152,6.1035156e-05
0.0107442755,-0.012127093,0.9917494,0.23928833,-0.22013855,9.7986145,3.1356812,-16.67633,-38.96637,0.23923817,-0.20909265,9.801501,-2.090633e-05,0.00049082935,-0.0012674332,-0.00016784668,-0.00010681152,0.00012207031
0.0107139405,-0.012124657,0.99175763,0.2368927,-0.20817566,9.796219,4.133606,-16.186523,-37.246704,0.23862922,-0.20913574,9.801516,-0.0013510436,-0.00039751828,0.0013923645,0.00019836426,-4.5776367e-05,0.00018310547
0.010747775,-0.012116028,0.9917482,0.2368927,-0.20817566,9.7986145,3.2043457,-15.370178,-37.495422,0.23928085,-0.20886627,9.801506,0.0011177361,-0.00020092726,-0.0006723404,7.6293945e-05,1.5258789e-05,6.1035156e-05
0.010721213,-0.01211389,0.9917554,0.24406433,-0.21057129,9.805786,4.019165,-16.766357,-38.34076,0.2387476,-0.20890391,9.8015175,-0.0016982406,8.761883e-05,0.00067710876,-4.5776367e-05,-0.00016784668,0.0
0.010771268,-0.012143761,0.99174243,0.24406433,-0.20578003,9.805786,4.374695,-16.0141,-38.427734,0.23981537,-0.2093372,9.801482,0.0010559261,-0.0002027303,-0.0006542206,-0.00010681152,-0.0002746582,-6.1035156e-05
0.010777069,-0.0121260425,0.99174047,0.2368927,-0.21057129,9.796219,4.6447754,-15.412903,-38.39264,0.23988754,-0.2089741,9.801488,0.0004926622,0.0011282116,0.0014867783,-4.5776367e-05,1.5258789e-05,0.00018310547
0.010779723,-0.012136016,0.99174,0.23928833,-0.20578003,9.800995,4.296875,-16.096497,-37.989807,0.23996457,-0.20916077,9.801482,-4.2364e-05,-0.0008648932,-0.0012493134,1.5258789e-05,-4.5776367e-05,0.00012207031
0.010780579,-0.012086168,0.9917386,0.23928833,-0.20817566,9.796219,3.831482,-15.539551,-38.53607,0.23986018,-0.20818545,9.801505,-0.0008725673,0.0026833862,-0.0021047592,-0.00010681152,-0.00010681152,0.00024414062
0.010800917,-0.012075259,0.99173284,0.23928833,-0.20578003,9.805786,2.7038574,-15.614319,-38.279724,0.24023788,-0.20791176,9.801503,-4.7400594e-05,3.142655e-05,0.00020694733,1.5258789e-05,-0.0002746582,0.00036621094
0.010811497,-0.012095737,0.9917304,0.2416687,-0.21296692,9.808182,4.0039062,-15.539551,-37.182617,0.24049807,-0.20827967,9.801488,-8.6292624e-05,0.00016181171,0.0006170273,1.5258789e-05,-0.00010681152,0.00030517578
0.010747527,-0.012143471,0.9917489,0.2416687,-0.20578003,9.810577,3.3340454,-16.0141,-37.93335,0.23934267,-0.20940253,9.801492,-0.0029824674,-0.0018339008,-0.00053691864,-0.00035095215,-0.00010681152,-6.1035156e-05
0.010763881,-0.012138992,0.99174434,0.23928833,-0.21057129,9.796219,4.501343,-15.061951,-37.86316,0.2396569,-0.20926623,9.801488,0.00027002394,0.00019787252,0.0015573502,7.6293945e-05,-0.00021362305,0.00012207031
0.0107513955,-0.012198127,0.9917491,0.23449707,-0.20817566,9.810577,4.5288086,-16.300964,-37.738037,0.2395526,-0.21045753,9.801464,0.00035078824,-0.00074121356,0.0013494492,-0.00010681152,-0.00021362305,0.00024414062
0.010737327,-0.012126543,0.9917513,0.24885559,-0.21296692,9.7986145,2.6351929,-15.403748,-38.157654,0.23909871,-0.20910268,9.801505,-0.0013483018,0.0029116124,-0.0010185242,-0.00010681152,-4.5776367e-05,-0.00012207031
0.010778424,-0.012155581,0.99174076,0.2368927,-0.21296692,9.808182,3.65448,-15.914917,-38.604736,0.23998642,-0.20954646,9.801474,0.0013645142,-0.0009471923,-3.528595e-05,1.5258789e-05,-0.00010681152,-6.1035156e-05
0.01077261,-0.0121819815,0.99174297,0.23449707,-0.1986084,9.793823,3.4973145,-15.779114,-38.64746,0.2399351,-0.21007904,9.801463,-0.00026634336,-0.00065532327,0.0002965927,7.6293945e-05,-0.00010681152,6.1035156e-05
0.010753537,-0.012141082,0.9917472,0.24406433,-0.21057129,9.800995,3.251648,-16.093445,-37.719727,0.23945637,-0.20933798,9.801492,-0.0011941642,0.0019361526,-0.0021886826,-0.00022888184,7.6293945e-05,-6.1035156e-05
0.010770052,-0.012154033,0.991743,0.23928833,-0.21296692,9.8033905,3.2836914,-15.209961,-38.446045,0.23981617,-0.20954129,9.801477,0.0008239448,-0.00048485398,0.001408577,7.6293945e-05,-4.5776367e-05,0.00018310547
0.010784695,-0.012175786,0.9917395,0.23449707,-0.21296692,9.808182,2.697754,-15.762329,-38.308716,0.24016027,-0.209922,9.801461,0.0007202178,-9.891391e-05,-0.0009698868,-0.00022888184,-4.5776367e-05,0.0
0.010769686,-0.0121580465,0.9917432,0.2416687,-0.21296692,9.7986145,2.9129028,-16.479492,-37.860107,0.2398187,-0.20962073,9.8014765,-0.0010891259,0.00031650066,-4.7683716e-06,7.6293945e-05,-4.5776367e-05,0.0
0.010757719,-0.0121944975,0.9917473,0.23210144,-0.20100403,9.791428,3.263855,-15.725708,-38.17444,0.23966953,-0.21036783,9.801464,-0.00045759976,-0.0008535683,0.00048065186,-0.00010681152,-0.00010681152,6.1035156e-05
0.010750066,-0.012214779,0.9917498,0.23928833,-0.20578003,9.810577,3.5049438,-15.785217,-37.66632,0.23956671,-0.21078648,9.801457,-0.00060264766,0.0005298257,0.000333786,-0.00035095215,-0.00010681152,6.1035156e-05
0.010762871,-0.012182356,0.99174565,0.23449707,-0.20578003,9.8033905,4.3670654,-16.159058,-38.609314,0.23974241,-0.21011548,9.801468,-0.00030186772,0.0012898445,-0.00025081635,-0.00016784668,-0.00016784668,0.0
0.010761483,-0.012171129,0.99174577,0.2368927,-0.21534729,9.805786,4.119873,-16.322327,-38.55591,0.23968747,-0.20990054,9.801474,-1.2174249e-05,0.0010830909,0.00079345703,-4.5776367e-05,1.5258789e-05,0.00018310547
0.010757262,-0.012196087,0.99174744,0.23928833,-0.21296692,9.812973,3.7979126,-16.116333,-39.63318,0.23966429,-0.21040021,9.801463,-0.00022803247,-0.00057303905,-0.00042247772,-4.5776367e-05,-4.5776367e-05,0.00018310547
0.01072438,-0.012154707,0.9917555,0.23449707,-0.20817566,9.7986145,3.7704468,-15.104675,-38.6734,0.23890986,-0.20969096,9.8014965,-0.0021089017,0.0018399805,0.000998497,-0.00010681152,-0.00016784668,0.00024414062
0.010735822,-0.012119647,0.99175155,0.23928833,-0.20578003,9.805786,3.390503,-15.231323,-35.13336,0.239052,-0.2089726,9.801508,0.00037688017,0.0016046613,0.0009918213,-0.00016784668,1.5258789e-05,0.00012207031
0.010713018,-0.012125153,0.9917579,0.23449707,-0.21296692,9.812973,3.5263062,-15.12146,-38.66577,0.23861207,-0.20914817,9.801516,-0.0008460283,-0.00014057755,-0.001250267,1.5258789e-05,7.6293945e-05,7.6293945e-05
0.010721851,-0.012091488,0.9917547,0.2416687,-0.2033844,9.815353,4.8065186,-15.403748,-38.246155,0.23870577,-0.20846483,9.801528,-0.00021974742,0.0013248324,-0.00019931793,1.5258789e-05,-4.5776367e-05,0.00012207031
0.010750343,-0.012104827,0.99174726,0.2368927,-0.21296692,9.8033905,3.4332275,-15.5685425,-37.997437,0.23930459,-0.20864,9.801509,0.000603199,-0.00016765296,0.000992775,-4.5776367e-05,-0.00021362305,0.00024414062
0.010733931,-0.01215396,0.99175286,0.23449707,-0.20578003,9.800995,3.3203125,-16.15448,-38.867188,0.23909792,-0.20964783,9.801493,-0.0006094277,-0.0015681386,-0.0012464523,-0.00016784668,-0.00010681152,0.00018310547
0.010744697,-0.0121370135,0.9917495,0.2368927,-0.21534729,9.8033905,3.9993286,-15.306091,-39.02588,0.23927075,-0.20928499,9.801497,-0.0003027767,0.00045885146,-0.0005121231,7.6293945e-05,-4.5776367e-05,0.00018310547
0.010735196,-0.012135098,0.9917521,0.24406433,-0.21296692,9.805786,3.9642334,-16.339111,-37.646484,0.2390772,-0.209276,9.801502,-0.0005739331,0.0006867498,-0.0006504059,-4.5776367e-05,-4.5776367e-05,6.1035156e-05
0.010779283,-0.012101549,0.99173933,0.23449707,-0.21057129,9.812973,2.8305054,-16.409302,-38.29651,0.23987187,-0.20848948,9.801498,0.0007880628,0.0015585423,-0.0004272461,-4.5776367e-05,-0.0002746582,0.00018310547
0.010732813,-0.012115207,0.99175227,0.2416687,-0.20817566,9.8033905,2.6672363,-16.569519,-37.716675,0.23898141,-0.20889495,9.801513,-0.0019339174,-0.00042138994,0.0009908676,-4.5776367e-05,-4.5776367e-05,0.00024414062
0.01078302,-0.012145252,0.9917393,0.2368927,-0.20817566,9.8033905,2.0950317,-16.448975,-39.556885,0.2400526,-0.20933113,9.801476,0.0010716766,-0.0004607439,-0.00028419495,-0.00022888184,-0.0002746582,-6.1035156e-05
0.010773302,-0.012120937,0.99174136,0.23449707,-0.20817566,9.810577,4.072571,-15.672302,-38.27057,0.2398002,-0.20888573,9.801492,-0.0010500252,0.0009976625,-0.00036907196,-0.00016784668,-0.00021362305,0.00030517578
0.0107481405,-0.012111824,0.99174803,0.23928833,-0.20578003,9.808182,3.7582397,-15.397644,-38.505554,0.23927785,-0.20878313,9.801507,-0.00146617,0.000400275,-0.0005674362,-0.00016784668,-4.5776367e-05,0.0
0.010753594,-0.012108512,0.9917465,0.2368927,-0.21296692,9.812973,4.4143677,-15.214539,-37.8891,0.2393782,-0.20870219,9.801506,-0.00039103627,0.0005762577,0.0012273788,1.5258789e-05,-0.00021362305,0.00024414062
0.010715028,-0.012095368,0.9917567,0.22970581,-0.20578003,9.7986145,4.3655396,-14.717102,-36.72943,0.2385796,-0.20856096,9.80153,-0.0015109777,0.00044491887,0.0009813309,-0.00016784668,1.5258789e-05,0.00012207031
0.010713526,-0.01205832,0.99175626,0.2416687,-0.2033844,9.8033905,3.956604,-16.331482,-38.702393,0.23845959,-0.20784248,9.801548,-0.00090785325,0.0013959557,-0.0007753372,0.0001373291,-0.00016784668,0.00012207031
0.010739847,-0.012107906,0.9917502,0.23928833,-0.21057129,9.8033905,3.0822754,-16.325378,-37.457275,0.23910345,-0.20873147,9.801513,0.00085918605,-0.0010852367,-0.0013132095,-0.00010681152,-0.00010681152,0.00012207031
0.010710454,-0.012092388,0.99175787,0.24645996,-0.2033844,9.793823,3.6849976,-15.258789,-38.54828,0.23848137,-0.20851645,9.801532,-0.0011608601,0.00062447786,0.00024414062,-0.00016784668,1.5258789e-05,0.00018310547
0.010739882,-0.012121597,0.9917505,0.24406433,-0.20578003,9.800995,4.1763306,-15.159607,-37.7182,0.23913746,-0.20899853,9.801506,0.00031645596,-0.00055612624,0.0014562607,-0.00016784668,-0.00021362305,0.00030517578
0.01072149,-0.012102066,0.99175507,0.2368927,-0.21057129,9.808182,3.3676147,-15.209961,-38.072205,0.23872432,-0.20867234,9.801523,-0.0011946708,0.000810951,0.0014429092,1.5258789e-05,-4.5776367e-05,6.1035156e-05
0.01073832,-0.012081564,0.99175,0.23210144,-0.20578003,9.805786,3.352356,-15.498352,-38.432312,0.23900895,-0.20822199,9.801525,-5.2779913e-05,0.0008401871,0.00065135956,1.5258789e-05,-0.00021362305,0.00018310547
0.0107096685,-0.012070258,0.9917576,0.2368927,-0.2033844,9.8033905,3.012085,-15.809631,-38.786316,0.23841193,-0.20808695,9.801543,-0.0011291206,0.00094497204,-0.00035572052,-0.00016784668,-4.5776367e-05,0.00018310547
0.0107053695,-0.012044705,0.99175817,0.2416687,-0.20578003,9.8033905,3.327942,-16.160583,-37.96234,0.23826432,-0.20760116,9.801558,-0.00048597157,0.00092574954,-0.0005617142,1.5258789e-05,1.5258789e-05,0.0
0.010735058,-0.01205336,0.99175024,0.23928833,-0.21057129,9.800995,4.7943115,-15.542603,-39.1037,0.23887548,-0.20768136,9.80154,0.0012891144,0.0002835393,-0.0005245209,-0.00010681152,-4.5776367e-05,0.00018310547
0.010751527,-0.01208707,0.99174654,0.23449707,-0.21057129,9.800995,3.1066895,-15.586853,-38.516235,0.2392849,-0.20828997,9.8015175,0.00040850043,-0.0010319948,-0.00019264221,-0.00010681152,-0.00010681152,0.00018310547
0.010727911,-0.012062685,0.99175245,0.2368927,-0.21296692,9.800995,2.8121948,-16.773987,-38.519287,0.2387561,-0.20788465,9.801538,-0.00074867904,0.0012090206,0.0006761551,-4.5776367e-05,7.6293945e-05,6.1035156e-05
0.010735837,-0.012115901,0.9917515,0.2368927,-0.20100403,9.812973,2.8030396,-16.915894,-38.92517,0.23904318,-0.20889945,9.80151,0.00040012598,-0.0020802766,-0.00018882751,1.5258789e-05,1.5258789e-05,0.0
0.01073769,-0.012081378,0.9917502,0.24406433,-0.20817566,9.800995,4.6463013,-15.415955,-37.86621,0.238996,-0.20822024,9.801526,-2.56747e-05,0.002016291,4.1007996e-05,-0.00010681152,-4.5776367e-05,6.1035156e-05
0.010761816,-0.012098623,0.991744,0.23449707,-0.21534729,9.800995,2.708435,-15.620422,-37.75177,0.23951757,-0.20848465,9.801508,0.00041344762,0.00061795115,4.1007996e-05,-0.000289917,-0.00016784668,0.00024414062
0.010765796,-0.012116985,0.9917433,0.23928833,-0.21057129,9.800995,3.993225,-15.6814575,-37.815857,0.23964138,-0.20883107,9.801497,-0.00018543005,-0.00025252998,-0.0010852814,-0.00010681152,-4.5776367e-05,6.1035156e-05
0.010753268,-0.012117421,0.9917468,0.23449707,-0.20578003,9.805786,3.9230347,-15.467834,-37.617493,0.23939343,-0.20887706,9.801503,-0.00042273104,0.00052139163,0.0010299683,-0.00016784668,-4.5776367e-05,0.0
0.010737732,-0.012108679,0.9917508,0.2416687,-0.20817566,9.796219,3.3676147,-15.132141,-38.433838,0.23906331,-0.20875289,9.801514,-0.0010598451,0.0011195987,0.00054359436,-0.00022888184,1.5258789e-05,0.0
0.010737493,-0.012126121,0.99175125,0.2368927,-0.2033844,9.808182,4.386902,-15.873718,-37.568665,0.239101,-0.20909394,9.801505,-0.00036345422,-0.0007055402,-0.0013942719,-4.5776367e-05,-0.00016784668,0.0
0.010746928,-0.012081173,0.9917477,0.23449707,-0.21057129,9.8033905,3.9871216,-15.675354,-38.56964,0.23917913,-0.20818864,9.801522,3.312528e-05,0.0017576367,0.0011472702,1.5258789e-05,-0.00010681152,0.00018310547
0.010727962,-0.012119329,0.9917537,0.24406433,-0.21296692,9.808182,3.1219482,-15.29541,-38.381958,0.23926477,-0.20871915,9.801509,-0.0013510436,-0.0015237331,-0.00082588196,4.5776367e-05,-9.1552734e-05,9.1552734e-05
0.010752508,-0.012116753,0.99174696,0.24406433,-0.2033844,9.805786,3.1707764,-16.096497,-37.942505,0.23937666,-0.20886624,9.801502,0.0003309101,0.0002644807,-0.0007867813,-0.00019836426,-3.0517578e-05,3.0517578e-05
0.01075061,-0.012091105,0.9917469,0.23449707,-0.20817566,9.805786,4.093933,-16.830444,-39.11133,0.23927651,-0.20837145,9.801517,-6.4373016e-05,0.0009793043,0.001865387,4.5776367e-05,9.1552734e-05,-0.00021362305
0.010743293,-0.01209487,0.991749,0.24406433,-0.20817566,9.812973,3.791809,-14.744568,-37.997437,0.23914021,-0.20846678,9.8015175,-0.00041013956,-0.00036503375,-0.00050640106,-1.5258789e-05,-0.0001373291,-0.00021362305
0.01074767,-0.012086444,0.99174756,0.23449707,-0.20578003,9.808182,4.2404175,-15.440369,-38.380432,0.23920672,-0.20828925,9.801519,0.00072704256,0.0006490648,0.00013828278,-1.5258789e-05,0.00015258789,3.0517578e-05
0.01074749,-0.012124069,0.9917485,0.23928833,-0.20100403,9.812973,3.0944824,-16.033936,-37.626648,0.23929475,-0.20902404,9.801502,0.00013372302,-0.0012256056,0.0013666153,-7.6293945e-05,9.1552734e-05,-0.00015258789
0.010781047,-0.012077046,0.99173826,0.23928833,-0.20100403,9.805786,3.187561,-15.733337,-37.869263,0.23984726,-0.20800605,9.80151,0.0012465268,0.0020702481,0.0010728836,-7.6293945e-05,-9.1552734e-05,-3.0517578e-05
0.01074128,-0.0120687755,0.9917489,0.23928833,-0.21057129,9.800995,3.944397,-16.470337,-39.561462,0.23903666,-0.20796357,9.80153,-0.0012867004,-0.00012156367,0.00023365021,0.00010681152,9.1552734e-05,-0.00021362305
0.010684568,-0.012111794,0.9917653,0.23449707,-0.20578003,9.805786,3.501892,-15.249634,-41.181946,0.23801401,-0.20897241,9.801534,-0.0009866506,-0.0022199154,0.0004606247,-1.5258789e-05,0.00021362305,-0.00015258789
0.010705686,-0.012098398,0.9917593,0.23928833,-0.2033844,9.8033905,3.9611816,-14.43634,-38.5437,0.23840125,-0.20864798,9.801532,0.0015292764,0.0002938062,-0.0028867722,-1.5258789e-05,0.0002746582,-0.00015258789
0.010672997,-0.012073697,0.99176764,0.2368927,-0.2033844,9.8033905,4.6310425,-15.553284,-39.024353,0.23769134,-0.20826349,9.801557,-0.0008571595,0.0011003762,-0.0012960434,4.5776367e-05,0.00015258789,0.00015258789
0.010692258,-0.012111443,0.99176323,0.23928833,-0.2033844,9.805786,4.031372,-16.244507,-39.668274,0.23816605,-0.2089426,9.801531,0.00081785023,-0.0010875016,9.536743e-05,-1.5258789e-05,0.00015258789,-0.0002746582
0.010732321,-0.012096607,0.99175197,0.24406433,-0.21296692,9.805786,3.8070679,-14.453125,-37.78534,0.23892632,-0.20853345,9.80152,0.0010157675,0.0006572604,0.00022983551,4.5776367e-05,-0.0001373291,0.00015258789
0.01073665,-0.012050948,0.99174976,0.24406433,-0.2033844,9.805786,4.043579,-16.101074,-39.489746,0.23890123,-0.20762952,9.80154,-0.0003889352,0.001900658,-0.00032138824,-7.6293945e-05,-0.0002593994,0.00033569336
0.010741086,-0.01200759,0.99174756,0.23928833,-0.21296692,9.800995,3.7445068,-15.765381,-38.127136,0.23888384,-0.20677018,9.801559,9.277463e-05,0.0010486394,0.0007362366,0.00010681152,3.0517578e-05,-3.0517578e-05
0.010765934,-0.012030901,0.99174136,0.2368927,-0.1986084,9.808182,4.246521,-15.370178,-37.98828,0.2394345,-0.20715079,9.801538,0.001215905,-0.00048935413,0.00032901764,-7.6293945e-05,9.1552734e-05,-0.00015258789
0.010763027,-0.012006454,0.9917416,0.2416687,-0.2033844,9.810577,3.2730103,-15.5807495,-37.76703,0.23931712,-0.20668238,9.80155,-0.00035344064,0.00025473535,0.0006933212,0.00016784668,3.0517578e-05,-0.00015258789
0.010787321,-0.011990464,0.99173456,0.2416687,-0.21057129,9.8033905,3.5690308,-16.143799,-37.96997,0.239761,-0.2062977,9.801548,-0.00033007562,0.0005919188,0.00048160553,0.00010681152,-0.00032043457,-9.1552734e-05
0.01077552,-0.012020497,0.9917385,0.23928833,-0.20578003,9.812973,4.46167,-15.861511,-38.476562,0.23959962,-0.20691907,9.801538,-0.00017668307,-0.0014192909,0.0006341934,-1.5258789e-05,-9.1552734e-05,0.00015258789
0.01074287,-0.012048873,0.99174803,0.23449707,-0.21296692,9.8033905,3.9840698,-15.82489,-37.99591,0.23901981,-0.20757043,9.801538,-0.00031918287,-0.001480192,0.00041484833,0.00010681152,0.00021362305,3.0517578e-05
0.010752109,-0.012080521,0.99174625,0.2368927,-0.21057129,9.800995,4.4174194,-14.990234,-38.598633,0.23928052,-0.20816042,9.80152,0.0006275028,-0.00089176,-0.0002002716,-7.6293945e-05,3.0517578e-05,3.0517578e-05
0.010740658,-0.01211174,0.99175006,0.2368927,-0.2033844,9.812973,3.4545898,-16.729736,-38.7619,0.2391289,-0.20880385,9.80151,6.532669e-05,-0.0011969954,-0.00029850006,4.5776367e-05,9.1552734e-05,0.0002746582
0.010736216,-0.012075439,0.9917505,0.2416687,-0.21057129,9.800995,2.2476196,-15.292358,-36.91101,0.23895225,-0.20810875,9.80153,-0.0004762709,0.00073316693,0.00012302399,4.5776367e-05,9.1552734e-05,-0.00015258789
0.010766219,-0.012105371,0.99174297,0.23449707,-0.21296692,9.805786,3.9978027,-15.531921,-37.937927,0.23962152,-0.20860316,9.801503,0.00077179074,-0.0009326488,-0.0008802414,4.5776367e-05,-0.0001373291,-9.1552734e-05
0.010753883,-0.012120062,0.99174666,0.2416687,-0.20578003,9.805786,3.2165527,-16.595459,-39.1037,0.23941205,-0.20892671,9.8015,-0.0014186054,-0.00037632883,0.00037956238,-0.0001373291,-0.0002593994,-0.0002746582
0.010766894,-0.01210509,0.9917428,0.2368927,-0.21296692,9.800995,4.533386,-16.000366,-38.809204,0.23963425,-0.20859566,9.801503,0.00029435754,0.0012041032,-0.0010137558,-1.5258789e-05,-0.0001373291,3.0517578e-05
0.010791452,-0.012084918,0.99173564,0.23928833,-0.20817566,9.808182,3.7368774,-16.061401,-37.73346,0.24007325,-0.20812854,9.801501,0.00078999996,0.0012196302,0.0009241104,-7.6293945e-05,-3.0517578e-05,-3.0517578e-05
0.0108004045,-0.012094071,0.9917334,0.2368927,-0.20578003,9.810577,4.727173,-15.484619,-37.657166,0.24027352,-0.20828037,9.801494,0.0003375411,-4.2706728e-05,0.0018911362,-0.0001373291,3.0517578e-05,0.00021362305
0.010760231,-0.012077797,0.991744,0.2416687,-0.20100403,9.8033905,4.222107,-15.879822,-38.24463,0.23943534,-0.20808299,9.801518,-0.0021818727,0.00047789514,0.00014591217,-1.5258789e-05,-7.6293945e-05,0.00015258789
0.010760334,-0.0120496135,0.99174327,0.23928833,-0.20578003,9.8033905,4.0008545,-15.231323,-39.31122,0.23936875,-0.20753269,9.801532,2.1785498e-05,0.0016183406,0.0012187958,-7.6293945e-05,-3.0517578e-05,9.1552734e-05
0.0107111,-0.0120485965,0.9917567,0.23928833,-0.21296692,9.805786,4.1748047,-15.003967,-38.96942,0.23838764,-0.20765994,9.801552,-0.0018532276,0.0005450249,-0.0009326935,-0.0001373291,3.0517578e-05,0.0002746582
0.010721375,-0.012054309,0.991754,0.24406433,-0.21296692,9.800995,3.9978027,-15.684509,-37.28943,0.23860583,-0.20774077,9.801546,0.00032182038,-0.0005775541,0.00016975403,-7.6293945e-05,-3.0517578e-05,-3.0517578e-05
0.010737467,-0.012014911,0.99174875,0.2368927,-0.2033844,9.812973,2.1606445,-15.600586,-35.836792,0.2388297,-0.20692383,9.801557,0.0011010468,0.0014374256,-0.0009899139,-7.6293945e-05,3.0517578e-05,0.00016784668
0.010736667,-0.0120191295,0.99174905,0.2368927,-0.22013855,9.808182,3.9276123,-15.167236,-38.69171,0.2388241,-0.20700856,9.801556,0.00060479343,-0.0003733784,0.0010938644,0.00010681152,0.00015258789,0.00021362305
0.010722999,-0.012069182,0.99175394,0.24406433,-0.2033844,9.810577,4.219055,-16.105652,-37.4588,0.23867431,-0.20802613,9.801538,4.1872263e-05,-0.0012665987,-0.00038719177,-0.0001373291,9.1552734e-05,-0.00015258789
0.01076037,-0.012072234,0.9917438,0.23449707,-0.21534729,9.805786,3.9077759,-15.756226,-37.904358,0.23942454,-0.207974,9.80152,0.0014222264,-0.00011065602,0.0016546249,-7.6293945e-05,9.1552734e-05,0.00015258789
0.010775377,-0.012065861,0.9917396,0.24406433,-0.21296692,9.805786,3.2791138,-15.739441,-36.213684,0.23970732,-0.20780477,9.8015175,0.0006760955,0.0004286915,-0.0008096695,4.5776367e-05,3.0517578e-05,4.5776367e-05
0.010761953,-0.012127105,0.99174464,0.2416687,-0.21296692,9.800995,4.046631,-16.409302,-37.36267,0.23958962,-0.20904003,9.801494,0.00032876432,-0.0021724403,-0.0007047653,-7.6293945e-05,3.0517578e-05,-3.0517578e-05
0.010738377,-0.012111796,0.9917507,0.23928833,-0.20578003,9.8033905,3.4317017,-15.415955,-38.946533,0.2390837,-0.20881177,9.801512,-0.0013336986,0.00048279762,0.0014457703,-1.5258789e-05,-3.0517578e-05,-3.0517578e-05
0.01075262,-0.0121232085,0.9917471,0.24406433,-0.21296692,9.800995,3.9031982,-15.753174,-38.430786,0.2393946,-0.20899189,9.801499,0.00051033497,0.00018684566,-0.00030326843,-0.00019836426,-9.1552734e-05,3.0517578e-05
0.010771709,-0.012124358,0.9917419,0.2368927,-0.21296692,9.805786,3.3355713,-16.01715,-37.63275,0.23977686,-0.20895724,9.801491,0.00037287176,0.0003823191,-0.0013160706,4.5776367e-05,-3.0517578e-05,3.0517578e-05
0.010776008,-0.012123062,0.9917407,0.24406433,-0.21057129,9.808182,3.6712646,-15.777588,-37.295532,0.23985916,-0.20891911,9.80149,0.000525862,0.00058074296,0.0007200241,-0.00019836426,3.0517578e-05,-0.00021362305
0.010780678,-0.012139128,0.9917398,0.24406433,-0.21534729,9.793823,3.2546997,-15.869141,-38.352966,0.23999117,-0.20921867,9.801481,-8.326769e-05,-0.0005504042,0.00032043457,-7.6293945e-05,-3.0517578e-05,-3.0517578e-05
0.010824292,-0.012142049,0.99172795,0.24406433,-0.2033844,9.812973,3.3843994,-14.84375,-38.07373,0.24086526,-0.20914508,9.80146,0.0014000088,-0.00011605024,0.0018129349,4.5776367e-05,-9.1552734e-05,-0.00033569336
0.010790587,-0.012139572,0.99173707,0.23928833,-0.20578003,9.815353,3.6392212,-16.281128,-38.526917,0.24018921,-0.20919766,9.801476,-0.0010199398,-6.450713e-05,-7.534027e-05,4.5776367e-05,9.1552734e-05,-0.00032043457
0.010746345,-0.012090488,0.99174803,0.2416687,-0.20578003,9.796219,3.4072876,-16.07666,-38.552856,0.23919019,-0.20837213,9.8015175,-0.0016857237,0.0012495816,-0.0010118484,0.00010681152,9.1552734e-05,-0.00015258789
0.010788816,-0.012093098,0.99173653,0.2368927,-0.20817566,9.8033905,3.642273,-16.209412,-38.513184,0.24004078,-0.20829605,9.801498,0.0022488087,-0.00026907027,-0.000834465,0.00010681152,9.1552734e-05,-0.0002746582
0.010765395,-0.01205879,0.99174213,0.23928833,-0.22013855,9.796219,4.185486,-16.607666,-38.768005,0.23949169,-0.20769663,9.801525,-0.0010072142,0.0010304749,-0.0007209778,-1.5258789e-05,9.1552734e-05,-9.1552734e-05
0.0107320165,-0.012114865,0.9917525,0.2416687,-0.20578003,9.815353,3.489685,-16.001892,-38.464355,0.2389647,-0.20889065,9.801512,-0.0011895746,-0.0020847172,-0.00063991547,0.00010681152,9.1552734e-05,-9.1552734e-05
0.010734343,-0.0121025145,0.9917516,0.23449707,-0.21057129,9.7986145,3.9016724,-15.751648,-38.658142,0.23898092,-0.2086427,9.8015175,-0.0002758205,0.00030581653,0.001335144,-7.6293945e-05,-0.0001373291,9.1552734e-05
0.010707777,-0.0121065,0.9917589,0.2368927,-0.21296692,9.805786,3.465271,-16.664124,-37.768555,0.23846252,-0.20879982,9.801527,-0.00022536516,-1.4320016e-05,-0.00039577484,-7.6293945e-05,9.1552734e-05,9.1552734e-05
0.010710645,-0.012132375,0.9917587,0.24406433,-0.21057129,9.810577,3.2836914,-15.287781,-38.085938,0.23858245,-0.20929617,9.801513,0.00060908496,-0.00047303736,0.00054073334,-0.0001373291,9.1552734e-05,-3.0517578e-05
0.010719015,-0.012102353,0.9917557,0.23928833,-0.21296692,9.810577,3.3981323,-16.223145,-38.658142,0.23867583,-0.20868535,9.801524,0.00075392425,0.0010591745,-0.0007638931,0.00010681152,0.00015258789,3.0517578e-05
0.010725359,-0.012102107,0.991754,0.23449707,-0.20578003,9.810577,4.2999268,-15.72113,-39.34784,0.23880133,-0.20866157,9.801521,0.000620842,9.5933676e-05,0.00060749054,-7.6293945e-05,9.1552734e-05,-3.0517578e-05
0.010730367,-0.0120613,0.99175173,0.23449707,-0.20817566,9.8033905,4.2785645,-14.639282,-38.069153,0.23880155,-0.20785029,9.801538,-0.00033178926,0.0019143969,0.00057315826,-0.0001373291,-3.0517578e-05,9.1552734e-05
0.010718024,-0.012078139,0.9917555,0.23928833,-0.21296692,9.8033905,2.8671265,-15.757751,-37.408447,0.2393003,-0.2078161,9.801528,0.00087060034,0.00016859174,-0.0004930496,-7.6293945e-05,3.0517578e-05,9.1552734e-05
0.010751731,-0.012051899,0.9917457,0.2368927,-0.20817566,9.815353,4.1534424,-15.516663,-38.69629,0.23920332,-0.20760302,9.801535,-0.0004917085,-2.284348e-05,0.0020618439,0.00016784668,-9.1552734e-05,-3.0517578e-05
0.010774285,-0.012044373,0.9917394,0.24885559,-0.21296692,9.7986145,3.7643433,-15.25116,-38.6261,0.23963325,-0.2073887,9.801528,0.00051115453,0.00025221705,0.000104904175,4.5776367e-05,-3.0517578e-05,0.00015258789
0.010770327,-0.012069608,0.991741,0.23928833,-0.20578003,9.800995,3.237915,-16.384888,-37.779236,0.2396161,-0.20789298,9.801518,0.00030817091,-0.00045634806,-0.00073337555,-7.6293945e-05,-3.0517578e-05,3.0517578e-05
0.0107769435,-0.012038268,0.9917385,0.2416687,-0.21296692,9.796219,3.6026,-15.261841,-38.62152,0.23967123,-0.20726162,9.80153,0.00024549663,0.00084118545,0.000626564,-1.5258789e-05,9.1552734e-05,-9.1552734e-05
0.010799052,-0.012033582,0.99173236,0.2368927,-0.21057129,9.8033905,3.868103,-14.8880005,-37.649536,0.24009924,-0.20710401,9.801523,0.0003065914,0.00018122792,-0.0013284683,4.5776367e-05,-9.1552734e-05,0.0002746582
0.010761963,-0.012028953,0.9917424,0.2416687,-0.21534729,9.805786,3.5110474,-15.487671,-38.511658,0.2393508,-0.20712464,9.80154,-0.0013543218,0.00093109906,0.0011959076,-0.0001373291,-9.1552734e-05,-3.0517578e-05
0.0107688755,-0.012055355,0.9917411,0.2416687,-0.2033844,9.805786,3.465271,-14.91394,-37.638855,0.2395525,-0.20761919,9.801525,0.00035841763,-0.00094752014,0.0006351471,-7.6293945e-05,-9.1552734e-05,3.0517578e-05
0.010816916,-0.012048017,0.9917278,0.2368927,-0.21057129,9.805786,4.321289,-15.512085,-38.02185,0.24048944,-0.20733221,9.801508,0.0010964572,0.0006622672,-0.001004219,-1.5258789e-05,-7.6293945e-05,-9.1552734e-05
0.010763863,-0.012025716,0.9917418,0.23928833,-0.21057129,9.8033905,3.1738281,-16.026306,-37.928772,0.23938067,-0.20705579,9.801541,-0.002096042,0.00085763633,-3.71933e-05,-0.0001373291,3.0517578e-05,0.00015258789
0.010743785,-0.012086562,0.99174863,0.2416687,-0.2033844,9.800995,3.4667969,-14.915466,-37.33673,0.23912977,-0.20830318,9.801521,8.127093e-05,-0.0014836192,-0.0003376007,-7.6293945e-05,9.1552734e-05,9.1552734e-05
0.010730887,-0.012025334,0.9917508,0.23210144,-0.1986084,9.7986145,3.9352417,-15.098572,-38.1485,0.23872435,-0.20714691,9.801556,-0.0009420663,0.0016732365,-0.00039196014,-7.6293945e-05,-3.0517578e-05,-0.00015258789
0.010718333,-0.012016902,0.991754,0.24885559,-0.21296692,9.808182,3.2821655,-15.286255,-38.235474,0.2384543,-0.20701987,9.801565,5.0395727e-05,0.0003362596,-0.00041866302,0.00016784668,0.00015258789,0.00021362305
0.01075162,-0.012030132,0.99174523,0.23210144,-0.21057129,9.7986145,3.2653809,-15.57312,-38.822937,0.23914813,-0.2071786,9.801545,0.0012705475,-0.00070108473,-0.00060653687,-1.5258789e-05,9.1552734e-05,0.00015258789
0.0107194865,-0.012058055,0.9917546,0.24645996,-0.21057129,9.805786,1.7822266,-15.115356,-35.49652,0.23857741,-0.20781949,9.801545,-0.0010320693,-0.0010171235,0.0004005432,4.5776367e-05,-9.1552734e-05,-9.1552734e-05
0.010766262,-0.012066422,0.9917421,0.2416687,-0.21296692,9.8033905,3.062439,-15.09552,-36.450195,0.23952752,-0.20784298,9.801521,0.0022991002,-0.0002578497,0.0016975403,-7.6293945e-05,9.1552734e-05,-0.00015258789
0.010772991,-0.012118037,0.9917414,0.24645996,-0.2033844,9.8033905,3.0548096,-15.087891,-37.506104,0.23978697,-0.20883007,9.801494,0.00014320016,-0.0014314651,-0.00093746185,-7.6293945e-05,-9.1552734e-05,3.0517578e-05
0.010767009,-0.012129694,0.9917433,0.2416687,-0.21057129,9.7986145,3.0456543,-15.385437,-36.888123,0.23969644,-0.20907544,9.801491,-0.000268355,1.6197562e-05,0.0011396408,-7.6293945e-05,-3.0517578e-05,3.0517578e-05
0.010742488,-0.012089953,0.99174905,0.2416687,-0.21057129,9.812973,4.3380737,-15.222168,-37.586975,0.23911226,-0.20837323,9.80152,-0.0008612275,0.0016981214,-0.0010004044,-7.6293945e-05,9.1552734e-05,-0.00015258789
0.010771769,-0.012135224,0.99174213,0.24406433,-0.20578003,9.808182,4.1549683,-15.519714,-38.319397,0.23980454,-0.20916912,9.801486,0.0010587275,-0.0010810494,0.0009365082,-0.0001373291,3.0517578e-05,-0.00015258789
0.010768815,-0.01212157,0.9917426,0.2416687,-0.21057129,9.810577,4.2007446,-15.859985,-41.03241,0.23971257,-0.20891151,9.801494,-0.00051786005,0.0005732924,0.0004644394,-0.0001373291,-0.0001373291,9.1552734e-05
0.010765925,-0.01215239,0.9917441,0.23928833,-0.20100403,9.808182,4.1625977,-16.888428,-40.333557,0.23973015,-0.20952158,9.80148,0.00040057302,-0.0011879951,0.00078487396,4.5776367e-05,3.0517578e-05,3.0517578e-05
0.010770252,-0.012162259,0.99174315,0.23928833,-0.21057129,9.808182,3.9672852,-15.960693,-39.45923,0.2398402,-0.20970123,9.801474,7.271767e-05,0.00041630864,-0.0009050369,-0.0002593994,9.1552734e-05,-9.1552734e-05
0.010807468,-0.012144935,0.9917326,0.23449707,-0.20817566,9.7986145,4.2007446,-16.087341,-39.945984,0.24053784,-0.20925179,9.801466,0.0015178323,0.0011642575,0.0006799698,4.5776367e-05,-3.0517578e-05,-0.00015258789
0.010775865,-0.012138438,0.99174106,0.23928833,-0.21057129,9.800995,4.0985107,-14.784241,-39.52484,0.2398938,-0.2092196,9.801483,-0.0011843741,-0.0005554706,-0.000834465,0.00016784668,-3.0517578e-05,3.0517578e-05
0.010773418,-0.012116253,0.99174124,0.2416687,-0.20578003,9.805786,4.005432,-16.905212,-39.42566,0.23979111,-0.208794,9.801495,-0.0003515184,0.0009300709,-0.0010328293,-1.5258789e-05,9.1552734e-05,3.0517578e-05
0.010727344,-0.012130758,0.9917541,0.24406433,-0.21057129,9.810577,3.2989502,-16.668701,-38.59253,0.23891053,-0.20921476,9.801507,-0.0011580586,-0.0010368228,0.0007390976,-1.5258789e-05,9.1552734e-05,-3.0517578e-05
0.010779998,-0.012157461,0.9917404,0.24885559,-0.20817566,9.805786,3.842163,-15.54718,-37.25586,0.2400223,-0.20957845,9.801473,0.0020587593,-0.00020940602,-0.00093746185,-0.0001373291,-9.1552734e-05,-0.00021362305
0.01078161,-0.0121500995,0.9917398,0.2368927,-0.21534729,9.800995,4.2297363,-17.32788,-39.52179,0.24003641,-0.20942998,9.801476,9.597838e-05,-0.00056405365,0.0013370514,-7.6293945e-05,-3.0517578e-05,-9.1552734e-05
0.01076147,-0.012149015,0.99174523,0.23928833,-0.21057129,9.7986145,3.5583496,-16.212463,-38.737488,0.23963337,-0.20946905,9.801484,-0.0006958395,-4.7698617e-05,0.00041294098,-7.6293945e-05,-3.0517578e-05,-0.00021362305
0.010738607,-0.012158809,0.9917517,0.23449707,-0.20100403,9.808182,4.005432,-16.905212,-39.42566,0.23920266,-0.2097285,9.801488,-0.00051635504,-0.0004989058,0.0005979538,-1.5258789e-05,3.0517578e-05,-0.00021362305
0.010713049,-0.012156729,0.9917586,0.2416687,-0.21296692,9.810577,4.7668457,-15.899658,-40.534973,0.23868951,-0.20976426,9.8015,-0.0014222413,0.0004696995,-0.0011920929,-7.6293945e-05,-3.0517578e-05,-9.1552734e-05
0.010733707,-0.012172568,0.99175334,0.23928833,-0.21057129,9.7986145,4.7576904,-16.04309,-40.86609,0.23913877,-0.21001165,9.801485,0.0014789104,-0.00046746433,0.0004720688,-7.6293945e-05,0.00015258789,-0.00032043457
0.010709097,-0.012141567,0.99175936,0.2368927,-0.21774292,9.8033905,4.5074463,-16.279602,-40.67688,0.23857404,-0.20948018,9.801509,-0.0008086115,0.0018553287,-0.0012693405,-0.0001373291,9.1552734e-05,3.0517578e-05
0.010669545,-0.012141871,0.9917701,0.2368927,-0.21534729,9.808182,5.0720215,-16.54663,-39.094543,0.2377885,-0.20960417,9.801526,-0.0009832531,-0.00089003146,-6.198883e-05,4.5776367e-05,9.1552734e-05,-3.0517578e-05
0.010660265,-0.012155963,0.99177295,0.24406433,-0.21534729,9.812973,4.060364,-15.815735,-38.449097,0.23763824,-0.20990683,9.801523,-0.00083611906,-9.615719e-05,0.0002822876,-1.5258789e-05,-0.0001373291,3.0517578e-05
0.010699094,-0.012123176,0.9917616,0.23210144,-0.20817566,9.8033905,3.7765503,-15.185547,-37.480164,0.23833047,-0.20915116,9.801522,0.0020353496,0.0015474111,0.00178051,-7.6293945e-05,0.00015258789,-9.1552734e-05
0.010698249,-0.0120326625,0.99175984,0.2416687,-0.2033844,9.805786,3.4667969,-14.915466,-37.413025,0.23809345,-0.20738739,9.801565,-0.00012128055,0.0026498437,-9.346008e-05,0.00016784668,0.00015258789,0.00021362305
0.0107203545,-0.012081573,0.9917549,0.23210144,-0.20578003,9.8033905,4.4311523,-14.848328,-37.815857,0.23865187,-0.20827581,9.801533,0.0012425929,-0.0017103106,-6.2942505e-05,0.00010681152,3.0517578e-05,-3.0517578e-05
0.010736433,-0.0121023245,0.991751,0.2416687,-0.20578003,9.817749,3.994751,-15.527344,-38.46588,0.23902199,-0.20863275,9.801517,0.0008684397,-0.0013650656,0.00026798248,4.5776367e-05,9.1552734e-05,9.1552734e-05
0.010698286,-0.012128819,0.991762,0.24406433,-0.21296692,9.805786,4.803467,-15.400696,-38.623047,0.23832813,-0.2092637,9.80152,-0.0012984425,-0.00096938014,-0.0006132126,0.00010681152,-3.0517578e-05,-3.0517578e-05
0.01072602,-0.0121710235,0.9917554,0.2416687,-0.20817566,9.800995,4.321289,-15.283203,-39.18457,0.23898216,-0.21000446,9.801488,0.0013971776,-0.00095269084,-0.0007314682,-0.00019836426,3.0517578e-05,-0.00019836426
0.010732684,-0.012160204,0.99175334,0.23449707,-0.21534729,9.808182,3.842163,-15.548706,-37.25586,0.23908834,-0.20977344,9.801491,0.0005701184,0.0016880333,0.00032138824,-0.0002593994,9.1552734e-05,-9.1552734e-05
0.010720474,-0.012228482,0.9917582,0.2416687,-0.20578003,9.808182,3.327942,-16.011047,-38.61084,0.23901169,-0.21114233,9.801464,0.00040915608,-0.0022124946,-0.0005903244,-0.00019836426,3.0517578e-05,-9.1552734e-05
0.010730438,-0.012186276,0.99175453,0.23210144,-0.20817566,9.827316,4.862976,-15.908813,-38.427734,0.23910709,-0.2102889,9.801478,0.00078962743,0.0019647628,0.0010385513,-7.6293945e-05,0.00021362305,-0.00021362305
0.010738315,-0.012146759,0.9917515,0.23449707,-0.21296692,9.7986145,3.4088135,-16.079712,-38.25226,0.23916756,-0.20949423,9.801495,-0.00023247302,0.00141415,6.389618e-05,-1.5258789e-05,-3.0517578e-05,3.0517578e-05
0.010713748,-0.012113706,0.99175745,0.2416687,-0.21057129,9.796219,2.5253296,-15.914917,-38.861084,0.23859875,-0.20892264,9.801521,-0.0010645688,0.0012862682,-0.0026741028,4.5776367e-05,-3.0517578e-05,0.00021362305
0.010706975,-0.012127192,0.9917596,0.24406433,-0.21057129,9.8033905,3.100586,-15.733337,-38.619995,0.2384969,-0.20920599,9.801517,0.0004426241,-0.00055633485,0.002363205,-7.6293945e-05,0.00015258789,0.00015258789
0.01070143,-0.01209207,0.9917603,0.23449707,-0.2033844,9.8033905,3.0761719,-14.421082,-38.65509,0.23830125,-0.20853719,9.801537,-6.638467e-05,0.0021206588,-0.0009756088,-7.6293945e-05,9.1552734e-05,-9.1552734e-05
0.010748219,-0.0121423295,0.9917487,0.23210144,-0.20578003,9.805786,3.37677,-16.659546,-39.048767,0.23935366,-0.2093782,9.801493,0.0012952089,-0.0011285394,-0.0015964508,-0.0002593994,-0.00019836426,-3.0517578e-05
0.010738921,-0.012145251,0.9917513,0.23928833,-0.21296692,9.8033905,2.3330688,-14.836121,-38.861084,0.23917593,-0.20946299,9.801495,-0.00068092346,-0.00032444298,0.00020885468,0.00010681152,-3.0517578e-05,0.00016784668
0.010763136,-0.012129885,0.99174434,0.2368927,-0.21057129,9.8033905,4.5288086,-15.995789,-39.56299,0.23961993,-0.20909077,9.801493,0.0007728189,0.0012340993,0.00078487396,-7.6293945e-05,-9.1552734e-05,-0.00015258789
0.010759063,-0.012177864,0.99174654,0.24406433,-0.1986084,9.800995,4.1763306,-16.749573,-39.17389,0.2400469,-0.21023192,9.801457,0.00035500526,-0.00051642954,-0.00262928,-7.6293945e-05,-3.0517578e-05,3.0517578e-05
0.010792676,-0.012198791,0.99173784,0.23928833,-0.20817566,9.834503,3.3416748,-15.94696,-37.239075,0.240375,-0.21034706,9.801448,0.00028060377,7.8588724e-05,-0.0007915497,4.5776367e-05,-3.0517578e-05,-3.0517578e-05
0.010807097,-0.0121603245,0.9917331,0.2368927,-0.21534729,9.767502,4.156494,-15.44342,-38.757324,0.24056795,-0.2095532,9.801458,-0.0003938675,0.0011859089,-0.0005245209,4.5776367e-05,-0.0002593994,-0.00015258789
0.010789307,-0.012153585,0.9917378,0.24885559,-0.21296692,9.824936,3.3996582,-16.374207,-37.782288,0.24019788,-0.20947495,9.80147,-0.0009904653,0.00065268576,0.0017318726,-0.00019836426,-7.6293945e-05,3.0517578e-05
0.010799086,-0.012177118,0.99173564,0.2416687,-0.20817566,9.8033905,4.1625977,-15.449524,-38.002014,0.24044964,-0.20990494,9.8014555,0.00089250505,-0.0012982488,0.0013113022,0.00010681152,3.0517578e-05,3.0517578e-05
0.0107981125,-0.012191444,0.99173623,0.24406433,-0.20578003,9.800995,3.9077759,-15.452576,-39.65454,0.24046518,-0.2101874,9.801449,-8.927286e-05,-0.00029417872,0.00039958954,-7.6293945e-05,9.1552734e-05,-0.00015258789
0.010812253,-0.012150997,0.99173146,0.23449707,-0.21057129,9.8033905,4.182434,-14.857483,-38.94043,0.24064773,-0.20935577,9.801461,-1.6897917e-05,0.0017330348,-0.0008497238,0.00010681152,-0.0001373291,3.0517578e-05
0.010771713,-0.012135525,0.99174213,0.2416687,-0.20817566,9.808182,2.8778076,-15.464783,-37.5,0.23980416,-0.20917515,9.801486,-0.0011078566,-0.00034435093,0.0010213852,4.5776367e-05,9.1552734e-05,-0.00032043457
0.010764775,-0.012149173,0.99174434,0.2416687,-0.20817566,9.7986145,3.239441,-14.564514,-37.634277,0.23969947,-0.20946226,9.801483,-5.620718e-05,-0.0012347251,0.0011529922,0.00022888184,3.0517578e-05,-7.6293945e-05
0.01076635,-0.012179678,0.99174464,0.2368927,-0.20578003,9.8033905,3.9840698,-15.82489,-38.07068,0.23980506,-0.21005283,9.801468,0.00055518746,-0.0011320114,-2.7656555e-05,-1.5258789e-05,9.1552734e-05,-3.0517578e-05
0.0107659325,-0.012146337,0.991744,0.2368927,-0.21534729,9.8033905,3.9154053,-15.460205,-38.52234,0.23971559,-0.20940346,9.801484,-0.0003158003,0.0015745014,-2.5749207e-05,-1.5258789e-05,-3.0517578e-05,-0.00015258789
0.010737261,-0.012137092,0.99175155,0.22970581,-0.20578003,9.805786,4.135132,-15.805054,-39.282227,0.23912306,-0.20930873,9.801499,-0.0006491542,0.00050102174,-0.0016069412,-0.0001373291,0.00015258789,-0.0002746582
0.010718239,-0.012179162,0.9917577,0.24406433,-0.21774292,9.815353,5.101013,-15.812683,-39.323425,0.23884726,-0.21018654,9.801488,8.329749e-05,-0.0019479394,0.0013132095,4.5776367e-05,9.1552734e-05,3.0517578e-05
0.010710026,-0.012170968,0.9917598,0.2368927,-0.21057129,9.805786,4.159546,-15.370178,-38.816833,0.23866406,-0.21005115,9.801496,-0.00070519745,-0.0001668334,0.000875473,4.5776367e-05,3.0517578e-05,9.1552734e-05
0.010733833,-0.01217852,0.99175346,0.2416687,-0.21296692,9.796219,2.6275635,-15.396118,-39.0625,0.23915572,-0.2101274,9.801481,0.00023575127,0.00015485287,0.000113487244,0.00010681152,-0.00019836426,-0.00015258789
0.0107448455,-0.012187863,0.99175066,0.24406433,-0.20817566,9.810577,3.0456543,-15.307617,-37.701416,0.23939742,-0.21027683,9.801473,0.0005143285,0.00026090443,-0.0026378632,-0.00019836426,-3.0517578e-05,-1.5258789e-05
0.010763836,-0.012166306,0.991745,0.2416687,-0.2033844,9.7986145,2.4032593,-15.202332,-37.805176,0.2397225,-0.2097994,9.801475,0.00017170608,0.0010039657,0.0014400482,-1.5258789e-05,-9.1552734e-05,3.0517578e-05
0.010760019,-0.012179336,0.9917463,0.24885559,-0.21057129,9.8033905,2.8900146,-15.019226,-38.467407,0.23967832,-0.21006507,9.80147,-4.902482e-06,0.00028802454,-0.0019044876,-0.0001373291,3.0517578e-05,0.0002746582
0.01077336,-0.01218078,0.99174273,0.23210144,-0.21774292,9.805786,2.7069092,-15.466309,-38.77716,0.23994707,-0.21005334,9.801463,0.0006776303,0.00077325106,0.0008096695,-0.0002593994,3.0517578e-05,9.1552734e-05
0.010763234,-0.012207172,0.99174607,0.23928833,-0.20817566,9.810577,3.3493042,-15.496826,-38.734436,0.23981005,-0.21059868,9.801456,-0.00062809885,-0.0005963445,0.0006990433,-0.0001373291,-9.1552734e-05,-0.00021362305
0.010787492,-0.012201734,0.99173933,0.24406433,-0.20578003,9.805786,4.434204,-14.700317,-38.163757,0.2402791,-0.21042,9.801449,0.0012867749,0.00042705238,-0.0003299713,-1.5258789e-05,0.00015258789,-9.1552734e-05
0.010760357,-0.012158788,0.99174577,0.24645996,-0.21057129,9.805786,3.919983,-15.388489,-38.356018,0.23963502,-0.20966306,9.801479,-0.0016510934,0.0020469874,-0.00021362305,-0.0001373291,-0.0001373291,0.00010681152
0.010754392,-0.012160063,0.99174744,0.23210144,-0.21057129,9.793823,3.1585693,-16.163635,-39.163208,0.23951957,-0.2097058,9.801482,-0.0005799979,0.00066041946,0.0004968643,-0.00019836426,-9.1552734e-05,-9.1552734e-05
0.010731958,-0.012191973,0.99175423,0.2368927,-0.21534729,9.805786,3.2150269,-15.2282715,-37.088013,0.23915121,-0.21039556,9.8014765,-0.000432536,-0.0005771518,-0.0018939972,-0.00019836426,0.00015258789,-9.1552734e-05
0.010740467,-0.012240604,0.99175304,0.2416687,-0.21296692,9.810577,4.1244507,-15.792847,-40.864563,0.23943868,-0.2113191,9.801449,0.0007095486,-0.001083523,0.00033855438,-0.0001373291,-3.0517578e-05,0.00015258789
0.010726871,-0.012191251,0.9917556,0.24885559,-0.21057129,9.820145,4.045105,-15.87677,-40.048218,0.23904829,-0.21039665,9.801478,-0.0008404106,0.0018375665,0.0027799606,-0.0001373291,3.0517578e-05,-9.1552734e-05
0.010790715,-0.012223078,0.991739,0.23928833,-0.22013855,9.817749,3.578186,-15.696716,-39.237976,0.24039513,-0.21082686,9.801436,0.0025820285,-0.00035120547,0.0004234314,-0.0001373291,-9.1552734e-05,-9.1552734e-05
0.010784946,-0.012188394,0.99173975,0.23928833,-0.20578003,9.805786,3.6514282,-15.911865,-39.13269,0.24019599,-0.21016727,9.8014555,0.00016342103,0.000905633,-0.00052928925,4.5776367e-05,9.1552734e-05,-9.1552734e-05
0.010765165,-0.012186924,0.9917451,0.23210144,-0.21296692,9.800995,4.211426,-16.096497,-38.589478,0.23979911,-0.21019775,9.801464,-0.0004118085,0.00045751035,0.00091934204,-7.6293945e-05,0.00015258789,-3.0517578e-05
0.010748102,-0.012167028,0.9917493,0.24645996,-0.21057129,9.7986145,3.4942627,-15.774536,-39.32495,0.23941144,-0.2098605,9.80148,-0.0009402633,9.4011426e-05,-0.0024118423,0.00010681152,-3.0517578e-05,0.00015258789
0.0107685365,-0.012182022,0.99174404,0.2416687,-0.21057129,9.7986145,3.6621094,-15.6188965,-39.29901,0.23985422,-0.21009202,9.801465,0.00052797794,-0.00039488077,-0.00033283234,0.00010681152,-9.1552734e-05,-3.0517578e-05
0.010772641,-0.012202445,0.9917434,0.24645996,-0.21534729,9.808182,3.3538818,-15.348816,-38.92975,0.23998553,-0.21047829,9.801454,0.00086411834,-0.00072079897,0.00041484833,-7.6293945e-05,9.1552734e-05,9.1552734e-05
0.010760453,-0.012156511,0.9917457,0.2416687,-0.21296692,9.805786,3.919983,-15.464783,-37.994385,0.2396314,-0.20961837,9.801481,-0.0011613965,0.0017753541,-0.0015106201,-0.00019836426,-1.5258789e-05,0.00021362305
0.010732294,-0.012208379,0.99175453,0.2368927,-0.21534729,9.810577,3.3706665,-15.213013,-37.620544,0.23919779,-0.2107147,9.801468,-0.00050628185,-0.0021566004,0.0005874634,-0.0001373291,3.0517578e-05,3.0517578e-05
0.010755445,-0.0122532435,0.9917492,0.2368927,-0.21057129,9.82254,3.3874512,-16.668701,-37.615967,0.23976724,-0.21152097,9.801435,0.00060102344,-0.000631541,8.773804e-05,-7.6293945e-05,-9.1552734e-05,-0.00015258789
0.010762751,-0.012221124,0.99174654,0.23449707,-0.21057129,9.8033905,3.3996582,-16.374207,-37.783813,0.2398344,-0.21087238,9.80145,-0.0006624609,0.0011205822,0.000541687,-1.5258789e-05,-9.1552734e-05,3.0517578e-05
0.010733669,-0.012223157,0.9917545,0.24406433,-0.21296692,9.793823,3.3157349,-16.300964,-38.594055,0.23926105,-0.21099895,9.801459,-0.0015172809,0.0005248934,-0.0004339218,-0.0002593994,-0.00033569336,3.0517578e-05
0.010784881,-0.012231044,0.9917407,0.2416687,-0.21057129,9.808182,4.0802,-15.376282,-38.43689,0.24029851,-0.21099974,9.8014345,0.0017428994,5.6892633e-05,0.00035476685,4.5776367e-05,9.1552734e-05,-3.0517578e-05
0.010798591,-0.012200949,0.9917363,0.24406433,-0.21296692,9.815353,4.057312,-15.736389,-39.190674,0.24049784,-0.21037146,9.801444,-0.00036983192,0.0018158108,-0.0007095337,-0.0001373291,-0.0002593994,0.00021362305
0.010797091,-0.012240107,0.9917376,0.23928833,-0.21057129,9.810577,4.623413,-15.925598,-38.27057,0.24056336,-0.2111401,9.801426,-0.00019748509,-0.0012396723,0.00048828125,-7.6293945e-05,-0.0001373291,9.1552734e-05
0.010760224,-0.012236557,0.99174756,0.2416687,-0.21057129,9.812973,4.43573,-14.701843,-38.01422,0.2398217,-0.2111811,9.801443,-0.0018468946,-1.2174249e-05,-0.00030231476,-7.6293945e-05,-9.1552734e-05,9.1552734e-05
0.010756884,-0.012245734,0.9917487,0.2368927,-0.21057129,9.800995,2.2262573,-15.501404,-38.31024,0.2397776,-0.21137016,9.801439,-0.0005965084,0.0006492585,-3.71933e-05,-0.0001373291,-9.1552734e-05,0.00021362305
0.010748289,-0.012184801,0.99174964,0.2416687,-0.21057129,9.800995,3.3096313,-16.296387,-39.27307,0.23945843,-0.21020678,9.801473,-0.0005221218,0.0030871332,0.00014209747,-0.00032043457,-0.0001373291,9.1552734e-05
0.010757093,-0.012228485,0.9917482,0.2416687,-0.21057129,9.8033905,3.6712646,-15.626526,-38.24463,0.23973979,-0.21103293,9.801448,0.00064481795,-0.0004017353,-0.0011796951,-0.0002593994,0.00015258789,-9.1552734e-05
0.010749281,-0.012185865,0.9917494,0.2416687,-0.21774292,9.8033905,3.4561157,-14.753723,-39.570618,0.23948073,-0.21022457,9.801471,-0.001258716,0.0014239401,0.0009784698,-1.5258789e-05,-0.0001373291,3.0517578e-05
0.010749023,-0.012232291,0.99175054,0.2416687,-0.21296692,9.7986145,2.6260376,-15.698242,-37.838745,0.23958857,-0.2111313,9.801449,-0.00016739964,-0.0022239983,-0.00078201294,4.5776367e-05,-0.00019836426,-9.1552734e-05
0.010753795,-0.012248446,0.9917496,0.23928833,-0.20578003,9.793823,3.9001465,-15.750122,-38.809204,0.23972276,-0.21143232,9.801439,-0.00051641464,-0.00074511766,-0.001156807,0.00010681152,-9.1552734e-05,-3.0517578e-05
0.0107389465,-0.012182227,0.99175215,0.24885559,-0.20578003,9.808182,3.617859,-15.124512,-37.46338,0.23926643,-0.21018448,9.801477,-0.0012646765,0.0023242384,2.3841858e-05,4.5776367e-05,-9.1552734e-05,3.0517578e-05
0.010754884,-0.01218658,0.9917479,0.2416687,-0.21534729,9.8033905,2.6306152,-15.704346,-37.083435,0.2395939,-0.2102218,9.801469,0.00103724,-2.5048852e-05,0.0008172989,-1.5258789e-05,3.0517578e-05,3.0517578e-05
0.010770271,-0.012157876,0.991743,0.23449707,-0.21534729,9.8033905,3.5308838,-15.202332,-37.625122,0.23982988,-0.20961563,9.801476,0.0005620718,0.0005543232,-0.00041675568,0.00010681152,3.0517578e-05,3.0517578e-05
0.010766712,-0.012148798,0.9917438,0.23928833,-0.21534729,9.796219,3.1585693,-16.163635,-39.163208,0.23973705,-0.20944913,9.801481,-0.00053551793,0.0001591146,3.9100647e-05,0.00010681152,-0.0001373291,-9.1552734e-05
0.010773012,-0.012173024,0.9917427,0.22732544,-0.20578003,9.817749,3.2409668,-14.413452,-38.356018,0.2399213,-0.20990305,9.801468,2.5331974e-06,-0.0013139546,-0.00045204163,4.5776367e-05,-9.1552734e-05,-3.0517578e-05
0.010716577,-0.012191886,0.99175847,0.23928833,-0.20817566,9.808182,3.842163,-15.397644,-37.9776,0.23884517,-0.21043979,9.801482,-0.0020335466,-0.00077721477,1.5258789e-05,-1.5258789e-05,9.1552734e-05,-3.0517578e-05
0.010745166,-0.012194885,0.9917507,0.23928833,-0.20578003,9.815353,3.40271,-16.073608,-39.004517,0.23942089,-0.21041292,9.80147,0.0009935051,0.0003710091,-0.0014209747,-7.6293945e-05,-9.1552734e-05,-3.0517578e-05
0.0107016,-0.0121783,0.9917622,0.23210144,-0.21296692,9.808182,3.6132812,-15.12146,-37.838745,0.23851435,-0.21021937,9.801495,-0.0019310117,0.0009110272,0.00017642975,-7.6293945e-05,3.0517578e-05,-3.0517578e-05
0.0107292,-0.012192161,0.991755,0.23210144,-0.21296692,9.808182,2.8411865,-16.191101,-38.25226,0.23909684,-0.21040747,9.801477,0.0008315891,-0.00081317127,0.0009212494,4.5776367e-05,-9.1552734e-05,-0.00015258789
0.010701809,-0.012204263,0.99176276,0.2368927,-0.20578003,9.8033905,3.1341553,-14.927673,-38.534546,0.23858166,-0.21072544,9.801483,-0.0012990832,0.0007006228,0.00041389465,-7.6293945e-05,-3.0517578e-05,-3.0517578e-05
0.010672724,-0.012180224,0.9917701,0.23928833,-0.22013855,9.800995,3.338623,-15.789795,-38.49182,0.23794492,-0.21034311,9.801506,-0.0013859123,0.0005681515,0.0005912781,-1.5258789e-05,-3.0517578e-05,-9.1552734e-05
0.010723804,-0.0122076245,0.99175686,0.2416687,-0.20578003,9.808182,2.760315,-16.195679,-38.171387,0.23902717,-0.21072535,9.801473,0.002784133,-0.00071774423,0.0008678436,-1.5258789e-05,9.1552734e-05,-3.0517578e-05
0.010729459,-0.012226289,0.9917557,0.23928833,-0.21296692,9.812973,3.2546997,-15.945435,-37.991333,0.23918498,-0.21107267,9.80146,0.00023122132,-0.00012663007,-5.8174133e-05,-7.6293945e-05,3.0517578e-05,0.0004119873
0.01074205,-0.012248625,0.9917528,0.24645996,-0.21774292,9.812973,3.1845093,-15.655518,-38.531494,0.23948966,-0.2114709,9.801444,0.00066898763,5.185604e-06,-0.0020990372,-0.00019836426,-3.0517578e-05,3.0517578e-05
0.010753578,-0.012249663,0.9917497,0.2368927,-0.21057129,9.805786,3.994751,-15.527344,-38.46588,0.23972142,-0.2114567,9.801439,0.00017656386,3.4213066e-05,0.0025911331,-1.5258789e-05,-1.5258789e-05,-0.00015258789
0.010747162,-0.012236119,0.99175113,0.24406433,-0.21534729,9.815353,3.239441,-16.159058,-38.789368,0.23956087,-0.21121159,9.801448,-0.00039874017,0.0012245923,0.0015707016,-7.6293945e-05,-3.0517578e-05,9.1552734e-05
0.010737213,-0.0122104585,0.9917532,0.23449707,-0.20578003,9.812973,4.576111,-15.203857,-37.893677,0.23930067,-0.21074058,9.801465,-0.00038710237,0.0010014921,0.00040531158,-7.6293945e-05,-3.0517578e-05,0.00015258789
0.010700632,-0.012173705,0.9917624,0.2416687,-0.21534729,9.7986145,3.9352417,-16.844177,-38.578796,0.23848392,-0.2101326,9.801497,-0.0021774024,0.0010953397,-0.0013237,-7.6293945e-05,3.0517578e-05,0.00021362305
0.010724204,-0.012197296,0.9917565,0.23928833,-0.21774292,9.810577,3.8360596,-15.696716,-37.20703,0.23900996,-0.21052259,9.8014765,0.00090418756,3.1754375e-05,-0.0018320084,-7.6293945e-05,-0.0001373291,9.1552734e-05
0.010748271,-0.01219289,0.9917498,0.23928833,-0.21534729,9.800995,4.2907715,-16.242981,-37.791443,0.23947774,-0.21036467,9.801468,0.00042776763,0.00084249675,0.0006990433,-0.0001373291,-0.00019836426,3.0517578e-05
0.010750117,-0.012171385,0.99174887,0.24406433,-0.21057129,9.805786,2.7755737,-15.675354,-39.12506,0.23946209,-0.2099395,9.801477,-0.00028704107,0.00042881072,0.0011062622,0.00010681152,3.0517578e-05,0.0002746582
0.010737968,-0.012179476,0.9917523,0.23928833,-0.2033844,9.808182,3.2318115,-16.38031,-38.456726,0.23924027,-0.21013372,9.801479,-0.00031237304,-9.1299415e-05,0.0002603531,-0.00019836426,-9.1552734e-05,3.0517578e-05
0.010760598,-0.012132612,0.9917451,0.2416687,-0.20817566,9.817749,4.309082,-15.805054,-37.854004,0.23957612,-0.20915157,9.801493,0.0010281205,0.0013234466,0.00016593933,0.00022888184,0.00015258789,9.1552734e-05
0.01077844,-0.012159077,0.9917408,0.23928833,-0.20817566,9.800995,3.0334473,-15.525818,-37.6709,0.23999523,-0.20961465,9.801472,-0.0005980879,-0.00013458729,0.00012779236,-7.6293945e-05,-0.0002593994,0.000289917
0.010748431,-0.012132358,0.9917484,0.23210144,-0.20817566,9.808182,2.947998,-15.678406,-37.469482,0.23933361,-0.20918296,9.801497,-0.0003835857,0.00037240982,-0.0005283356,0.00010681152,9.1552734e-05,9.1552734e-05
0.0107109435,-0.012146324,0.99175894,0.24645996,-0.20100403,9.810577,3.388977,-14.69574,-38.27057,0.23862234,-0.2095675,9.801506,-0.0013361871,0.00025628507,-0.0011396408,-0.0001373291,-3.0517578e-05,-9.1552734e-05
0.010728693,-0.012158823,0.9917544,0.2416687,-0.20100403,9.805786,3.0426025,-15.304565,-38.079834,0.23900561,-0.2097584,9.801493,-2.4199486e-05,-0.0002847761,-0.0013942719,-7.6293945e-05,-0.0001373291,9.1552734e-05
0.0107283145,-0.01218344,0.99175507,0.24406433,-0.19142151,9.815353,3.578186,-15.77301,-38.57422,0.23905799,-0.2102399,9.801481,-0.0003542453,-0.00049081445,0.0027513504,-0.0001373291,-9.1552734e-05,3.0517578e-05
0.010763024,-0.012158184,0.99174505,0.23210144,-0.22013855,9.796219,3.1433105,-16.607666,-38.27057,0.23968661,-0.20964333,9.801479,-0.00024317205,0.0017763376,-0.0018224716,-0.0001373291,-0.00032043457,9.1552734e-05
0.010718733,-0.012139084,0.9917567,0.2416687,-0.21057129,9.805786,4.5196533,-16.29181,-38.868713,0.2387596,-0.20940296,9.801507,-0.0014694929,0.0003322959,0.00021457672,4.5776367e-05,-9.1552734e-05,0.0002746582
0.010727073,-0.012147948,0.9917546,0.23449707,-0.21057129,9.7986145,3.7063599,-14.820862,-38.23242,0.23894694,-0.20955102,9.801498,0.00026375055,-0.0007080436,0.0001411438,4.5776367e-05,3.0517578e-05,0.00021362305
0.01071232,-0.0121318195,0.9917582,0.24645996,-0.21534729,9.805786,4.1015625,-14.941406,-37.971497,0.23861443,-0.20928034,9.801513,-0.00082692504,0.00018832088,-0.0021352768,0.00010681152,-3.0517578e-05,9.1552734e-05
0.010756912,-0.012124338,0.99174595,0.22970581,-0.20578003,9.791428,3.4103394,-16.079712,-38.024902,0.23948267,-0.20900112,9.801497,0.0011939555,0.0003926307,-0.0004644394,4.5776367e-05,-3.0517578e-05,3.0517578e-05
0.010714571,-0.012139621,0.9917578,0.2416687,-0.21057129,9.812973,4.2297363,-15.734863,-38.06305,0.23867813,-0.20942585,9.801507,-0.002329111,0.00010673702,0.0020942688,-0.0001373291,-0.00032043457,-3.0517578e-05
0.0107197175,-0.012127784,0.99175614,0.23449707,-0.22013855,9.810577,3.6773682,-15.403748,-38.500977,0.23875168,-0.20917952,9.801512,-0.00023686886,0.00080908835,-0.0011520386,-0.00019836426,-9.1552734e-05,-9.1552734e-05
0.010709208,-0.0121728815,0.99176,0.23449707,-0.20578003,9.812973,3.4179688,-15.783691,-38.571167,0.23865245,-0.21009094,9.801495,-0.0008882284,-0.00087432563,0.002755165,-0.0001373291,-9.1552734e-05,0.00015258789
0.010698879,-0.012174619,0.9917629,0.23928833,-0.20578003,9.796219,2.5863647,-15.135193,-35.684204,0.23845132,-0.2101557,9.801498,0.00023841858,-0.00056251884,0.0016765594,-1.5258789e-05,-3.0517578e-05,-3.0517578e-05
0.010696797,-0.012157912,0.99176306,0.23928833,-0.21057129,9.800995,2.7923584,-15.539551,-37.81433,0.23836929,-0.20983589,9.801507,-0.00035752356,0.0010056645,-0.003191948,-0.0001373291,3.0517578e-05,0.00021362305
0.01074813,-0.012154031,0.991749,0.23928833,-0.19621277,9.805786,2.8701782,-15.457153,-38.479614,0.23938037,-0.2096068,9.801487,0.0015154034,0.0012491941,-4.2915344e-05,-0.0001373291,-3.0517578e-05,3.0517578e-05
0.010738245,-0.012155814,0.99175173,0.23928833,-0.21057129,9.800995,3.7246704,-16.127014,-38.879395,0.23918821,-0.20967115,9.801491,0.00024090707,0.00013838708,0.0014028549,-0.0001373291,-0.0001373291,0.00021362305
0.010731407,-0.012165656,0.9917538,0.2368927,-0.20100403,9.812973,2.8930664,-15.100098,-37.652588,0.23907623,-0.20988365,9.801489,-0.00011599064,-0.00012564659,-0.00033473969,4.5776367e-05,0.00021362305,-7.6293945e-05
0.010692656,-0.012174532,0.99176455,0.2368927,-0.21534729,9.815353,3.7628174,-15.402222,-37.976074,0.23832738,-0.21017256,9.801501,-0.001784578,-6.131828e-05,0.0018587112,-0.0001373291,-3.0517578e-05,0.00021362305
0.0106964,-0.012164877,0.99176335,0.2416687,-0.20817566,9.808182,2.9464722,-15.524292,-38.572693,0.23837832,-0.20997296,9.801503,-0.0006351322,0.0007047355,0.00044345856,-0.00019836426,-0.00019836426,0.00039672852
0.010701925,-0.01218349,0.9917622,0.24406433,-0.21296692,9.800995,3.1799316,-15.878296,-37.898254,0.23853344,-0.2103197,9.801493,0.0006479025,-0.00040140748,-0.00034618378,4.5776367e-05,3.0517578e-05,-9.1552734e-05
0.010701009,-0.012232097,0.9917636,0.2416687,-0.21296692,9.805786,2.5436401,-15.626526,-38.04779,0.23863342,-0.21127096,9.80147,-0.0001629442,-0.000889644,-0.00053596497,-0.0002593994,-3.0517578e-05,-9.1552734e-05
0.010696878,-0.012227947,0.9917646,0.2368927,-0.21057129,9.810577,3.1707764,-16.174316,-37.504578,0.23854119,-0.21120231,9.801474,-0.0005465597,0.00046502054,-0.000992775,-7.6293945e-05,-0.0001373291,0.00021362305
0.010671422,-0.012217964,0.99177134,0.2368927,-0.20817566,9.810577,4.121399,-16.323853,-38.331604,0.23801073,-0.21108343,9.801488,-0.0014320612,0.00081825256,-0.0014486313,-0.00019836426,3.0517578e-05,0.00015258789
0.010665121,-0.012183389,0.99177223,0.23210144,-0.21296692,9.805786,3.7948608,-16.26587,-39.21051,0.23780145,-0.21042754,9.801508,-0.00027042627,0.0016044825,0.00078487396,-1.5258789e-05,-0.0001373291,0.0002746582
0.010651919,-0.012203989,0.9917763,0.23928833,-0.21057129,9.8033905,3.994751,-15.52887,-38.31482,0.23758902,-0.21086891,9.801504,-0.0003027022,-0.00082208216,4.4822693e-05,-0.0001373291,3.0517578e-05,-3.0517578e-05
0.010680085,-0.012183075,0.9917682,0.2368927,-0.20578003,9.805786,3.4942627,-16.003418,-37.937927,0.23809822,-0.21037678,9.801502,0.0011218637,0.0020172745,-0.0009202957,-7.6293945e-05,3.0517578e-05,0.00015258789
0.010660108,-0.012182837,0.9917736,0.23449707,-0.20817566,9.8033905,2.5482178,-15.402222,-38.83362,0.23770045,-0.21043174,9.801511,-0.00088754296,-6.891787e-05,0.0009851456,-0.0001373291,9.1552734e-05,-9.1552734e-05
0.0106488,-0.012167008,0.99177635,0.24406433,-0.21534729,9.808182,2.8625488,-15.7547,-37.9364,0.23743714,-0.21015653,9.801522,-0.0003838092,0.0010934621,0.00034427643,-7.6293945e-05,-9.1552734e-05,9.1552734e-05
0.010664692,-0.012224631,0.9917733,0.2416687,-0.20817566,9.7986145,3.2104492,-14.994812,-38.850403,0.23789313,-0.21123362,9.801488,0.0005852133,-0.0011626035,0.00071811676,-0.0002593994,3.0517578e-05,0.00021362305
0.010684051,-0.012199349,0.99176747,0.23449707,-0.21296692,9.7986145,2.922058,-16.11023,-38.38806,0.23821662,-0.21068253,9.801493,0.001455754,0.0013953745,-0.00032901764,-0.00019836426,9.1552734e-05,9.1552734e-05
0.010695206,-0.012182452,0.99176407,0.2368927,-0.20817566,9.800995,4.3151855,-15.504456,-38.85193,0.23839732,-0.21031949,9.801496,0.00031256676,0.0012620687,0.00011062622,-7.6293945e-05,-9.1552734e-05,3.0517578e-05
0.010702258,-0.012178423,0.99176204,0.2368927,-0.21296692,9.808182,4.067993,-15.594482,-38.783264,0.23852776,-0.21021985,9.801496,0.00040784478,0.00021727383,0.0015077591,4.5776367e-05,9.1552734e-05,-0.00015258789
0.010677229,-0.0121679865,0.9917686,0.23210144,-0.20578003,9.810577,2.59552,-16.203308,-38.84735,0.2387734,-0.21024895,9.801488,0.0013763309,-0.00049196184,-0.001083374,4.5776367e-05,-9.1552734e-05,-0.00032043457
0.010667267,-0.012179111,0.9917716,0.2368927,-0.21774292,9.805786,3.1082153,-15.435791,-39.164734,0.23783372,-0.21033765,9.801509,-0.0015103519,-0.00014846027,0.0010251999,-1.5258789e-05,0.00015258789,-0.00015258789
0.01065534,-0.012193454,0.99177516,0.2416687,-0.20817566,9.800995,3.9794922,-15.744019,-39.112854,0.23763144,-0.21065314,9.801508,-0.0005738884,-9.201467e-05,-0.0013875961,-7.6293945e-05,-3.0517578e-05,-0.00015258789
0.0106763635,-0.012183087,0.9917692,0.2416687,-0.21296692,9.808182,3.4301758,-15.338135,-39.460754,0.23802426,-0.21038812,9.801504,0.0007055849,0.0008401871,-0.00076007843,-7.6293945e-05,3.0517578e-05,-7.6293945e-05
0.010695628,-0.012225961,0.9917649,0.23210144,-0.22013855,9.808182,3.5964966,-15.333557,-38.713074,0.23851152,-0.2111673,9.801476,0.00022006035,-0.0010218322,-0.00018119812,-0.00019836426,-0.00019836426,9.1552734e-05
0.010686183,-0.012237852,0.99176776,0.23928833,-0.21534729,9.805786,4.0664673,-15.592957,-39.083862,0.23835261,-0.21142751,9.801473,-0.0008251965,-0.00026082993,0.0011672974,-1.5258789e-05,-0.00019836426,-3.0517578e-05
0.010698418,-0.0122293085,0.99176425,0.23928833,-0.20578003,9.805786,3.5064697,-15.634155,-38.389587,0.23857515,-0.21122429,9.801473,0.00039072335,0.0007223338,-0.00033855438,-0.0001373291,-0.0001373291,9.1552734e-05
0.010754997,-0.01221771,0.9917486,0.23928833,-0.2033844,9.808182,2.7175903,-15.324402,-38.220215,0.23967187,-0.21082892,9.801454,0.0021509677,0.001053974,0.0008955002,4.5776367e-05,3.0517578e-05,-9.1552734e-05
0.010744709,-0.012215106,0.9917513,0.22970581,-0.20817566,9.808182,3.981018,-15.898132,-38.085938,0.23946099,-0.21080886,9.801459,-0.00027355552,0.00032640994,0.00091362,-0.0002593994,3.0517578e-05,9.1552734e-05
0.0106847845,-0.012184833,0.9917669,0.23928833,-0.21296692,9.810577,3.6727905,-15.475464,-38.74359,0.2381959,-0.21039705,9.801498,-0.0023751557,0.00088481605,0.0009241104,0.00010681152,9.1552734e-05,0.00021362305
0.010681517,-0.012207599,0.99176836,0.2416687,-0.2033844,9.805786,4.3945312,-15.574646,-38.414,0.23818628,-0.21085107,9.801489,-0.0004235059,-0.00082962215,-0.0016088486,-0.0001373291,-9.1552734e-05,-0.00015258789
0.010678428,-0.012160859,0.9917681,0.2416687,-0.20817566,9.805786,3.0014038,-16.026306,-39.282227,0.23801127,-0.2099482,9.801514,0.00022651255,0.0020953864,-0.00011920929,4.5776367e-05,9.1552734e-05,-9.1552734e-05
0.0106828995,-0.012171626,0.99176717,0.23928833,-0.20578003,9.805786,4.597473,-14.691162,-37.94098,0.23812634,-0.21014497,9.801506,-0.00013189018,-0.0005771667,-7.724762e-05,-7.6293945e-05,-9.1552734e-05,-3.0517578e-05
0.01068739,-0.012190707,0.99176633,0.23928833,-0.20100403,9.817749,4.133606,-16.108704,-37.908936,0.23826201,-0.21050392,9.801496,-4.0352345e-05,2.5704503e-05,0.0013914108,-1.5258789e-05,-3.0517578e-05,-9.1552734e-05
0.010722047,-0.012161284,0.99175626,0.22970581,-0.21774292,9.815353,3.7719727,-15.104675,-38.520813,0.23887947,-0.20982628,9.801495,0.0012847036,0.0021853,-0.0028924942,-0.0002593994,-3.0517578e-05,9.1552734e-05
0.010706935,-0.012166708,0.9917605,0.2416687,-0.20578003,9.800995,3.7322998,-16.133118,-37.97455,0.23859224,-0.20997724,9.801498,-0.0013116151,0.00019799173,0.0012655258,-0.0001373291,-9.1552734e-05,-9.1552734e-05
0.010707553,-0.012193193,0.9917609,0.23449707,-0.21057129,9.800995,3.4729004,-16.516113,-37.738037,0.23866893,-0.21049225,9.801486,4.5120716e-05,-0.00096450746,5.1498413e-05,-0.0001373291,-0.0001373291,0.00015258789
0.010686049,-0.012194708,0.9917668,0.2368927,-0.20578003,9.7986145,3.0288696,-15.673828,-37.472534,0.23824507,-0.210586,9.801494,-0.000725016,0.0005670935,0.00035381317,-7.6293945e-05,9.1552734e-05,9.1552734e-05
0.010675481,-0.012167885,0.9917691,0.2368927,-0.20578003,9.805786,3.6056519,-15.41748,-37.21924,0.23796973,-0.2100941,9.801511,-0.00020217896,0.0015217513,-0.00023174286,-0.0001373291,9.1552734e-05,-3.0517578e-05
0.010722569,-0.01220039,0.991757,0.23928833,-0.20578003,9.8033905,2.3513794,-16.445923,-37.527466,0.238985,-0.21058784,9.801476,0.001665622,-0.001354292,-0.0012836456,4.5776367e-05,-9.1552734e-05,0.00021362305
0.010700106,-0.012233429,0.9917639,0.23928833,-0.21057129,9.7986145,3.137207,-16.75415,-38.29956,0.2386187,-0.21129966,9.80147,-0.0010780096,-0.00017167628,-0.00020313263,-0.0002593994,-3.0517578e-05,3.0517578e-05
0.010673678,-0.012212301,0.99177057,0.22970581,-0.20817566,9.800995,3.5583496,-16.362,-38.08899,0.23804185,-0.21096621,9.801491,-0.0012334585,0.00094267726,0.0013122559,-0.0001373291,-9.1552734e-05,0.00021362305
0.010697108,-0.012214499,0.99176425,0.23928833,-0.21774292,9.8033905,3.7994385,-16.195679,-38.970947,0.23851307,-0.2109392,9.80148,0.0009281188,-0.0014722049,-8.583069e-06,4.5776367e-05,9.1552734e-05,3.0517578e-05
0.010682355,-0.012213806,0.99176824,0.2416687,-0.20817566,9.808182,3.4851074,-15.995789,-39.3692,0.23821802,-0.21096969,9.801486,-0.00093379617,-0.00024658442,0.00047397614,4.5776367e-05,-0.0001373291,-3.0517578e-05
0.010668773,-0.01220808,0.9917718,0.22732544,-0.21534729,9.810577,4.3563843,-14.781189,-37.724304,0.23793407,-0.21089847,9.801495,-0.00042293966,-0.0005465895,0.0014295578,0.00016784668,0.00015258789,-3.0517578e-05
0.010656644,-0.012199646,0.9917749,0.23928833,-0.21296692,9.810577,3.9718628,-16.04004,-38.417053,0.2376724,-0.21077007,9.801504,-0.0006509125,0.001004681,0.00015544891,-0.0001373291,-0.0001373291,-0.00015258789
0.010660626,-0.012212534,0.99177414,0.23210144,-0.21296692,9.791428,4.7286987,-15.336609,-38.154602,0.2377829,-0.2110097,9.801496,-0.0002823323,-0.00089891255,0.0007457733,4.5776367e-05,-9.1552734e-05,-3.0517578e-05
0.010695619,-0.012215556,0.99176466,0.24645996,-0.21057129,9.812973,2.6428223,-15.565491,-36.22589,0.238486,-0.21096425,9.801479,0.00096179545,-0.00026279688,-0.00333786,0.00010681152,-9.1552734e-05,3.0517578e-05
0.010704475,-0.012231168,0.99176264,0.2416687,-0.20578003,9.800995,2.557373,-15.258789,-38.65509,0.23870009,-0.2112425,9.801469,0.00053200126,-0.00022506714,-0.0011053085,4.5776367e-05,3.0517578e-05,3.0517578e-05
0.010723841,-0.012184633,0.9917563,0.2368927,-0.22013855,9.805786,2.6000977,-16.207886,-38.319397,0.23897198,-0.21027656,9.801483,0.00023452938,0.0021728873,0.0021371841,-0.00019836426,-0.0001373291,-3.0517578e-05
0.010721594,-0.012161034,0.9917564,0.23210144,-0.21296692,9.8033905,2.7297974,-15.109253,-37.87384,0.23886989,-0.20982277,9.801496,-0.0006046444,0.0012283772,-0.0016012192,-1.5258789e-05,3.0517578e-05,-0.00015258789
0.010743415,-0.012172706,0.9917507,0.24406433,-0.20817566,9.810577,3.5812378,-15.46936,-40.17334,0.2393321,-0.20998533,9.80148,0.001315996,0.00019663572,0.0010080338,-0.0001373291,-3.0517578e-05,0.00021362305
0.010751828,-0.012167832,0.9917483,0.23449707,-0.20578003,9.750748,3.616333,-16.25824,-41.618347,0.23948747,-0.20986505,9.801478,0.0004428178,7.6815486e-05,3.9100647e-05,-7.6293945e-05,3.0517578e-05,0.00016784668
0.010729558,-0.012140164,0.99175376,0.2416687,-0.20578003,9.824936,5.3344727,-15.788269,-40.46173,0.23897742,-0.2093917,9.801501,-0.00046558678,0.00079500675,-0.0012617111,4.5776367e-05,3.0517578e-05,-3.0517578e-05
0.010707758,-0.012160692,0.99176013,0.22970581,-0.20817566,9.812973,4.550171,-15.254211,-40.84778,0.23859397,-0.20985739,9.8015,-0.0012946129,-0.0008996725,0.0005979538,0.00010681152,4.5776367e-05,-3.0517578e-05
0.010725636,-0.012176817,0.99175566,0.24645996,-0.20578003,9.810577,4.1030884,-16.381836,-40.38086,0.23898861,-0.21011867,9.801485,0.00072029233,-0.0011236668,-0.0011920929,4.5776367e-05,-7.6293945e-05,-3.0517578e-05
0.010743651,-0.012153698,0.9917502,0.22492981,-0.20817566,9.796219,3.3065796,-14.776611,-37.983704,0.23929052,-0.2096137,9.801489,-8.5666776e-05,0.0007939786,0.0025568008,0.00010681152,-9.1552734e-05,0.00015258789
0.01070142,-0.01213846,0.9917614,0.23928833,-0.21534729,9.812973,2.7893066,-15.538025,-38.191223,0.23841387,-0.20944247,9.801514,-0.0018570125,-8.696318e-05,0.000746727,0.00010681152,-9.1552734e-05,0.00015258789