timestamp,rotationVector_x,rotationVector_y,rotationVector_z,accelerometer_x,accelerometer_y,accelerometer_z,magneticField_x,magneticField_y,magneticField_z,gravity_x,gravity_y,gravity_z,linearAcceleration_x,linearAcceleration_y,linearAcceleration_z,gyroscope_x,gyroscope_y,gyroscope_z
2019-07-01T20:16:43.923Z,0.010898161,-0.012227286,0.9938508,0.2368927,-0.21440125,9.800995,2.6931763,-15.986633,-37.599182,0.23869674,-0.21493524,9.801388,4.2408705e-05,-0.0008454919,0.0009365082,0.0002593994,-0.00015258789,-4.5776367e-05
2019-07-01T20:16:44.125Z,0.010877662,-0.012202204,0.9938558,0.23760986,-0.2163086,9.802673,3.691101,-15.264893,-37.643433,0.23823477,-0.2145001,9.801409,-0.0011387914,0.0003797561,-0.0016059875,1.5258789e-05,-0.00015258789,1.5258789e-05
2019-07-01T20:16:44.328Z,0.010869352,-0.012234994,0.99385846,0.23808289,-0.21583557,9.803162,2.2842407,-16.007996,-38.415527,0.2381372,-0.21516362,9.801397,-0.0005593002,-0.001833275,-0.00075626373,7.6293945e-05,0.00019836426,0.0001373291
2019-07-01T20:16:44.539Z,0.010863367,-0.012227618,0.9938599,0.24023438,-0.21559143,9.803879,3.6758423,-15.478516,-38.365173,0.23800218,-0.21503553,9.801403,0.00028549135,0.00019682944,0.00061035156,7.6293945e-05,7.6293945e-05,0.00036621094
2019-07-01T20:16:44.740Z,0.01090415,-0.012249626,0.99384964,0.23904419,-0.2163086,9.801712,2.6916504,-15.83252,-38.624573,0.2388631,-0.21535592,9.801375,0.0018143058,-0.0011560321,0.00040245056,7.6293945e-05,-0.00015258789,0.0001373291
2019-07-01T20:16:44.940Z,0.010905436,-0.012253372,0.99384934,0.23976135,-0.21343994,9.8022,2.7557373,-16.343689,-37.825012,0.23889664,-0.2154257,9.8013735,-0.00012369454,-0.00014129281,-0.001490593,1.5258789e-05,-4.5776367e-05,7.6293945e-05
2019-07-01T20:16:45.141Z,0.01092861,-0.01222126,0.9938427,0.23664856,-0.21655273,9.799561,2.6504517,-15.266418,-37.072754,0.23929258,-0.21473527,9.801377,0.00019814074,0.0013190806,-3.33786e-05,7.6293945e-05,-9.1552734e-05,7.6293945e-05
2019-07-01T20:16:45.347Z,0.010891639,-0.012250678,0.9938529,0.23712158,-0.21534729,9.8033905,2.4780273,-15.419006,-37.47406,0.23861526,-0.2154102,9.801379,-0.0017311424,-0.0013636649,-0.0014543533,-4.5776367e-05,-0.00021362305,0.0001373291
2019-07-01T20:16:45.549Z,0.010859537,-0.012251689,0.9938613,0.23641968,-0.21440125,9.800766,3.112793,-15.6692505,-37.324524,0.23797588,-0.21551646,9.801393,-0.001595065,-0.00052660704,0.0012693405,1.5258789e-05,0.0001373291,0.0002593994
2019-07-01T20:16:45.750Z,0.010843022,-0.012230109,0.99386525,0.23832703,-0.21534729,9.803162,3.93219,-15.246582,-37.8006,0.23760083,-0.21513902,9.801411,-0.0004684031,0.001230061,-0.0015439987,-4.5776367e-05,1.5258789e-05,0.00019836426
2019-07-01T20:16:45.954Z,0.010848949,-0.012233232,0.99386376,0.23713684,-0.21559143,9.801956,3.17688,-16.030884,-37.400818,0.2377258,-0.21518412,9.801407,0.00034189224,7.946789e-05,0.0008840561,-4.5776367e-05,7.6293945e-05,0.00030517578
2019-07-01T20:16:46.150Z,0.010837843,-0.012230057,0.9938666,0.23760986,-0.21559143,9.801956,2.8625488,-15.7547,-37.9364,0.23749723,-0.21515192,9.801413,-0.00037284195,4.477799e-05,-0.00021457672,1.5258789e-05,-0.00021362305,1.5258789e-05
2019-07-01T20:16:46.356Z,0.010855682,-0.012238641,0.9938621,0.23808289,-0.21440125,9.802444,1.7562866,-15.242004,-38.238525,0.23787163,-0.21527176,9.801401,-5.3465366e-05,-7.2166324e-05,0.0006685257,-0.00010681152,-4.5776367e-05,0.00030517578
2019-07-01T20:16:46.564Z,0.010841464,-0.012236659,0.9938658,0.23736572,-0.21463013,9.804596,2.6916504,-15.908813,-38.18817,0.23758338,-0.21527128,9.801409,-0.0007163137,0.0006643832,0.00045204163,-0.00016784668,-9.1552734e-05,0.0001373291
2019-07-01T20:16:46.780Z,0.010851599,-0.0122375395,0.99386317,0.23808289,-0.21534729,9.8033905,3.1845093,-15.653992,-38.531494,0.23778774,-0.21526119,9.801403,0.0005002618,0.00017811358,0.0010957718,-4.5776367e-05,1.5258789e-05,0.0001373291
2019-07-01T20:16:46.968Z,0.010858864,-0.012257992,0.9938616,0.23904419,-0.2163086,9.80101,2.2827148,-16.082764,-38.128662,0.23797558,-0.21564154,9.801391,-0.00016000867,-0.00040334463,-5.6266785e-05,3.0517578e-05,-0.0001373291,6.1035156e-05
2019-07-01T20:16:47.174Z,0.010866486,-0.012259882,0.99385965,0.23736572,-0.21606445,9.803635,3.0059814,-15.95459,-39.115906,0.23813187,-0.21565798,9.801387,0.00040899217,9.4011426e-05,-0.00067806244,-0.00015258789,0.00015258789,-0.00024414062
2019-07-01T20:16:47.370Z,0.010844651,-0.012285003,0.9938657,0.23736572,-0.21702576,9.803162,2.9388428,-15.895081,-37.74109,0.23774786,-0.2162079,9.801382,-0.00041858852,-0.0005405694,0.0005054474,3.0517578e-05,0.00015258789,-0.00030517578
2019-07-01T20:16:47.577Z,0.01083647,-0.012282643,0.9938678,0.23953247,-0.2182312,9.802444,3.1478882,-14.790344,-37.600708,0.23757948,-0.21618378,9.801388,0.00023391843,-0.0005761683,0.00032806396,3.0517578e-05,-3.0517578e-05,0.0
2019-07-01T20:16:47.778Z,0.010874964,-0.012316387,0.99385834,0.23928833,-0.21606445,9.799088,2.1987915,-14.338684,-38.150024,0.23841919,-0.21673992,9.801354,0.0017959028,-0.0009715855,-0.0005750656,9.1552734e-05,0.00015258789,-6.1035156e-05
2019-07-01T20:16:47.974Z,0.010878082,-0.012300172,0.99385726,0.23857117,-0.21463013,9.8022,2.2079468,-16.093445,-37.374878,0.23829797,-0.21706185,9.801352,0.0005055666,-0.00092838705,-0.0006866455,-9.1552734e-05,-7.6293945e-05,-6.1035156e-05
2019-07-01T20:16:48.178Z,0.010874415,-0.012308985,0.99385834,0.23568726,-0.2172699,9.801483,2.3284912,-14.982605,-38.511658,0.23839279,-0.21659668,9.801359,-7.779896e-05,0.0012603253,0.0013074875,-9.1552734e-05,3.0517578e-05,4.5776367e-05
2019-07-01T20:16:48.377Z,0.010839012,-0.012313343,0.9938677,0.23713684,-0.21487427,9.800522,2.154541,-15.516663,-37.028503,0.23769432,-0.21677722,9.801373,-0.0015254021,1.6391277e-06,-0.00040626526,3.0517578e-05,-3.0517578e-05,0.00016784668
2019-07-01T20:16:48.585Z,0.010826597,-0.0122858565,0.9938705,0.237854,-0.21702576,9.8029175,3.4164429,-16.085815,-37.347412,0.23738886,-0.21627319,9.801391,-0.0004952401,0.0011539459,-0.0005865097,3.0517578e-05,0.00015258789,-0.00012207031
2019-07-01T20:16:48.787Z,0.010823261,-0.0122914985,0.99387145,0.23808289,-0.2182312,9.801239,3.6102295,-15.116882,-38.441467,0.23733394,-0.21639247,9.801389,0.00026203692,-0.0008647442,0.0011987686,-9.1552734e-05,-3.0517578e-05,-0.00012207031
2019-07-01T20:16:48.992Z,0.010845604,-0.012331516,0.99386626,0.23521423,-0.2163086,9.8033905,2.871704,-15.536499,-37.96692,0.23786396,-0.21711479,9.80136,0.001169607,-0.000618428,-0.00031471252,-9.1552734e-05,0.00021362305,0.000289917
2019-07-01T20:16:49.193Z,0.01078734,-0.012323627,0.99388134,0.23904419,-0.2172699,9.806503,2.6519775,-15.0390625,-37.931824,0.23668297,-0.21711722,9.801389,-0.0017356128,0.0003411919,0.0010595322,-0.00015258789,3.0517578e-05,-0.00012207031
2019-07-01T20:16:49.399Z,0.010812423,-0.01230901,0.99387455,0.2368927,-0.21487427,9.8033905,2.4719238,-15.414429,-38.076782,0.23715384,-0.216764,9.801385,0.0011166483,0.00075121224,0.002781868,0.00015258789,3.0517578e-05,-0.00012207031
2019-07-01T20:16:49.682Z,0.010815378,-0.0122909425,0.9938735,0.23928833,-0.2163086,9.806259,2.5939941,-16.35437,-38.121033,0.23717526,-0.2164028,9.801393,0.00038269162,0.0006145984,-0.00037670135,-9.1552734e-05,9.1552734e-05,0.00016784668
2019-07-01T20:16:49.887Z,0.010853678,-0.012299121,0.99386364,0.23832703,-0.21678162,9.803635,3.3462524,-15.646362,-38.38501,0.23795778,-0.21645969,9.8013735,0.0014887601,0.00021538138,0.001502037,-0.00015258789,-3.0517578e-05,-0.00018310547
2019-07-01T20:16:50.012Z,0.010861074,-0.012302552,0.99386173,0.24072266,-0.21487427,9.801956,2.456665,-15.855408,-37.713623,0.23811275,-0.21650687,9.801369,0.00015464425,0.0004966408,-0.0009059906,-0.00015258789,3.0517578e-05,-6.1035156e-05
2019-07-01T20:16:50.210Z,0.010895445,-0.012292982,0.9938526,0.23951721,-0.21607971,9.801727,3.388977,-16.516113,-38.34076,0.23877966,-0.2162271,9.801357,0.0016499162,0.0006799698,-0.0009212494,0.00015258789,-3.0517578e-05,-0.00019836426
2019-07-01T20:16:50.416Z,0.0108989915,-0.012280705,0.9938515,0.23976135,-0.21536255,9.803162,2.36969,-15.855408,-38.389587,0.23882493,-0.21597752,9.801363,-5.8457255e-05,0.00017230213,-0.0012569427,-3.0517578e-05,9.1552734e-05,-6.1035156e-05
2019-07-01T20:16:50.613Z,0.010917967,-0.012265532,0.99384624,0.23857117,-0.21463013,9.801956,3.251648,-15.866089,-38.88092,0.23917241,-0.21562964,9.801361,0.0012689382,0.0007888824,0.00027751923,9.1552734e-05,0.00015258789,-0.00012207031
2019-07-01T20:16:50.825Z,0.010883679,-0.012245492,0.9938549,0.24095154,-0.21511841,9.8022,3.4942627,-15.776062,-38.94806,0.23844539,-0.21533029,9.801386,-0.00087049603,1.4588237e-05,-0.00014972687,3.0517578e-05,-3.0517578e-05,-0.00012207031
2019-07-01T20:16:51.022Z,0.010926547,-0.012253,0.9938438,0.23857117,-0.21655273,9.8029175,3.3111572,-16.297913,-39.045715,0.2393177,-0.21536146,9.801364,0.0016013682,0.00027227402,-0.000248909,-9.1552734e-05,9.1552734e-05,-0.00012207031
2019-07-01T20:16:51.223Z,0.010909714,-0.01226836,0.99384844,0.23449707,-0.21846008,9.800766,3.0975342,-15.731812,-38.84735,0.2390134,-0.21570721,9.801364,-0.00047841668,-0.00033983588,0.00031375885,3.0517578e-05,9.1552734e-05,-6.1035156e-05
2019-07-01T20:16:51.422Z,0.010833097,-0.012307293,0.9938691,0.23951721,-0.2131958,9.799088,3.1234741,-15.222168,-38.215637,0.23756346,-0.21667483,9.801377,-0.0023624003,-0.0020173788,-0.0018720627,-0.00015258789,0.00021362305,0.0
2019-07-01T20:16:51.635Z,0.01086614,-0.012259124,0.9938597,0.2359314,-0.21751404,9.801712,2.8381348,-16.340637,-37.600708,0.23812336,-0.21564406,9.801387,0.0018900335,0.0024411082,-0.0017299652,-9.1552734e-05,-7.6293945e-05,0.0
2019-07-01T20:16:51.828Z,0.010814633,-0.012297523,0.9938738,0.23736572,-0.21534729,9.802673,2.1362305,-15.649414,-38.641357,0.23717408,-0.21653347,9.80139,-0.0024299622,-0.0012121052,0.00044250488,-0.00021362305,9.1552734e-05,-0.00019836426
2019-07-01T20:16:52.041Z,0.010817594,-0.012278808,0.9938727,0.23713684,-0.21511841,9.800522,3.1936646,-15.664673,-37.32605,0.23719423,-0.21615958,9.801397,0.00064758956,0.001296401,0.0012607574,-9.1552734e-05,0.00015258789,-0.00018310547
2019-07-01T20:16:52.241Z,0.010811264,-0.012278153,0.9938744,0.23568726,-0.21391296,9.8033905,2.4230957,-14.68811,-38.153076,0.23706637,-0.21616381,9.801401,6.759167e-05,0.00081913173,-0.0007534027,-0.00021362305,-3.0517578e-05,-0.00012207031
2019-07-01T20:16:52.442Z,0.010780392,-0.012252712,0.993882,0.23736572,-0.21559143,9.800522,2.2827148,-16.082764,-38.206482,0.23639639,-0.21574932,9.801426,-0.0012013465,0.0011367202,0.0014123917,9.1552734e-05,0.00021362305,-0.00018310547
2019-07-01T20:16:52.648Z,0.010800489,-0.012247053,0.99387664,0.23713684,-0.21559143,9.800995,3.3691406,-15.211487,-37.921143,0.23678622,-0.21558468,9.80142,0.0012985915,0.00022038817,-0.00178051,-3.0517578e-05,-7.6293945e-05,-0.00036621094
2019-07-01T20:16:52.852Z,0.010808153,-0.012246307,0.9938746,0.23857117,-0.21463013,9.8029175,2.3773193,-15.786743,-37.92267,0.23693784,-0.21554951,9.801418,-3.273785e-05,0.0004198104,-0.00085639954,-9.1552734e-05,9.1552734e-05,6.1035156e-05
2019-07-01T20:16:53.053Z,0.010845662,-0.0122372275,0.9938647,0.23976135,-0.2172699,9.801239,3.7063599,-14.97345,-37.2818,0.23766845,-0.21527107,9.801406,0.0018445551,0.00040061772,0.0013380051,-9.1552734e-05,9.1552734e-05,-0.00018310547
2019-07-01T20:16:53.258Z,0.010857669,-0.012282648,0.99386233,0.23641968,-0.21391296,9.800766,3.2867432,-15.213013,-38.07068,0.23800313,-0.21612681,9.801378,0.0007890612,-0.0011359602,0.00025463104,-0.00015258789,-7.6293945e-05,-6.1035156e-05
2019-07-01T20:16:53.458Z,0.010836981,-0.012243505,0.99386704,0.237854,-0.21583557,9.8029175,3.616333,-14.971924,-38.259888,0.23750807,-0.21541718,9.801407,-0.0008725524,0.0015160292,0.00048542023,9.1552734e-05,-7.6293945e-05,-0.00018310547
2019-07-01T20:16:53.661Z,0.0108559085,-0.012247289,0.9938622,0.23545837,-0.21463013,9.800049,2.9205322,-16.184998,-38.253784,0.2378942,-0.21544023,9.801397,-3.799796e-05,-0.00015318394,-0.0012578964,-3.0517578e-05,-0.0001373291,-0.00012207031
2019-07-01T20:16:53.861Z,0.0108149145,-0.01223413,0.99387264,0.23664856,-0.2131958,9.802673,2.6260376,-15.699768,-37.687683,0.23704757,-0.21529324,9.801421,-0.0018260926,0.000885427,-0.00035572052,-0.00021362305,3.0517578e-05,4.5776367e-05
2019-07-01T20:16:54.065Z,0.010810529,-0.012215744,0.99387354,0.23664856,-0.21296692,9.802444,2.5894165,-16.50238,-37.850952,0.2371544,-0.21478696,9.801429,-0.00050872564,0.0012676567,0.001203537,-0.00033569336,-0.00019836426,6.1035156e-05
2019-07-01T20:16:54.272Z,0.010822849,-0.012209329,0.9938702,0.23736572,-0.21463013,9.803879,3.3157349,-16.453552,-37.794495,0.23751862,-0.21534483,9.801407,-0.0005142689,0.0015987903,0.0001783371,-9.1552734e-05,3.0517578e-05,4.5776367e-05
2019-07-01T20:16:54.506Z,0.010815982,-0.012242238,0.9938725,0.237854,-0.21487427,9.798843,2.0187378,-14.866638,-37.57019,0.23708579,-0.2154489,9.801416,-0.0004542172,0.0005900562,0.002005577,-0.00021362305,0.00021362305,0.0
2019-07-01T20:16:54.699Z,0.010820311,-0.01223185,0.9938712,0.23832703,-0.2163086,9.801956,2.055359,-16.033936,-36.827087,0.23715062,-0.21523415,9.801419,0.0009319037,0.0005890578,-0.0013847351,9.1552734e-05,0.00015258789,0.00012207031
2019-07-01T20:16:54.899Z,0.010822459,-0.0122645525,0.9938712,0.23545837,-0.21655273,9.806259,2.9663086,-15.161133,-37.971497,0.23726176,-0.21586779,9.801403,0.00034499168,-0.001155138,0.00019550323,3.0517578e-05,9.1552734e-05,-0.00012207031
2019-07-01T20:16:55.154Z,0.01079323,-0.012260353,0.9938788,0.23808289,-0.21534729,9.8033905,2.9556274,-15.226746,-39.115906,0.23666887,-0.21586426,9.801417,-0.00053042173,6.252527e-05,0.0028324127,-0.00015258789,-3.0517578e-05,0.00022888184
2019-07-01T20:16:55.343Z,0.010797368,-0.012265865,0.99387777,0.2337799,-0.21487427,9.799805,3.9855957,-15.52124,-39.596558,0.23676306,-0.21596089,9.801413,0.000319615,-6.80536e-05,0.00013828278,3.0517578e-05,3.0517578e-05,0.00016784668
2019-07-01T20:16:55.534Z,0.010767631,-0.012238106,0.99388504,0.23904419,-0.21366882,9.801727,1.940918,-15.252686,-35.003662,0.23611097,-0.21549803,9.801439,-0.0016281158,0.0011097491,-0.0019798279,3.0517578e-05,3.0517578e-05,-0.00012207031
2019-07-01T20:16:55.738Z,0.010802823,-0.01220144,0.99387527,0.23736572,-0.21511841,9.802444,4.0985107,-15.24353,-36.90033,0.2367378,-0.21468659,9.801442,0.0018214434,0.0012574643,-0.000207901,-0.00015258789,-3.0517578e-05,6.1035156e-05
2019-07-01T20:16:55.940Z,0.010808395,-0.012223239,0.9938742,0.23640442,-0.21247864,9.803635,2.7786255,-15.679932,-38.74817,0.23689455,-0.2150978,9.801428,0.00022231042,-2.4437904e-06,0.00066185,-9.1552734e-05,0.00015258789,0.0
2019-07-01T20:16:56.141Z,0.010807731,-0.012167602,0.9938735,0.23832703,-0.21463013,9.803635,1.2756348,-16.947937,-38.56659,0.23676528,-0.21401174,9.801455,0.00034302473,0.0025049448,0.0007543564,-0.00021362305,9.1552734e-05,-6.1035156e-05
2019-07-01T20:16:56.354Z,0.010835475,-0.012203453,0.9938668,0.24095154,-0.21391296,9.8022,3.0136108,-16.114807,-37.109375,0.23739444,-0.21463813,9.801427,0.0016162544,-0.0006788671,0.00035190582,-0.00015258789,9.1552734e-05,0.00012207031
2019-07-01T20:16:56.545Z,0.01088327,-0.012211368,0.99385446,0.23976135,-0.21583557,9.802673,2.8396606,-14.596558,-36.94458,0.23836596,-0.21466418,9.801402,0.0020775646,0.0007827133,7.724762e-05,3.0517578e-05,3.0517578e-05,0.00012207031
2019-07-01T20:16:56.748Z,0.010908283,-0.012244396,0.99384844,0.23713684,-0.21511841,9.803146,3.4378052,-15.571594,-37.394714,0.23893477,-0.21524252,9.801376,0.0012631863,-0.0015062839,4.7683716e-05,-3.0517578e-05,0.00015258789,-0.00018310547
2019-07-01T20:16:56.949Z,0.010866199,-0.012225393,0.9938591,0.2400055,-0.2131958,9.801956,3.5125732,-15.486145,-38.739014,0.23805413,-0.21498439,9.801403,-0.0014377236,0.00038330257,-0.0002975464,-9.1552734e-05,-3.0517578e-05,-0.00012207031
2019-07-01T20:16:57.158Z,0.010889485,-0.012216014,0.9938529,0.23880005,-0.21368408,9.801483,2.8396606,-16.113281,-38.83972,0.23849984,-0.21473825,9.801397,0.0012355447,0.0015658289,-0.0005083084,-9.1552734e-05,3.0517578e-05,0.00018310547
2019-07-01T20:16:57.358Z,0.010897449,-0.012200995,0.9938506,0.2368927,-0.21536255,9.804825,2.861023,-15.753174,-38.163757,0.23862761,-0.21442313,9.801401,0.0001487732,0.0010044426,-0.00017261505,-0.00021362305,3.0517578e-05,4.5776367e-05
2019-07-01T20:16:57.564Z,0.010857917,-0.012232132,0.99386144,0.23760986,-0.2182312,9.8033905,3.453064,-16.72821,-38.989258,0.2379027,-0.21513845,9.801403,-0.001299426,-0.0011291802,0.0017995834,-9.1552734e-05,3.0517578e-05,-0.00012207031
2019-07-01T20:16:57.765Z,0.010850541,-0.0122729065,0.993864,0.23880005,-0.21751404,9.802673,2.6626587,-16.564941,-38.243103,0.23784038,-0.21595556,9.801387,-2.7254224e-05,-0.0015213788,-0.0003976822,-9.1552734e-05,-3.0517578e-05,-0.00018310547
2019-07-01T20:16:57.969Z,0.0108713135,-0.012319513,0.99385935,0.2359314,-0.21511841,9.800522,2.6000977,-16.207886,-38.16681,0.23835276,-0.21681088,9.801355,0.00089524686,-0.000895381,-9.536743e-05,-9.1552734e-05,0.00015258789,-0.00024414062
2019-07-01T20:16:58.172Z,0.010809026,-0.012288126,0.9938751,0.23808289,-0.21655273,9.800995,2.7832031,-15.684509,-38.069153,0.23704241,-0.21636482,9.801396,-0.0020933896,0.0010215044,-0.001502037,3.0517578e-05,9.1552734e-05,0.0
2019-07-01T20:16:58.371Z,0.010836354,-0.01228914,0.993868,0.23976135,-0.2141571,9.8022,2.6000977,-16.130066,-38.68103,0.23759072,-0.21631116,9.801385,0.0016843975,1.4588237e-05,-0.0006914139,3.0517578e-05,9.1552734e-05,0.00012207031
2019-07-01T20:16:58.575Z,0.010858361,-0.012253525,0.9938617,0.23760986,-0.21511841,9.801483,2.949524,-15.679932,-37.319946,0.23795621,-0.21555553,9.801393,0.0010784566,0.001407072,-0.00030231476,-3.0517578e-05,3.0517578e-05,6.1035156e-05
2019-07-01T20:16:58.779Z,0.010843399,-0.01224581,0.99386543,0.23617554,-0.21511841,9.801956,2.39563,-15.270996,-38.497925,0.23764113,-0.21544498,9.801403,-0.0005130321,0.0005786568,-3.71933e-05,-0.00021362305,0.00015258789,-0.00012207031
2019-07-01T20:16:59.039Z,0.01082875,-0.012247568,0.9938693,0.23736572,-0.21511841,9.800522,3.2196045,-16.674805,-38.28888,0.23735204,-0.21551876,9.801408,-0.00046940148,0.00065362453,0.00013256073,-0.00015258789,9.1552734e-05,0.00012207031
2019-07-01T20:16:59.182Z,0.010834327,-0.0122655565,0.9938681,0.2368927,-0.21534729,9.8022,2.3849487,-15.489197,-38.46588,0.23750106,-0.21585551,9.801398,0.0015295893,-0.0009137988,0.0014333725,-0.00015258789,9.1552734e-05,6.1035156e-05
2019-07-01T20:16:59.377Z,0.010823055,-0.012257397,0.9938709,0.22802734,-0.24742126,9.792145,2.6306152,-15.39917,-38.685608,0.23725875,-0.21572627,9.801406,-0.00013326108,0.0006181896,-0.00016307831,0.00015258789,0.000289917,-0.00032043457
2019-07-01T20:16:59.588Z,0.010646611,-0.011750919,0.9939085,0.2644043,-0.15338135,9.824219,3.540039,-14.825439,-38.983154,0.23267904,-0.20629671,9.801719,-0.010090396,0.018885747,-0.004883766,-3.0517578e-05,-0.00045776367,0.00012207031
2019-07-01T20:16:59.796Z,0.011180007,-0.0123215495,0.99377847,0.20578003,-0.2581787,9.777786,3.0914307,-16.183472,-37.05139,0.24452612,-0.21601483,9.801221,0.027199596,-0.01960434,0.011082649,-0.00021362305,0.001083374,0.0005950928
2019-07-01T20:16:59.998Z,0.010516985,-0.012684752,0.9939572,0.26608276,-0.2084198,9.8194275,2.8564453,-15.975952,-37.452698,0.23202606,-0.22490089,9.801325,-0.026636407,-0.016847938,-0.014294624,-3.0517578e-05,-0.0010070801,-0.00062561035
2019-07-01T20:17:00.195Z,0.01119138,-0.012012494,0.99377024,0.2163086,-0.19429016,9.792389,2.696228,-15.913391,-37.583923,0.24410374,-0.20994091,9.801364,0.02256763,0.030348718,0.017449379,-0.00015258789,-3.0517578e-05,0.00016784668
2019-07-01T20:17:00.400Z,0.010594134,-0.012426274,0.9939332,0.26057434,-0.2457428,9.812729,2.9678345,-15.2404785,-37.382507,0.2330339,-0.21964148,9.801419,-0.021692425,-0.018979684,-0.0146894455,-3.0517578e-05,0.00021362305,0.0
2019-07-01T20:17:00.599Z,0.011228507,-0.012447876,0.9937678,0.21966553,-0.19668579,9.796936,2.0065308,-15.309143,-36.75232,0.24576075,-0.21835278,9.801138,0.024748996,0.002150908,0.01349926,0.00021362305,-0.00021362305,-0.00012207031
2019-07-01T20:17:00.793Z,0.010518958,-0.012058099,0.9939468,0.24885559,-0.22109985,9.805313,1.9485474,-16.471863,-37.74414,0.23076795,-0.21264334,9.801628,-0.028066218,0.010890365,-0.011604309,-3.0517578e-05,0.00033569336,0.00030517578
2019-07-01T20:17:01.016Z,0.011156763,-0.012542919,0.99378824,0.23640442,-0.21990967,9.800049,1.6357422,-16.123962,-38.339233,0.24452606,-0.22040652,9.801124,0.025282815,-0.01543127,0.01031208,-9.1552734e-05,-0.00045776367,-0.00032043457
2019-07-01T20:17:01.215Z,0.01064233,-0.012082535,0.99391514,0.23545837,-0.20028687,9.804108,1.9943237,-15.525818,-37.174988,0.23328352,-0.21279195,9.801565,-0.02028425,0.015832499,-0.010212898,-3.0517578e-05,0.00045776367,-0.0001373291
2019-07-01T20:17:01.416Z,0.011076051,-0.012256068,0.9938047,0.24072266,-0.2270813,9.804596,1.612854,-16.558838,-38.88092,0.24231151,-0.21501695,9.801298,0.015796944,-0.0045726895,0.009161949,-0.00021362305,-0.00039672852,-0.00024414062
2019-07-01T20:17:01.618Z,0.010691817,-0.012257741,0.9939051,0.2337799,-0.20864868,9.8029175,2.3620605,-14.407349,-37.41455,0.23463668,-0.2160852,9.801461,-0.013065323,-0.0011833161,-0.0065107346,-9.1552734e-05,0.00045776367,-0.00061035156
2019-07-01T20:17:01.817Z,0.010981687,-0.012155661,0.99382776,0.24191284,-0.21559143,9.804825,3.0273438,-15.672302,-37.69989,0.24021585,-0.21330927,9.801387,0.00951232,0.0052123964,0.007004738,9.1552734e-05,-0.00033569336,-0.0002593994
2019-07-01T20:17:02.021Z,0.010714645,-0.012279765,0.9938995,0.23257446,-0.21966553,9.799561,1.8600464,-16.395569,-38.856506,0.2351387,-0.21645464,9.80144,-0.007603988,-0.00630562,-0.005566597,-9.1552734e-05,0.000579834,-0.00012207031
2019-07-01T20:17:02.224Z,0.010921823,-0.012211925,0.9938444,0.24359131,-0.20960999,9.807465,2.3147583,-15.50293,-37.332153,0.23913744,-0.21457107,9.801385,0.006074965,0.004051253,0.0030107498,-0.00015258789,-0.00039672852,-0.00032043457
2019-07-01T20:17:02.429Z,0.010764694,-0.01223796,0.9938858,0.22923279,-0.22157288,9.796692,2.973938,-16.838074,-38.087463,0.23605193,-0.21550302,9.801439,-0.0039783865,-0.001253128,-0.0023202896,-9.1552734e-05,0.00035095215,0.00022888184
2019-07-01T20:17:02.630Z,0.010883318,-0.012309891,0.9938561,0.2467041,-0.2131958,9.809143,2.7038574,-15.615845,-38.279724,0.23857263,-0.21659042,9.801355,0.0025811046,-0.0018315762,0.0010290146,0.00021362305,-0.00033569336,-0.00019836426
2019-07-01T20:17:02.842Z,0.010779623,-0.012210912,0.9938815,0.22564697,-0.21224976,9.7986145,3.1143188,-15.592957,-37.460327,0.23629394,-0.21493411,9.801447,-0.0023026913,0.0029583126,-0.00060653687,-3.0517578e-05,0.00047302246,6.1035156e-05
2019-07-01T20:17:03.041Z,0.0108194295,-0.012232898,0.99387145,0.24909973,-0.21702576,9.808655,2.7496338,-16.337585,-38.72986,0.23713522,-0.215257,9.801419,0.0001847446,-0.0007811636,0.0010414124,-9.1552734e-05,-0.0002746582,-6.1035156e-05
2019-07-01T20:17:03.242Z,0.010819742,-0.012202709,0.9938709,0.22755432,-0.21368408,9.795502,2.8747559,-15.385437,-38.31482,0.2370785,-0.2146659,9.801434,0.0016674697,0.0015190691,0.0006828308,3.0517578e-05,0.00021362305,4.5776367e-05
2019-07-01T20:17:03.443Z,0.010839236,-0.012236585,0.9938664,0.24908447,-0.2172699,9.80722,3.2104492,-15.223694,-37.615967,0.2375387,-0.21527581,9.801409,-0.000907585,-0.0012611151,-0.0030412674,-0.00015258789,-0.00038146973,-7.6293945e-05
2019-07-01T20:17:03.650Z,0.0108871795,-0.012257108,0.99385417,0.22851562,-0.2131958,9.799332,3.5644531,-16.29181,-37.69684,0.2385396,-0.21554798,9.801379,0.0030888468,-0.00025121868,0.001791954,-3.0517578e-05,0.00033569336,-0.00012207031
2019-07-01T20:17:03.851Z,0.010830209,-0.012211018,0.9938683,0.24645996,-0.21536255,9.808426,3.4225464,-15.788269,-37.96692,0.23730497,-0.21480021,9.801425,-0.0030821115,0.0018605143,-0.00071048737,-0.00021362305,-0.0002746582,-0.00024414062
2019-07-01T20:17:04.053Z,0.010897861,-0.012257797,0.9938514,0.23187256,-0.21702576,9.796463,2.709961,-15.467834,-38.40027,0.23875447,-0.21553263,9.8013735,0.003101647,-0.0007247478,0.0020837784,-0.00015258789,0.00010681152,-0.00018310547
2019-07-01T20:17:04.257Z,0.0108451815,-0.012271275,0.9938654,0.24621582,-0.21536255,9.805542,1.8890381,-15.890503,-37.998962,0.23772986,-0.21593808,9.80139,-0.0029955655,-0.00013534725,-0.0040216446,-3.0517578e-05,-0.00039672852,-1.5258789e-05
2019-07-01T20:17:04.457Z,0.0109570045,-0.01228575,0.9938364,0.23066711,-0.21534729,9.800522,3.4240723,-15.713501,-38.328552,0.2399948,-0.21591958,9.801335,0.0045256913,0.000112921,0.0019483566,-3.0517578e-05,0.00016784668,6.1035156e-05
2019-07-01T20:17:04.659Z,0.010833823,-0.0122522395,0.99386805,0.24502563,-0.21392822,9.805786,2.6260376,-15.699768,-37.687683,0.23746319,-0.21559647,9.801404,-0.0051383674,0.0004969239,-0.00077724457,-0.00019836426,0.00016784668,7.6293945e-05
2019-07-01T20:17:04.862Z,0.010916744,-0.012238682,0.9938461,0.23306274,-0.2172699,9.79837,2.368164,-16.157532,-37.091064,0.23909189,-0.21510795,9.801374,0.004204884,0.0012250841,0.0023450851,0.00016784668,9.1552734e-05,7.6293945e-05
2019-07-01T20:17:05.069Z,0.010831372,-0.0122784935,0.9938691,0.24287415,-0.2172699,9.806503,1.4343262,-15.1901245,-38.441467,0.23746896,-0.21611638,9.801393,-0.0036919415,-0.0023410618,-0.0038585663,-1.5258789e-05,-7.6293945e-05,1.5258789e-05
2019-07-01T20:17:05.271Z,0.010918542,-0.012292692,0.99384654,0.23162842,-0.21559143,9.800293,2.708435,-15.6188965,-37.75177,0.23924063,-0.21615914,9.801348,0.004057914,0.0001386106,0.003651619,-1.5258789e-05,0.00010681152,0.0001373291
2019-07-01T20:17:05.474Z,0.010774917,-0.012273096,0.9938837,0.24215698,-0.21917725,9.804108,2.4017334,-15.19928,-38.03253,0.23632942,-0.21616258,9.801418,-0.00568603,-0.00012429059,-0.0018815994,0.00010681152,4.5776367e-05,0.0001373291
2019-07-01T20:17:05.707Z,0.010830043,-0.012290263,0.99386966,0.24263,-0.2172699,9.80603,3.1433105,-14.706421,-38.716125,0.23746692,-0.21635006,9.801387,-0.0022693723,0.0017351508,-0.0013103485,-1.5258789e-05,-1.5258789e-05,0.00018310547
2019-07-01T20:17:05.894Z,0.010967355,-0.012316417,0.9938342,0.23617554,-0.21678162,9.802444,3.0319214,-15.597534,-37.760925,0.24026576,-0.2164912,9.801315,0.0049379617,-0.00024464726,0.0026426315,-7.6293945e-05,-0.00019836426,0.00012207031
2019-07-01T20:17:06.136Z,0.010849925,-0.012302085,0.99386466,0.24047852,-0.2163086,9.804352,2.2659302,-16.296387,-39.15558,0.23788895,-0.21652773,9.8013735,-0.004615605,-0.0002233535,-0.0012722015,0.00022888184,0.00010681152,0.0001373291
2019-07-01T20:17:06.331Z,0.01094059,-0.012302439,0.99384093,0.2359314,-0.21559143,9.801956,2.005005,-15.158081,-37.779236,0.23970163,-0.21629019,9.801333,0.00286901,3.516674e-05,0.0020246506,-7.6293945e-05,-0.00019836426,0.0002593994
2019-07-01T20:17:06.532Z,0.010837785,-0.0122783,0.9938674,0.23760986,-0.2163086,9.802444,2.5299072,-15.689087,-39.796448,0.2375967,-0.21609534,9.80139,-0.0038423538,0.000771299,-0.0026388168,-1.5258789e-05,0.00022888184,0.0002593994
2019-07-01T20:17:06.730Z,0.010896083,-0.012290604,0.9938524,0.23808289,-0.21870422,9.800766,2.3330688,-15.065002,-37.31842,0.23878747,-0.21617891,9.801359,0.0023700148,-0.0008122772,0.00095272064,0.00016784668,-0.00015258789,0.0001373291
2019-07-01T20:17:06.936Z,0.010826583,-0.012317151,0.993871,0.24023438,-0.21487427,9.805786,3.668213,-15.699768,-38.18512,0.23745385,-0.21688513,9.801376,-0.0025076866,-0.0010800809,-0.001124382,4.5776367e-05,4.5776367e-05,0.00018310547
2019-07-01T20:17:07.143Z,0.010930254,-0.012292959,0.9938435,0.23760986,-0.21798706,9.801956,2.5161743,-16.288757,-37.879944,0.23947528,-0.21613275,9.801343,0.003578782,0.00082966685,0.0019655228,4.5776367e-05,-0.0001373291,0.00019836426
2019-07-01T20:17:07.351Z,0.0108276,-0.012307754,0.99387056,0.23449707,-0.21511841,9.80101,2.8747559,-15.461731,-37.95166,0.23745455,-0.21669863,9.801379,-0.0039474666,-0.0010181218,-0.0015687943,-7.6293945e-05,3.0517578e-05,0.0002593994
2019-07-01T20:17:07.552Z,0.0108372,-0.01228309,0.99386764,0.237854,-0.21487427,9.801727,2.5238037,-15.913391,-39.01062,0.23759499,-0.21619056,9.801387,-8.627772e-06,0.0013376623,-0.0004005432,-1.5258789e-05,-7.6293945e-05,0.00012207031
2019-07-01T20:17:07.753Z,0.010807369,-0.012250279,0.9938749,0.23832703,-0.2141571,9.800049,3.0975342,-15.884399,-37.820435,0.23693042,-0.21562926,9.801415,-0.0010032952,0.00075890124,-0.0015439987,4.5776367e-05,0.00015258789,0.00024414062
2019-07-01T20:17:07.958Z,0.010871767,-0.012247259,0.99385804,0.24119568,-0.21774292,9.801956,2.279663,-16.156006,-38.142395,0.23821104,-0.21539691,9.80139,0.0022538751,0.0005349368,0.0007238388,4.5776367e-05,-0.00015258789,0.00030517578
2019-07-01T20:17:08.158Z,0.010876795,-0.012273468,0.99385715,0.23570251,-0.2131958,9.802429,3.3584595,-15.657043,-36.802673,0.23836623,-0.21589583,9.801375,0.00043144822,-0.0006547719,-0.0009508133,-7.6293945e-05,3.0517578e-05,0.0004272461
2019-07-01T20:17:08.361Z,0.010882124,-0.012249474,0.99385536,0.23832703,-0.21511841,9.804108,3.340149,-15.640259,-39.14032,0.23842262,-0.21541232,9.801384,-0.00011520088,0.001028806,0.0014438629,-1.5258789e-05,-0.0001373291,0.0002593994
2019-07-01T20:17:08.563Z,0.0108319875,-0.01221824,0.99386793,0.23640442,-0.21391296,9.800049,3.2592773,-16.1026,-36.587524,0.23735556,-0.2149366,9.80142,-0.0024041384,0.0010405332,8.583069e-06,-1.5258789e-05,-0.0001373291,0.0002593994
2019-07-01T20:17:08.767Z,0.010884714,-0.012213378,0.9938541,0.23976135,-0.21583557,9.804108,2.6901245,-16.290283,-36.22589,0.23839903,-0.2146996,9.801401,0.0008701831,0.0003155619,1.4305115e-05,0.00022888184,-0.00019836426,7.6293945e-05
2019-07-01T20:17:08.968Z,0.010863334,-0.012230928,0.99385995,0.23449707,-0.21559143,9.799332,1.84021,-16.908264,-38.658142,0.23800845,-0.21510033,9.801402,-0.0008908808,-0.0014350116,5.722046e-06,-1.5258789e-05,-3.0517578e-05,0.0002593994
2019-07-01T20:17:09.172Z,0.010850158,-0.012227211,0.99386334,0.24095154,-0.2163086,9.801956,2.0370483,-16.168213,-38.438416,0.23773739,-0.21506312,9.801409,-0.0010904223,0.00019030273,-0.0014257431,-7.6293945e-05,-1.5258789e-05,0.00019836426
2019-07-01T20:17:09.372Z,0.010866029,-0.012251956,0.9938596,0.2349701,-0.21534729,9.800995,3.1356812,-15.083313,-37.43286,0.23810618,-0.21550421,9.80139,0.0014068931,-0.00104478,0.00015163422,0.00010681152,-3.0517578e-05,0.0002593994
2019-07-01T20:17:09.576Z,0.010853569,-0.012257215,0.993863,0.23857117,-0.21463013,9.803635,3.3676147,-15.286255,-37.634277,0.23786815,-0.21564057,9.801393,-0.0009787232,5.2124262e-05,-4.4822693e-05,-1.5258789e-05,-3.0517578e-05,0.0004272461
2019-07-01T20:17:09.777Z,0.010826711,-0.012217107,0.9938693,0.23402405,-0.21536255,9.801956,2.557373,-15.486145,-37.339783,0.23724778,-0.21492869,9.801424,-0.0008419305,0.0012571514,0.00092220306,4.5776367e-05,9.1552734e-05,0.0002593994
2019-07-01T20:17:09.979Z,0.01079563,-0.012229578,0.99387765,0.24072266,-0.21487427,9.804108,2.9647827,-15.159607,-38.34839,0.2366527,-0.21525608,9.801432,-0.0009827614,-0.00080788136,0.0002965927,-1.5258789e-05,-3.0517578e-05,0.00019836426
2019-07-01T20:17:10.185Z,0.010831207,-0.012240657,0.9938685,0.23568726,-0.21655273,9.800766,2.5222778,-16.139221,-38.00049,0.23738673,-0.21537702,9.80141,0.0016275793,-0.0001873076,0.0009908676,0.00010681152,-3.0517578e-05,0.00019836426
2019-07-01T20:17:10.388Z,0.010844368,-0.012235368,0.993865,0.23760986,-0.21487427,9.800522,3.5598755,-14.620972,-37.12921,0.2380686,-0.214984,9.801402,0.0014404505,0.0005901158,-0.0007276535,0.00010681152,-3.0517578e-05,1.5258789e-05
2019-07-01T20:17:10.603Z,0.010872306,-0.012225537,0.99385756,0.23951721,-0.21368408,9.8033905,2.6123047,-15.686035,-39.49585,0.23817648,-0.21497074,9.8014,-0.0005687475,9.839237e-05,-0.00047779083,-1.5258789e-05,-7.6293945e-05,-4.5776367e-05
2019-07-01T20:17:10.800Z,0.0109043615,-0.012207743,0.99384886,0.23760986,-0.21774292,9.799805,3.5995483,-15.411377,-38.124084,0.23877981,-0.2145364,9.801394,0.0009560436,0.00064633787,0.0019102097,-7.6293945e-05,-0.0001373291,7.6293945e-05
2019-07-01T20:17:11.055Z,0.010892826,-0.0122588,0.99385273,0.23951721,-0.21343994,9.804108,2.5863647,-16.499329,-38.227844,0.23865595,-0.21556582,9.801375,-0.00057558715,-0.0019459575,-0.001917839,-1.5258789e-05,9.1552734e-05,0.0001373291
2019-07-01T20:17:11.251Z,0.010891875,-0.012226901,0.99385244,0.2349701,-0.21606445,9.801956,1.9226074,-15.313721,-36.976624,0.23857033,-0.21494466,9.801391,0.00021392107,0.0015189648,0.001121521,4.5776367e-05,-7.6293945e-05,0.0001373291
2019-07-01T20:17:11.455Z,0.010830839,-0.012247064,0.9938687,0.23808289,-0.2163086,9.800278,1.9165039,-15.306091,-38.108826,0.23739275,-0.2155033,9.801408,-0.002441287,-0.0015055388,0.00026798248,-1.5258789e-05,-7.6293945e-05,0.0004272461
2019-07-01T20:17:11.654Z,0.01083866,-0.012259174,0.99386686,0.23736572,-0.21487427,9.802673,3.9871216,-15.751648,-37.982178,0.23757434,-0.21571906,9.801399,0.0002645105,-0.00010274351,-0.0002965927,-1.5258789e-05,9.1552734e-05,-0.00010681152
2019-07-01T20:17:11.863Z,0.010844368,-0.0122301215,0.9938649,0.23783875,-0.21296692,9.803162,2.684021,-16.053772,-38.368225,0.23762777,-0.21513565,9.801411,0.00021380186,0.0009898096,-0.00021076202,-7.6293945e-05,-7.6293945e-05,0.00030517578
2019-07-01T20:17:12.086Z,0.010860416,-0.012220258,0.99386054,0.23832703,-0.21534729,9.801727,1.9210815,-15.312195,-37.20398,0.23792787,-0.21489955,9.801408,-0.00011141598,0.0010067225,0.0008363724,-1.5258789e-05,-0.0002593994,0.00030517578
2019-07-01T20:17:12.351Z,0.010887906,-0.012220902,0.9938534,0.23951721,-0.21440125,9.803635,2.5665283,-15.420532,-36.42273,0.2384785,-0.21483809,9.801395,0.0003117472,0.0002167821,-0.0010328293,0.00016784668,-3.0517578e-05,-0.00016784668
2019-07-01T20:17:12.556Z,0.0109049175,-0.012195286,0.9938485,0.23760986,-0.21392822,9.801956,3.0853271,-16.099548,-38.39264,0.23876493,-0.21429136,9.801401,0.0004929006,0.00040577352,0.001698494,-7.6293945e-05,3.0517578e-05,0.0002593994
2019-07-01T20:17:12.761Z,0.0108692795,-0.0121772,0.99385756,0.23664856,-0.2141571,9.803635,4.0542603,-15.733337,-39.718628,0.23801507,-0.21403378,9.801424,-0.0009024888,0.0008445382,-0.00046730042,-7.6293945e-05,-7.6293945e-05,7.6293945e-05
2019-07-01T20:17:12.873Z,0.010843717,-0.012204803,0.99386466,0.23641968,-0.21463013,9.8033905,1.940918,-16.314697,-39.448547,0.23756194,-0.21464235,9.801423,-0.0011856556,-0.0009236634,0.000333786,-1.5258789e-05,9.1552734e-05,0.0001373291
2019-07-01T20:17:13.078Z,0.0108266,-0.012194451,0.99386895,0.237854,-0.21536255,9.803162,3.2791138,-15.283203,-38.612366,0.23719831,-0.21448599,9.8014345,-0.0005880743,0.0001193881,0.0008611679,-1.5258789e-05,3.0517578e-05,7.6293945e-05
2019-07-01T20:17:13.284Z,0.010843399,-0.012219785,0.993865,0.23857117,-0.21487427,9.802429,3.4240723,-15.711975,-38.479614,0.23758684,-0.21493612,9.801415,0.0009327382,-0.00085276365,0.0010519028,-1.5258789e-05,9.1552734e-05,0.0001373291
2019-07-01T20:17:13.488Z,0.010829505,-0.012222637,0.99386865,0.237854,-0.2163086,9.804825,3.213501,-14.997864,-38.475037,0.23731513,-0.21502927,9.801419,2.1472573e-05,-6.273389e-05,-0.0018568039,-1.5258789e-05,-7.6293945e-05,0.00012207031
2019-07-01T20:17:13.693Z,0.01084643,-0.012250308,0.9938647,0.24047852,-0.2163086,9.804596,2.557373,-15.409851,-37.779236,0.23771109,-0.21552476,9.801399,0.00031666458,-0.000977993,0.0021133423,-1.5258789e-05,9.1552734e-05,0.0002593994
2019-07-01T20:17:13.882Z,0.010890662,-0.012274404,0.99385357,0.24095154,-0.21798706,9.799805,2.4856567,-15.275574,-37.21924,0.23864529,-0.21587676,9.801369,0.0017775446,-0.00038143992,-2.193451e-05,4.5776367e-05,-0.00019836426,0.0001373291
2019-07-01T20:17:14.084Z,0.010944907,-0.012286618,0.99383956,0.23976135,-0.21343994,9.805542,1.9393921,-16.615295,-38.07373,0.23975484,-0.21596922,9.80134,0.0016518682,-0.0007825792,-0.0019273758,0.00010681152,-7.6293945e-05,0.0001373291
2019-07-01T20:17:14.289Z,0.01094049,-0.0122552505,0.9938402,0.23928833,-0.2163086,9.8029175,1.7379761,-15.757751,-37.66327,0.23960105,-0.21536782,9.801357,-0.00013391674,0.0012557209,0.001420021,-7.6293945e-05,-3.0517578e-05,7.6293945e-05
2019-07-01T20:17:14.492Z,0.010939362,-0.012259429,0.9938406,0.23976135,-0.21536255,9.799561,3.5446167,-16.656494,-37.997437,0.23958723,-0.21545257,9.801355,-0.00034113228,-0.00010091066,-0.0006380081,0.00010681152,-7.6293945e-05,0.0001373291
2019-07-01T20:17:14.697Z,0.010946205,-0.012272939,0.993839,0.23808289,-0.21751404,9.800293,2.6763916,-14.607239,-37.31842,0.23975219,-0.21569824,9.801346,-4.5597553e-06,-0.0005979985,-0.0023469925,-7.6293945e-05,-7.6293945e-05,0.00032043457
2019-07-01T20:17:14.896Z,0.010923006,-0.012286068,0.9938453,0.23808289,-0.21607971,9.802673,2.836609,-16.264343,-38.267517,0.23931602,-0.21601759,9.80135,-0.0009893775,-0.00029064715,-0.0010728836,-0.0001373291,3.0517578e-05,0.00018310547
2019-07-01T20:17:15.097Z,0.010901445,-0.012309203,0.9938513,0.23832703,-0.21607971,9.799561,2.9754639,-15.168762,-37.217712,0.23893344,-0.21652809,9.801348,-0.00085763633,-0.0004912466,0.0005617142,-1.5258789e-05,-3.0517578e-05,0.0002593994
2019-07-01T20:17:15.299Z,0.010899455,-0.012267498,0.9938511,0.237854,-0.2141571,9.801483,2.5558472,-15.486145,-37.339783,0.2388066,-0.21571803,9.801369,-2.8550625e-05,0.0008636266,0.0013637543,-1.5258789e-05,-7.6293945e-05,0.00036621094
2019-07-01T20:17:15.504Z,0.010907406,-0.012243954,0.9938487,0.24047852,-0.21559143,9.8029175,2.8686523,-15.608215,-37.90741,0.23891634,-0.21523626,9.801377,0.00011640787,0.0008453429,-0.00085163116,0.00010681152,3.0517578e-05,0.00048828125
2019-07-01T20:17:15.704Z,0.010922177,-0.012245543,0.9938448,0.23713684,-0.21583557,9.803879,3.4164429,-15.856934,-38.508606,0.23921476,-0.21522744,9.801369,0.00053210557,0.00012208521,0.0002374649,-1.5258789e-05,-3.0517578e-05,0.0005493164
2019-07-01T20:17:15.912Z,0.010882174,-0.012254727,0.9938554,0.23832703,-0.21343994,9.8022,3.340149,-15.792847,-38.26599,0.23843458,-0.2155149,9.801382,-0.0015831143,-0.00028340518,0.0022363663,-7.6293945e-05,-3.0517578e-05,0.0004272461
2019-07-01T20:17:16.109Z,0.010886463,-0.012214005,0.9938536,0.2368927,-0.21678162,9.803162,2.6931763,-15.910339,-38.035583,0.2384353,-0.21470712,9.8014,-0.00012634695,0.0017564744,-0.0018644333,0.00010681152,-3.0517578e-05,0.0001373291
2019-07-01T20:17:16.317Z,0.010868914,-0.012243188,0.9938587,0.24119568,-0.21702576,9.800766,2.4795532,-15.345764,-37.609863,0.23814555,-0.21532501,9.8013935,-0.00081789494,-0.0016663074,0.0016355515,-1.5258789e-05,-7.6293945e-05,0.0001373291
2019-07-01T20:17:16.520Z,0.010907853,-0.012303013,0.9938495,0.23808289,-0.21798706,9.7986145,2.1392822,-15.577698,-38.702393,0.23904859,-0.21638979,9.801348,0.0018814504,-0.002050832,-0.0014638901,4.5776367e-05,-7.6293945e-05,1.5258789e-05
2019-07-01T20:17:16.719Z,0.010900051,-0.012305661,0.9938516,0.2400055,-0.21440125,9.804596,1.876831,-16.107178,-38.420105,0.23889822,-0.21646261,9.801351,-0.0010633618,-0.00054581463,-0.00017929077,-1.5258789e-05,-7.6293945e-05,7.6293945e-05
2019-07-01T20:17:16.924Z,0.010930533,-0.012271891,0.9938431,0.23760986,-0.21751404,9.8033905,2.961731,-15.234375,-38.212585,0.2394368,-0.21572006,9.8013525,0.0007837862,0.0013312399,-0.0004339218,0.00010681152,-3.0517578e-05,0.0001373291
2019-07-01T20:17:17.130Z,0.010884211,-0.012289037,0.9938555,0.23808289,-0.21679688,9.802444,2.3513794,-16.368103,-38.26599,0.23854694,-0.21618026,9.801365,-0.0016621798,-0.0008382797,-0.0004529953,-7.6293945e-05,9.1552734e-05,0.00030517578
2019-07-01T20:17:17.330Z,0.010874592,-0.012310546,0.99385834,0.23880005,-0.21559143,9.800522,2.3651123,-16.078186,-37.90741,0.23839955,-0.2166267,9.801357,0.00036674738,-0.00085666776,0.0020942688,0.00016784668,9.1552734e-05,1.5258789e-05
2019-07-01T20:17:17.528Z,0.010874348,-0.0122861015,0.993858,0.23904419,-0.21606445,9.805313,4.0039062,-15.234375,-38.9328,0.2383437,-0.21614945,9.801371,0.00020992756,0.0005739182,-0.0013256073,-0.0001373291,-0.00019836426,7.6293945e-05
2019-07-01T20:17:17.736Z,0.010917111,-0.012281982,0.9938468,0.23664856,-0.21798706,9.8033905,2.3880005,-15.565491,-38.180542,0.2391897,-0.2159536,9.801354,0.0005258918,0.00064761937,0.0023126602,4.5776367e-05,-0.0001373291,0.0002593994
2019-07-01T20:17:17.939Z,0.010862806,-0.012298505,0.9938612,0.2400055,-0.21391296,9.799805,3.9459229,-14.956665,-37.36267,0.23813888,-0.21642303,9.801369,-0.0022345632,-0.000822261,-0.0014886856,-0.0001373291,-9.1552734e-05,-4.5776367e-05
2019-07-01T20:17:18.140Z,0.010919942,-0.012289828,0.9938462,0.2400055,-0.21583557,9.801727,2.31781,-15.202332,-38.55591,0.23926263,-0.21609935,9.801349,0.0012102276,0.0009860545,-0.0017757416,0.00016784668,-3.0517578e-05,0.00030517578
2019-07-01T20:17:18.344Z,0.010918966,-0.012269161,0.99384606,0.23736572,-0.21606445,9.803879,2.7557373,-14.675903,-36.88202,0.23919994,-0.21569787,9.801358,0.00028923154,0.0006047636,0.0018434525,-0.0001373291,3.0517578e-05,0.0002593994
2019-07-01T20:17:18.545Z,0.010879893,-0.01228751,0.9938566,0.24047852,-0.2172699,9.802429,2.760315,-14.677429,-36.428833,0.23845746,-0.21616204,9.801368,-0.0011170655,-0.0008407682,-0.000207901,4.5776367e-05,9.1552734e-05,0.0001373291
2019-07-01T20:17:18.749Z,0.01090111,-0.01230578,0.99385136,0.23904419,-0.21702576,9.802673,1.600647,-15.184021,-37.841797,0.2389196,-0.21646206,9.801349,0.001300022,-0.0005364865,0.00033664703,-7.6293945e-05,9.1552734e-05,7.6293945e-05
2019-07-01T20:17:18.949Z,0.010922693,-0.012318733,0.9938459,0.23928833,-0.21511841,9.801239,3.363037,-15.357971,-37.649536,0.23937802,-0.21665712,9.801334,0.0008212477,-9.2729926e-05,0.0003900528,-7.6293945e-05,-0.0001373291,0.00030517578
2019-07-01T20:17:19.153Z,0.010904339,-0.012308134,0.9938505,0.23904419,-0.21487427,9.802444,2.4795532,-15.344238,-37.835693,0.23898906,-0.21649939,9.801347,-0.0009187013,0.0006751567,-0.0018119812,4.5776367e-05,-3.0517578e-05,0.00030517578
2019-07-01T20:17:19.359Z,0.0109125385,-0.012274059,0.99384785,0.237854,-0.21559143,9.8033905,3.2165527,-15.075684,-37.73651,0.23908174,-0.215811,9.801359,-6.2167645e-05,0.0012031049,0.0010213852,0.00010681152,3.0517578e-05,0.00019836426
2019-07-01T20:17:19.561Z,0.010894428,-0.012264951,0.99385244,0.23760986,-0.2163086,9.802673,2.4841309,-15.045166,-38.606262,0.2387008,-0.21568178,9.801372,-0.00039683282,-0.00013296306,-0.000118255615,-0.0001373291,0.00015258789,-4.5776367e-05
2019-07-01T20:17:19.764Z,0.0108872205,-0.012268208,0.99385434,0.23857117,-0.2189331,9.801239,3.2318115,-14.480591,-39.126587,0.2385636,-0.21576488,9.8013735,1.2755394e-05,0.00016877055,-0.0023174286,-1.5258789e-05,-3.0517578e-05,1.5258789e-05
2019-07-01T20:17:19.963Z,0.010859115,-0.01232742,0.9938627,0.23760986,-0.21655273,9.799805,2.809143,-15.174866,-37.590027,0.23812547,-0.21699835,9.801357,-0.0007555336,-0.0019385964,5.531311e-05,0.00010681152,-7.6293945e-05,0.00030517578
2019-07-01T20:17:20.170Z,0.010865417,-0.012320896,0.9938609,0.23928833,-0.2172699,9.80101,2.7877808,-14.019775,-36.52191,0.23823781,-0.21685381,9.801357,-0.00041884184,-0.00038419664,0.0032320023,-7.6293945e-05,-3.0517578e-05,0.0001373291
2019-07-01T20:17:20.372Z,0.010867466,-0.01233349,0.9938606,0.23904419,-0.21655273,9.8022,3.1951904,-15.361023,-38.700867,0.23830505,-0.21709454,9.801351,0.0004723966,-0.00015477836,-0.0010404587,-1.5258789e-05,3.0517578e-05,0.00030517578
2019-07-01T20:17:20.575Z,0.010888897,-0.012305273,0.9938545,0.23832703,-0.21774292,9.804108,3.7719727,-15.182495,-38.160706,0.23867446,-0.21648507,9.801354,0.0006134063,0.0011229366,-0.0018129349,4.5776367e-05,9.1552734e-05,0.00036621094
2019-07-01T20:17:20.778Z,0.010880046,-0.012342603,0.99385744,0.23808289,-0.21463013,9.803635,2.6275635,-15.548706,-38.33618,0.23857546,-0.21723883,9.80134,-0.00026373565,-0.0014514774,0.0011930466,-0.00019836426,-7.6293945e-05,0.00019836426
2019-07-01T20:17:20.979Z,0.0108721685,-0.01230062,0.9938588,0.23760986,-0.2172699,9.799561,3.781128,-15.113831,-37.2406,0.23833042,-0.21643917,9.801364,-0.0002911687,0.0025658458,0.002398491,-1.5258789e-05,9.1552734e-05,0.0002593994
2019-07-01T20:17:21.187Z,0.010849458,-0.012309515,0.9938649,0.23760986,-0.21655273,9.804108,3.1341553,-14.927673,-38.685608,0.2378951,-0.21667425,9.80137,-0.0007918924,-0.00082305074,-0.0020771027,0.00010681152,-0.00019836426,0.0002593994
2019-07-01T20:17:21.378Z,0.010857605,-0.01229758,0.99386257,0.23713684,-0.21511841,9.801727,2.6351929,-15.403748,-38.157654,0.23803306,-0.21641898,9.801373,2.707541e-05,0.00013107061,0.0003643036,-1.5258789e-05,0.00015258789,0.00030517578
2019-07-01T20:17:21.594Z,0.010812843,-0.012250203,0.9938735,0.2400055,-0.21487427,9.8022,2.4108887,-15.283203,-36.460876,0.23703969,-0.21561308,9.8014145,-0.0013695359,0.00051024556,-0.0006380081,4.5776367e-05,-7.6293945e-05,0.00019836426
2019-07-01T20:17:21.780Z,0.010850305,-0.012268011,0.993864,0.2359314,-0.21487427,9.802673,2.848816,-14.299011,-37.564087,0.23782547,-0.2158605,9.80139,0.0014484674,-0.00019088387,-0.00026988983,-1.5258789e-05,3.0517578e-05,-4.5776367e-05
2019-07-01T20:17:21.982Z,0.010823144,-0.012236201,0.99387056,0.23904419,-0.21343994,9.800049,2.0950317,-15.083313,-37.01172,0.23721632,-0.21531162,9.801416,-0.0013041496,0.0011719763,0.00046253204,-7.6293945e-05,-7.6293945e-05,0.00044250488
2019-07-01T20:17:22.202Z,0.010854802,-0.0122017395,0.99386173,0.23521423,-0.21272278,9.8022,3.0548096,-15.0894165,-37.657166,0.23777702,-0.21455258,9.801418,0.0010076761,0.001126498,-0.00032424927,4.5776367e-05,9.1552734e-05,1.5258789e-05
2019-07-01T20:17:22.396Z,0.01081636,-0.012183212,0.99387145,0.23760986,-0.2172699,9.8022,2.4230957,-14.764404,-37.716675,0.23697025,-0.21429378,9.801444,-0.0012682229,0.0010984093,-0.0011711121,-0.0001373291,-7.6293945e-05,0.00036621094
2019-07-01T20:17:22.599Z,0.010817709,-0.012244061,0.9938721,0.23736572,-0.2163086,9.8033905,4.020691,-15.098572,-37.472534,0.23712412,-0.21547988,9.8014145,2.1234155e-05,-0.0017977506,-0.00078487396,-7.6293945e-05,-3.0517578e-05,0.0002593994
2019-07-01T20:17:22.800Z,0.010828348,-0.012259778,0.9938696,0.23760986,-0.21702576,9.799805,3.5690308,-15.991211,-38.845825,0.23736948,-0.21575858,9.801402,0.00046049058,-0.00029928982,0.0026741028,-7.6293945e-05,3.0517578e-05,0.00019836426
2019-07-01T20:17:23.010Z,0.01084343,-0.012284737,0.9938661,0.23880005,-0.21511841,9.802673,3.0441284,-15.231323,-38.064575,0.23772296,-0.21620604,9.801385,0.00058700144,-0.00057531893,-0.0006046295,-1.5258789e-05,3.0517578e-05,0.00019836426
2019-07-01T20:17:23.224Z,0.01084896,-0.012263911,0.9938643,0.23736572,-0.22013855,9.799561,2.5131226,-14.538574,-37.976074,0.23779003,-0.21578395,9.801393,0.00027506053,0.00092583895,7.43866e-05,0.00010681152,-0.0001373291,7.6293945e-05
2019-07-01T20:17:23.523Z,0.010840992,-0.012331007,0.99386746,0.23736572,-0.21846008,9.800522,3.7521362,-15.238953,-40.359497,0.23777072,-0.21711728,9.801363,-0.00015293062,-0.0032726526,-0.0021924973,0.000289917,0.00015258789,7.6293945e-05
2019-07-01T20:17:23.728Z,0.010823853,-0.012332318,0.9938719,0.237854,-0.21511841,9.800766,2.5527954,-15.406799,-38.305664,0.2374309,-0.21718901,9.80137,-0.0002975613,-0.0010389835,0.00092983246,4.5776367e-05,0.00015258789,7.6293945e-05
2019-07-01T20:17:23.840Z,0.010825298,-0.012295112,0.993871,0.23808289,-0.21511841,9.8029175,3.327942,-14.263916,-38.02948,0.2373822,-0.21645766,9.801387,0.00024020672,0.0010989308,-0.0013084412,0.00010681152,-0.0001373291,0.00030517578
2019-07-01T20:17:24.045Z,0.010855368,-0.012282294,0.9938629,0.23857117,-0.2163086,9.8033905,2.4291992,-14.463806,-38.789368,0.23795646,-0.21612613,9.801381,0.00063186884,0.00051911175,-0.00038051605,0.00016784668,-7.6293945e-05,0.0002593994
2019-07-01T20:17:24.259Z,0.010868433,-0.012259428,0.9938591,0.23904419,-0.21655273,9.800766,3.3584595,-15.351868,-38.40332,0.23816979,-0.21564382,9.801385,0.00039072335,6.2048435e-05,0.00228405,-0.0001373291,9.1552734e-05,1.5258789e-05
2019-07-01T20:17:24.455Z,0.0108806575,-0.012297269,0.99385655,0.2400055,-0.21368408,9.8029175,3.6987305,-14.891052,-38.700867,0.23849308,-0.21635078,9.801362,0.00053702295,-0.00041806698,0.0002593994,-7.6293945e-05,-3.0517578e-05,0.00019836426
2019-07-01T20:17:24.661Z,0.0108999675,-0.012250771,0.9938507,0.23664856,-0.21296692,9.801483,3.8635254,-14.732361,-39.053345,0.23878191,-0.21538958,9.801376,0.0009557158,0.0019710362,0.00081157684,-7.6293945e-05,-3.0517578e-05,0.0001373291
2019-07-01T20:17:24.839Z,0.010875258,-0.012231709,0.99385685,0.23976135,-0.21774292,9.8033905,4.508972,-14.762878,-38.633728,0.23824832,-0.21508348,9.801395,-0.0013678074,0.0011815131,-0.0008869171,-0.0001373291,3.0517578e-05,7.6293945e-05
2019-07-01T20:17:25.041Z,0.010893313,-0.012276146,0.9938529,0.2368927,-0.21655273,9.79837,3.0456543,-15.231323,-38.14087,0.23870194,-0.21590368,9.801368,0.0010401905,-0.0015929639,0.0005168915,0.00010681152,-3.0517578e-05,7.6293945e-05
2019-07-01T20:17:25.244Z,0.0108789485,-0.012291111,0.9938569,0.23808289,-0.2182312,9.801239,2.2613525,-14.77356,-38.01422,0.23844609,-0.21623498,9.801366,-0.00083842874,-0.0012770593,-0.0014076233,0.00016784668,-1.5258789e-05,-0.00016784668
2019-07-01T20:17:25.448Z,0.010853487,-0.012306999,0.9938638,0.23928833,-0.21679688,9.805557,2.5909424,-14.682007,-37.252808,0.2379704,-0.21661423,9.80137,-0.0008185357,-0.0009134859,-0.0014190674,-7.6293945e-05,-3.0517578e-05,-0.00018310547
2019-07-01T20:17:25.652Z,0.010871935,-0.01230793,0.993859,0.237854,-0.2163086,9.797409,2.5650024,-15.188599,-38.03711,0.23834099,-0.21658273,9.80136,0.0006849617,0.00029070675,0.002729416,0.00010681152,-7.6293945e-05,1.5258789e-05
2019-07-01T20:17:25.855Z,0.010856904,-0.012297491,0.99386275,0.23760986,-0.21751404,9.800049,2.1896362,-14.865112,-36.29303,0.23801884,-0.21641912,9.801373,-0.0006815046,-0.00033666193,0.00084877014,-7.6293945e-05,3.0517578e-05,1.5258789e-05
2019-07-01T20:17:26.057Z,0.010863066,-0.012318569,0.9938615,0.2368927,-0.21702576,9.806503,2.7114868,-15.620422,-37.374878,0.23818594,-0.21681465,9.801359,0.00014427304,-0.00021402538,-0.0026130676,4.5776367e-05,3.0517578e-05,0.0001373291
2019-07-01T20:17:26.252Z,0.010862188,-0.012319531,0.99386173,0.23880005,-0.2163086,9.800995,2.5680542,-15.042114,-38.156128,0.23817043,-0.21683583,9.801359,-0.00031152368,-0.0006674081,-0.00014781952,0.00010681152,-3.0517578e-05,-4.5776367e-05
2019-07-01T20:17:26.466Z,0.010853465,-0.01229377,0.9938636,0.23928833,-0.21655273,9.801483,3.7063599,-14.746094,-38.520813,0.23794234,-0.21635562,9.801375,-8.958578e-05,0.0010094792,0.00052928925,-1.5258789e-05,-3.0517578e-05,0.00030517578
2019-07-01T20:17:26.663Z,0.0108824605,-0.012309345,0.99385625,0.23783875,-0.21463013,9.801483,3.1311035,-15.000916,-38.54828,0.23855433,-0.21658204,9.801355,0.0011796057,-0.00041882694,0.002114296,-7.6293945e-05,-0.0001373291,0.0002593994
2019-07-01T20:17:26.870Z,0.010863149,-0.0122708045,0.99386066,0.23736572,-0.21751404,9.803162,2.7526855,-14.671326,-37.257385,0.23808794,-0.2158805,9.801382,-0.00145787,0.001496017,-0.0006608963,0.00016784668,3.0517578e-05,1.5258789e-05
2019-07-01T20:17:27.067Z,0.010870616,-0.01230621,0.9938593,0.23880005,-0.21942139,9.799805,2.7999878,-15.396118,-37.48474,0.23831107,-0.21655266,9.801362,0.0005042702,-0.0016924292,-0.0028352737,-1.5258789e-05,-3.0517578e-05,0.00030517578
2019-07-01T20:17:27.275Z,0.010868693,-0.012335606,0.9938603,0.23880005,-0.2163086,9.800278,3.0059814,-14.437866,-37.069702,0.23833396,-0.21713261,9.801349,-9.655952e-06,-0.0013402253,0.0014562607,0.00010681152,-3.0517578e-05,0.00019836426
2019-07-01T20:17:27.471Z,0.010864337,-0.0123273395,0.9938613,0.23617554,-0.21894836,9.800766,3.3874512,-14.69574,-38.42163,0.23822965,-0.2169827,9.801354,-0.00035707653,-5.9977174e-05,-0.0017471313,0.00010681152,3.0517578e-05,7.6293945e-05
2019-07-01T20:17:27.670Z,0.010853082,-0.012356534,0.9938647,0.24072266,-0.21511841,9.803635,2.8884888,-15.245056,-37.532043,0.2380656,-0.21758385,9.801346,-0.00019669533,-0.001378119,0.00027751923,-7.6293945e-05,-3.0517578e-05,0.0001373291
2019-07-01T20:17:27.880Z,0.010880986,-0.012321969,0.99385685,0.23808289,-0.2141571,9.804825,2.4932861,-15.130615,-37.18872,0.23855121,-0.21683285,9.801351,0.0009419769,0.0017362982,0.0032196045,-7.6293945e-05,-0.0001373291,1.5258789e-05
2019-07-01T20:17:28.103Z,0.010902792,-0.012314759,0.99385107,0.2400055,-0.21511841,9.8022,2.3635864,-14.483643,-36.82556,0.23897198,-0.2166331,9.801344,0.00027285516,-0.0017875582,0.0016965866,4.5776367e-05,3.0517578e-05,0.00018310547
2019-07-01T20:17:28.278Z,0.010882294,-0.012275304,0.9938558,0.23545837,-0.21391296,9.801956,1.7913818,-14.588928,-37.50305,0.23847994,-0.21591689,9.801372,-0.00042274594,0.0012947768,-0.0014181137,-7.6293945e-05,0.00021362305,0.00019836426
2019-07-01T20:17:28.481Z,0.010839982,-0.012244006,0.99386626,0.23809814,-0.21655273,9.804825,2.923584,-16.035461,-38.60016,0.23756908,-0.21541889,9.801405,-0.00095513463,0.0015373081,0.0008020401,4.5776367e-05,-3.0517578e-05,0.0001373291
2019-07-01T20:17:28.683Z,0.010851109,-0.01226182,0.9938637,0.23832703,-0.21679688,9.799805,2.3986816,-15.274048,-38.12256,0.2378286,-0.21573725,9.801392,0.00023576617,-0.0015020221,-0.00010967255,4.5776367e-05,0.00015258789,0.0001373291
2019-07-01T20:17:28.879Z,0.010843066,-0.012279445,0.9938661,0.2368927,-0.21655273,9.805069,2.4902344,-15.124512,-37.716675,0.23770462,-0.21610352,9.801387,0.00034709275,-0.0004208535,-0.00022792816,-7.6293945e-05,-0.0001373291,0.00030517578
2019-07-01T20:17:29.090Z,0.0108417915,-0.012280079,0.9938664,0.24047852,-0.21440125,9.802444,3.463745,-14.761353,-38.51471,0.23768048,-0.21611933,9.801387,-0.0005670339,0.00030504167,-0.000623703,-1.5258789e-05,9.1552734e-05,0.00024414062
2019-07-01T20:17:29.305Z,0.010900854,-0.012279432,0.99385095,0.24263,-0.2172699,9.799805,2.130127,-15.797424,-38.67035,0.23885947,-0.21594758,9.801362,0.002293855,0.00015027821,0.001496315,0.00016784668,-0.0001373291,0.0001373291
2019-07-01T20:17:29.501Z,0.010956018,-0.012286661,0.99383664,0.24023438,-0.21368408,9.804825,2.8152466,-15.029907,-37.55951,0.239977,-0.21594004,9.801335,0.0019116104,-0.00059089065,-0.0015583038,0.00010681152,-7.6293945e-05,1.5258789e-05
2019-07-01T20:17:29.703Z,0.010954227,-0.012240554,0.99383634,0.2368927,-0.21534729,9.807465,3.189087,-13.761902,-38.146973,0.2398448,-0.21504338,9.801358,-0.00035609305,0.0016289949,0.00039482117,-1.5258789e-05,0.00021362305,0.00024414062
2019-07-01T20:17:29.902Z,0.010903001,-0.012258527,0.99385005,0.23568726,-0.2163086,9.799805,2.7664185,-14.381409,-37.275696,0.2388587,-0.21553303,9.801371,-0.0010652393,-0.0009650588,0.0026474,4.5776367e-05,-7.6293945e-05,0.0002593994
2019-07-01T20:17:30.109Z,0.010842125,-0.012228562,0.9938655,0.23617554,-0.21679688,9.803162,1.9943237,-15.376282,-37.823486,0.23757969,-0.21511117,9.801412,-0.0028746873,0.00026968122,-0.0019102097,0.00010681152,-3.0517578e-05,0.00019836426
2019-07-01T20:17:30.313Z,0.010829246,-0.012280888,0.9938697,0.23641968,-0.2172699,9.802673,1.6494751,-14.085388,-37.773132,0.23743145,-0.21616894,9.801393,-0.00081568956,-0.0020323843,-0.00030231476,-7.6293945e-05,-0.00019836426,0.00030517578
2019-07-01T20:17:30.569Z,0.0108168665,-0.012277791,0.9938729,0.237854,-0.21343994,9.8029175,3.4820557,-14.3966675,-38.28888,0.23717758,-0.21614166,9.801398,-0.0010494739,0.000105172396,0.0012378693,4.5776367e-05,-7.6293945e-05,0.0002593994
2019-07-01T20:17:30.766Z,0.010848161,-0.012244777,0.9938642,0.23713684,-0.21702576,9.80484,1.9989014,-15.2282715,-38.02185,0.23773412,-0.21541196,9.801401,0.0010182261,0.0015422255,2.2888184e-05,-1.5258789e-05,3.0517578e-05,0.00036621094
2019-07-01T20:17:30.971Z,0.010834034,-0.012278263,0.9938684,0.23976135,-0.21894836,9.8029175,2.027893,-14.492798,-38.55133,0.23752165,-0.21610472,9.801391,1.4975667e-05,-0.0010985285,0.0020895004,-1.5258789e-05,-3.0517578e-05,-0.00010681152
2019-07-01T20:17:31.172Z,0.010849819,-0.012305627,0.9938647,0.2359314,-0.21679688,9.8033905,3.3721924,-14.985657,-38.630676,0.2378942,-0.21659726,9.801372,0.00038845837,-0.0013494194,-0.0024328232,-1.5258789e-05,-0.00019836426,0.00012207031
2019-07-01T20:17:31.376Z,0.010847543,-0.012325983,0.99386567,0.24119568,-0.21679688,9.803635,2.9708862,-15.092468,-37.805176,0.2378912,-0.21700141,9.801363,-0.0010269433,-0.00048668683,-0.0012960434,-0.0001373291,-7.6293945e-05,0.0001373291
2019-07-01T20:17:31.581Z,0.010893387,-0.012333049,0.9938538,0.23808289,-0.21774292,9.802689,1.5991211,-15.180969,-37.99286,0.23882218,-0.21701607,9.801339,0.001612559,0.00025896728,0.0012159348,-1.5258789e-05,-7.6293945e-05,0.0001373291
2019-07-01T20:17:31.783Z,0.010874151,-0.012330839,0.9938588,0.23832703,-0.21679688,9.801727,2.4932861,-15.052795,-37.47406,0.23843311,-0.2170247,9.801349,-0.0008727014,4.3958426e-05,0.0004968643,0.00010681152,9.1552734e-05,0.00036621094
2019-07-01T20:17:31.989Z,0.010888107,-0.012346767,0.9938554,0.23808289,-0.21583557,9.8029175,3.3691406,-15.211487,-37.921143,0.2387453,-0.21729852,9.801335,0.0007393807,-0.00065892935,-0.0014314651,-0.0001373291,-0.00019836426,0.00019836426
2019-07-01T20:17:32.188Z,0.010876195,-0.012316984,0.99385804,0.24023438,-0.21607971,9.803879,3.010559,-15.884399,-38.572693,0.23844504,-0.2167483,9.801354,-0.0011092275,0.0014281869,-0.00015449524,0.00016784668,-0.00019836426,0.00036621094
2019-07-01T20:17:32.391Z,0.010923223,-0.012300619,0.99384546,0.23713684,-0.21511841,9.800995,2.104187,-14.785767,-37.48169,0.23935075,-0.2163015,9.801342,0.0010889173,0.00025689602,0.0007019043,4.5776367e-05,3.0517578e-05,0.0004272461
2019-07-01T20:17:32.592Z,0.010886797,-0.012268673,0.99385446,0.23928833,-0.2172699,9.80603,2.2583008,-14.770508,-38.391113,0.23855609,-0.21577512,9.8013735,-0.0016914159,0.0011703372,-0.0008125305,-1.5258789e-05,-3.0517578e-05,0.0004272461
2019-07-01T20:17:32.792Z,0.010898347,-0.012339138,0.9938526,0.23736572,-0.2172699,9.804825,2.607727,-14.241028,-37.919617,0.23893401,-0.21712174,9.801333,5.054474e-05,-0.0020165741,0.00081539154,0.00010681152,3.0517578e-05,0.00036621094
2019-07-01T20:17:32.989Z,0.010879843,-0.01233914,0.99385744,0.23951721,-0.22085571,9.804825,2.4353027,-14.544678,-37.597656,0.23856421,-0.21717168,9.801343,-0.00079904497,-3.1217933e-05,0.0011758804,-7.6293945e-05,-7.6293945e-05,0.00019836426
2019-07-01T20:17:33.196Z,0.010885886,-0.012390361,0.99385667,0.23880005,-0.21702576,9.803635,2.8793335,-15.235901,-38.737488,0.23879187,-0.21815689,9.801315,0.0006491691,-0.0016679168,0.00015354156,-7.6293945e-05,-0.0001373291,0.00019836426
2019-07-01T20:17:33.401Z,0.01089595,-0.012364341,0.9938536,0.23857117,-0.2131958,9.8033905,1.4541626,-14.823914,-38.21869,0.23893872,-0.21762098,9.801323,-0.00021582842,0.0013826638,0.00010871887,4.5776367e-05,-7.6293945e-05,0.0002593994
2019-07-01T20:17:33.601Z,0.010905915,-0.012283581,0.9938497,0.23904419,-0.21487427,9.8033905,2.5024414,-14.984131,-36.9339,0.23896927,-0.21601506,9.801357,-0.0007018745,0.0028731525,-0.0013589859,-1.5258789e-05,-0.00032043457,0.0005493164
2019-07-01T20:17:33.805Z,0.010914349,-0.012286727,0.99384755,0.23736572,-0.21894836,9.8029175,2.6519775,-15.267944,-36.846924,0.23914438,-0.21605383,9.8013525,-0.00039672852,0.0002656132,-0.000582695,-7.6293945e-05,-0.00019836426,0.00032043457
2019-07-01T20:17:34.012Z,0.010900536,-0.012323396,0.9938518,0.23712158,-0.21463013,9.800995,2.168274,-15.222168,-37.121582,0.2389449,-0.21680807,9.801341,-0.001376912,-0.0013851374,-0.0008583069,-1.5258789e-05,-3.0517578e-05,0.00030517578
2019-07-01T20:17:34.218Z,0.010849275,-0.012276736,0.9938644,0.23664856,-0.21679688,9.800766,1.4328003,-15.338135,-38.020325,0.23782307,-0.21603386,9.801386,-0.0019137263,0.0018968135,-0.0015287399,4.5776367e-05,9.1552734e-05,0.00030517578
2019-07-01T20:17:34.421Z,0.01085131,-0.012311649,0.9938644,0.2400055,-0.21583557,9.801712,3.2714844,-15.428162,-38.79242,0.23793656,-0.216711,9.801368,0.00036863983,-0.0015003234,-6.580353e-05,-7.6293945e-05,-0.0001373291,0.00019836426
2019-07-01T20:17:34.625Z,0.01088562,-0.012277847,0.99385494,0.23857117,-0.21606445,9.8029175,2.709961,-15.620422,-37.602234,0.23855172,-0.21595767,9.80137,0.0007134825,0.001821503,0.00012493134,-7.6293945e-05,9.1552734e-05,0.00044250488
2019-07-01T20:17:34.820Z,0.010877687,-0.012297218,0.9938573,0.23760986,-0.21559143,9.802444,2.279663,-14.485168,-37.27722,0.2384336,-0.21635778,9.801363,-0.00011344254,-0.0009058714,-0.0013532639,-1.5258789e-05,-0.00019836426,0.00036621094
2019-07-01T20:17:35.039Z,0.010869768,-0.012275585,0.99385905,0.23736572,-0.21440125,9.802673,2.0492554,-16.029358,-37.582397,0.2382302,-0.21595614,9.801376,-0.0004120767,0.0011005551,0.00116539,0.00010681152,-1.5258789e-05,7.6293945e-05
2019-07-01T20:17:35.224Z,0.010870345,-0.012245607,0.9938584,0.24072266,-0.21536255,9.804596,2.987671,-14.726257,-37.731934,0.23817916,-0.21536843,9.801391,-0.00084121525,0.0007634312,0.0006275177,-1.5258789e-05,3.0517578e-05,0.0002593994
2019-07-01T20:17:35.445Z,0.010911923,-0.012255774,0.99384767,0.23664856,-0.21655273,9.801956,2.407837,-15.132141,-37.638855,0.23903126,-0.21545516,9.801369,0.001879096,0.00012972951,0.0010499954,-7.6293945e-05,3.0517578e-05,0.00048828125
2019-07-01T20:17:35.744Z,0.010859091,-0.012276389,0.99386185,0.237854,-0.21463013,9.801956,2.7282715,-14.952087,-39.05182,0.2380185,-0.21600062,9.801381,-0.0014095902,-0.00076027215,-9.6321106e-05,4.5776367e-05,3.0517578e-05,0.0001373291
2019-07-01T20:17:35.949Z,0.010864486,-0.012251029,0.99386,0.23976135,-0.21655273,9.801956,4.4143677,-14.833069,-40.00244,0.2380734,-0.21549022,9.801391,-1.7538667e-05,0.00088456273,-0.0010213852,-7.6293945e-05,-3.0517578e-05,0.00019836426
2019-07-01T20:17:36.064Z,0.010891539,-0.012265375,0.99385315,0.23928833,-0.21534729,9.804108,3.175354,-15.341187,-41.337585,0.23864399,-0.21569787,9.8013735,0.0006174445,-0.00011339784,-3.33786e-05,4.5776367e-05,-0.0001373291,0.0002593994
2019-07-01T20:17:36.243Z,0.010913116,-0.012271422,0.9938476,0.23760986,-0.21702576,9.803162,3.1265259,-14.842224,-40.252686,0.23908779,-0.2157579,9.801361,0.0003966838,-0.0002770126,0.00045871735,-1.5258789e-05,-0.0002593994,0.0002593994
2019-07-01T20:17:36.449Z,0.010886348,-0.012285805,0.9938549,0.23736572,-0.21559143,9.80603,3.6468506,-15.602112,-41.485596,0.23858288,-0.2161113,9.801365,-0.0014899522,-0.00087469816,0.0009393692,4.5776367e-05,-3.0517578e-05,0.0002593994
2019-07-01T20:17:36.650Z,0.010887569,-0.012268642,0.9938543,0.23904419,-0.21655273,9.803879,4.005432,-15.235901,-38.632202,0.23857144,-0.21577242,9.801373,-6.900728e-05,0.0007161945,0.0020618439,-7.6293945e-05,-0.0001373291,0.00036621094
2019-07-01T20:17:36.856Z,0.010892256,-0.012291413,0.9938534,0.23783875,-0.21607971,9.803635,3.5263062,-15.12146,-38.66577,0.23871264,-0.216205,9.801359,-0.00069205463,-0.00052016973,-0.0005273819,-7.6293945e-05,-7.6293945e-05,0.00036621094
2019-07-01T20:17:37.057Z,0.010889775,-0.0123015875,0.9938542,0.23951721,-0.21798706,9.800995,3.0334473,-15.449524,-38.031006,0.23868433,-0.21641065,9.801356,6.15567e-05,0.00015117228,-0.0006637573,4.5776367e-05,9.1552734e-05,1.5258789e-05
2019-07-01T20:17:37.247Z,0.010884654,-0.0123216575,0.9938559,0.23832703,-0.21511841,9.801239,2.8656006,-15.5303955,-38.72223,0.23862387,-0.21681687,9.801349,0.0004002303,-0.0013960749,-0.0028429031,4.5776367e-05,0.0002746582,7.6293945e-05
2019-07-01T20:17:37.452Z,0.010876337,-0.012287829,0.9938575,0.24191284,-0.2163086,9.804825,2.1987915,-16.007996,-38.941956,0.23838705,-0.21617787,9.801369,0.0006234646,0.0010899752,0.0011262894,4.5776367e-05,3.0517578e-05,0.0001373291
2019-07-01T20:17:37.656Z,0.010923505,-0.012280933,0.99384505,0.237854,-0.21391296,9.801727,3.0548096,-14.933777,-38.53302,0.23931527,-0.21591581,9.801352,0.0015948564,0.00011758506,0.0005874634,4.5776367e-05,-0.0001373291,0.0002593994
2019-07-01T20:17:37.866Z,0.010910102,-0.012249957,0.9938481,0.23904419,-0.21655273,9.8022,2.9464722,-15.600586,-38.13629,0.23898274,-0.21534634,9.801373,-0.0009395629,0.0012250096,-8.392334e-05,0.00016784668,3.0517578e-05,0.00030517578
2019-07-01T20:17:38.072Z,0.010898389,-0.0122743845,0.99385154,0.23712158,-0.21606445,9.803635,2.482605,-15.270996,-37.747192,0.23879968,-0.21585554,9.801366,-0.00025610626,-0.0013893992,-0.0010156631,0.00010681152,-3.0517578e-05,0.0002593994
2019-07-01T20:17:38.272Z,0.010873778,-0.012243332,0.99385744,0.23857117,-0.21487427,9.805069,3.427124,-15.411377,-39.55078,0.23824304,-0.21531475,9.801392,-0.0013768524,0.00070858,-3.71933e-05,0.00010681152,-3.0517578e-05,0.00012207031
2019-07-01T20:17:38.480Z,0.010898687,-0.012260265,0.99385124,0.24047852,-0.21846008,9.797653,3.2608032,-15.950012,-37.313843,0.23877612,-0.21557865,9.801372,0.00095663965,-0.00070410967,0.00012683868,-1.5258789e-05,-3.0517578e-05,0.0002593994
2019-07-01T20:17:38.674Z,0.010902024,-0.01228242,0.9938507,0.2359314,-0.21655273,9.8029175,2.2338867,-15.203857,-39.082336,0.2388891,-0.21600285,9.80136,0.0003671497,-0.0014821738,0.0002412796,4.5776367e-05,3.0517578e-05,0.0001373291
2019-07-01T20:17:38.886Z,0.010865123,-0.012291705,0.9938605,0.23976135,-0.21751404,9.803162,2.6809692,-16.05072,-38.745117,0.23817103,-0.21628386,9.801372,-0.00154832,-0.00047428906,-0.0004787445,4.5776367e-05,-7.6293945e-05,0.00036621094
2019-07-01T20:17:39.081Z,0.010866692,-0.01231001,0.9938604,0.23640442,-0.21391296,9.804108,3.6590576,-15.766907,-38.8031,0.23824058,-0.21663754,9.801362,0.00030255318,-0.0006068796,0.00015830994,-1.5258789e-05,-3.0517578e-05,0.00048828125
2019-07-01T20:17:39.300Z,0.010869029,-0.012255182,0.9938589,0.23857117,-0.21607971,9.803162,3.4194946,-15.861511,-37.98065,0.23817284,-0.21555918,9.801387,-0.00033913553,0.00045913458,-0.0014562607,-1.5258789e-05,-0.0001373291,0.00019836426
2019-07-01T20:17:39.497Z,0.010863619,-0.012259732,0.99386036,0.23951721,-0.21511841,9.803635,2.507019,-16.278076,-39.312744,0.23807423,-0.21566273,9.801387,-2.5063753e-05,-0.00014230609,0.0011034012,-1.5258789e-05,-1.5258789e-05,0.0001373291
2019-07-01T20:17:39.751Z,0.010880173,-0.012253112,0.99385595,0.237854,-0.21463013,9.803162,2.7114868,-15.620422,-37.374878,0.23839122,-0.2154887,9.801383,0.00061018765,0.00040897727,0.0007362366,4.5776367e-05,0.00015258789,0.00018310547
2019-07-01T20:17:39.948Z,0.010880732,-0.012247152,0.9938557,0.23928833,-0.21606445,9.801483,3.1906128,-15.888977,-36.465454,0.23838995,-0.21537066,9.801386,0.00013443828,6.5639615e-05,0.00032520294,-7.6293945e-05,-0.0001373291,0.00018310547
2019-07-01T20:17:40.149Z,0.010898278,-0.012242805,0.99385107,0.23808289,-0.21536255,9.801727,3.1661987,-14.273071,-38.250732,0.23873152,-0.21523839,9.801381,0.0005324632,0.00014193356,-0.0018587112,0.00010681152,-3.0517578e-05,1.5258789e-05
2019-07-01T20:17:40.349Z,0.010889277,-0.012272591,0.99385387,0.24072266,-0.21702576,9.804825,3.3737183,-15.063477,-38.11798,0.23861381,-0.21584502,9.80137,-0.0003195405,-0.0011510998,0.00067424774,-1.5258789e-05,0.00015258789,0.0004272461
2019-07-01T20:17:40.551Z,0.010898341,-0.012262355,0.99385136,0.2359314,-0.21487427,9.80101,2.6931763,-15.910339,-37.960815,0.23877361,-0.21562046,9.801372,0.0009512156,0.00030614436,0.00029087067,0.00016784668,9.1552734e-05,0.00048828125
2019-07-01T20:17:40.757Z,0.010856109,-0.012225407,0.9938618,0.23857117,-0.21583557,9.802673,3.5339355,-15.200806,-37.776184,0.23785256,-0.21501185,9.801408,-0.001947552,0.00039030612,-0.0007677078,4.5776367e-05,-0.0001373291,0.00032043457
2019-07-01T20:17:40.959Z,0.010875568,-0.01226783,0.9938574,0.237854,-0.21870422,9.801483,2.2964478,-15.791321,-38.069153,0.23832993,-0.21578889,9.801378,0.0006916076,-0.001216352,-0.00035476685,-7.6293945e-05,3.0517578e-05,0.00030517578
2019-07-01T20:17:41.163Z,0.010853438,-0.0122992825,0.9938637,0.24023438,-0.21702576,9.805786,2.796936,-15.316772,-38.523865,0.2379533,-0.21646349,9.8013735,-0.0006094724,-0.0012595057,-7.43866e-05,0.00010681152,-7.6293945e-05,0.00036621094
2019-07-01T20:17:41.363Z,0.010904542,-0.012323822,0.9938507,0.2359314,-0.21559143,9.803879,1.9073486,-15.37323,-38.80005,0.23902588,-0.21680558,9.801339,0.0021164566,-0.0008889437,0.002503395,-1.5258789e-05,0.00015258789,0.00030517578
2019-07-01T20:17:41.565Z,0.010850309,-0.012280381,0.9938642,0.23904419,-0.21487427,9.801483,1.9607544,-15.953064,-38.694763,0.23785134,-0.21610233,9.801383,-0.0021997988,0.001274392,-9.346008e-05,-0.0001373291,9.1552734e-05,0.0004272461
2019-07-01T20:17:41.763Z,0.01084409,-0.01226661,0.9938656,0.23545837,-0.21511841,9.801239,2.6229858,-15.696716,-38.215637,0.23769835,-0.21584983,9.8013935,0.0005630702,0.00079098344,0.0012149811,4.5776367e-05,9.1552734e-05,0.0004272461
2019-07-01T20:17:41.971Z,0.010798333,-0.012254884,0.99387735,0.23808289,-0.2182312,9.8033905,2.8457642,-14.372253,-37.579346,0.23675945,-0.21574359,9.801417,-0.0018079728,0.00064213574,-0.0038175583,-1.5258789e-05,3.0517578e-05,0.0004272461
2019-07-01T20:17:42.174Z,0.010844494,-0.012304505,0.9938661,0.23832703,-0.21774292,9.804596,3.0334473,-15.447998,-38.25836,0.23778543,-0.21658966,9.8013735,0.0021982044,-0.0018505007,0.00016880035,0.00010681152,-3.0517578e-05,7.6293945e-05
2019-07-01T20:17:42.396Z,0.010825045,-0.012317943,0.9938714,0.2400055,-0.2163086,9.805313,2.8961182,-14.94751,-38.22632,0.23742476,-0.21690476,9.801376,-0.000564903,-0.0008081645,0.0009031296,-7.6293945e-05,0.00021362305,7.6293945e-05
2019-07-01T20:17:42.583Z,0.010876341,-0.012313856,0.9938579,0.23857117,-0.21606445,9.8033905,2.5680542,-15.19165,-37.734985,0.23844142,-0.21668671,9.801355,0.0026901364,0.00068053603,0.0025119781,-1.5258789e-05,-3.0517578e-05,7.6293945e-05
2019-07-01T20:17:42.783Z,0.010852689,-0.012304796,0.99386394,0.23904419,-0.21655273,9.8022,2.9327393,-16.04309,-37.771606,0.23794985,-0.21657331,9.801372,-0.00088122487,0.0003129393,-0.0008792877,-7.6293945e-05,-3.0517578e-05,0.00030517578
2019-07-01T20:17:42.978Z,0.010886275,-0.012301314,0.9938551,0.2359314,-0.21272278,9.802444,3.6514282,-14.393616,-37.313843,0.23861378,-0.21641472,9.801357,0.00084365904,0.00063337386,0.000538826,-7.6293945e-05,-3.0517578e-05,0.00024414062
2019-07-01T20:17:43.190Z,0.010828669,-0.012252237,0.99386936,0.23857117,-0.21846008,9.802444,2.8930664,-14.944458,-38.528442,0.23736018,-0.21561027,9.801406,-0.002183482,0.0019602627,-0.0017166138,-1.5258789e-05,-3.0517578e-05,0.00019836426
2019-07-01T20:17:43.396Z,0.010880854,-0.0122973835,0.9938565,0.23832703,-0.21607971,9.800522,3.3569336,-15.50293,-37.82959,0.23849726,-0.21635251,9.801362,0.0014893413,-0.0013732761,-0.001616478,0.00010681152,-3.0517578e-05,7.6293945e-05
2019-07-01T20:17:43.591Z,0.010845087,-0.012284539,0.9938656,0.23832703,-0.21463013,9.800049,3.440857,-15.348816,-38.105774,0.23775566,-0.21619768,9.801384,-0.00088587403,-0.00057834387,0.0003452301,0.00016784668,-7.6293945e-05,0.0001373291
2019-07-01T20:17:43.802Z,0.0108895525,-0.012261265,0.9938536,0.23760986,-0.21559143,9.805313,1.7349243,-15.830994,-37.753296,0.2385957,-0.21562284,9.801375,0.0011493862,0.0007632971,-0.0005617142,-1.5258789e-05,3.0517578e-05,0.0004272461
2019-07-01T20:17:44.002Z,0.010856494,-0.0122416,0.9938619,0.23904419,-0.21559143,9.800766,2.871704,-15.458679,-38.253784,0.23789403,-0.21532741,9.801399,-0.0012565404,0.00093619525,-0.00037288666,4.5776367e-05,9.1552734e-05,0.0002593994
2019-07-01T20:17:44.198Z,0.010851584,-0.012226249,0.993863,0.23736572,-0.21511841,9.803162,3.3996582,-16.374207,-37.783813,0.2377639,-0.21504049,9.801409,-0.0008790791,0.0008905083,-0.00049495697,-0.0001373291,-7.6293945e-05,0.00036621094
2019-07-01T20:17:44.404Z,0.01084846,-0.012240286,0.993864,0.23617554,-0.2182312,9.801956,2.696228,-15.913391,-37.583923,0.23773073,-0.21532334,9.801403,-0.00013841689,-0.0004963279,0.000790596,-7.6293945e-05,3.0517578e-05,0.00030517578
2019-07-01T20:17:44.603Z,0.010818798,-0.012291176,0.9938726,0.2368927,-0.21487427,9.8033905,4.156494,-15.748596,-37.00714,0.2372441,-0.21639818,9.801392,-0.0010790825,-0.0015792996,-0.0005865097,-1.5258789e-05,3.0517578e-05,0.0002593994
2019-07-01T20:17:44.806Z,0.010818471,-0.012277584,0.99387246,0.23904419,-0.2163086,9.801483,2.6275635,-15.550232,-38.33618,0.2372092,-0.21613328,9.801397,0.000121966004,0.0005733371,0.0019989014,-7.6293945e-05,-0.00015258789,0.0004272461
2019-07-01T20:17:45.008Z,0.010838905,-0.012276981,0.9938671,0.23713684,-0.2131958,9.800522,3.390503,-14.697266,-37.968445,0.23761635,-0.21606654,9.80139,0.000450477,0.00048971176,-0.0015306473,0.00010681152,0.00015258789,0.00032043457
2019-07-01T20:17:45.224Z,0.010854485,-0.012223923,0.99386215,0.23880005,-0.21440125,9.798843,2.784729,-15.686035,-37.99286,0.237817,-0.21498719,9.801409,0.0007507801,0.0017944425,-0.0010261536,-1.5258789e-05,9.1552734e-05,7.6293945e-05
2019-07-01T20:17:45.421Z,0.010844697,-0.012226008,0.9938648,0.23904419,-0.21751404,9.8029175,2.5665283,-15.193176,-37.65869,0.23762576,-0.2150543,9.801412,-1.874566e-05,-6.1526895e-05,-4.5776367e-05,4.5776367e-05,-3.0517578e-05,7.6293945e-05
2019-07-01T20:17:45.625Z,0.010874929,-0.012244643,0.99385715,0.23880005,-0.21247864,9.8022,0.9674072,-15.083313,-37.34436,0.23826876,-0.21533725,9.80139,0.0010106415,-0.0014515519,0.00044345856,0.00016784668,-7.6293945e-05,0.0001373291
2019-07-01T20:17:45.825Z,0.0108815385,-0.012215367,0.99385494,0.23857117,-0.2172699,9.801956,3.479004,-16.220093,-38.433838,0.2383397,-0.21474701,9.801401,0.00024056435,0.0010547489,-0.0014667511,0.00016784668,3.0517578e-05,0.00019836426
2019-07-01T20:17:46.027Z,0.010913215,-0.012215011,0.99384665,0.23951721,-0.21536255,9.8029175,2.6901245,-15.830994,-38.700867,0.23897192,-0.21465465,9.801388,0.00078476965,-0.0009325892,0.0010938644,0.00022888184,-0.0001373291,0.00030517578
2019-07-01T20:17:46.228Z,0.010894285,-0.012225042,0.9938518,0.2400055,-0.21391296,9.802673,2.1347046,-15.802002,-38.0661,0.2386146,-0.21490183,9.801391,-0.00055103004,-0.00044332445,0.001206398,-0.0001373291,0.00015258789,0.0001373291
2019-07-01T20:17:46.436Z,0.010939277,-0.012232852,0.99384016,0.23808289,-0.21559143,9.801956,1.9866943,-15.670776,-37.35504,0.23952997,-0.21493316,9.801369,0.0021460056,0.0002965033,-0.0022277832,-1.5258789e-05,-3.0517578e-05,0.00036621094
2019-07-01T20:17:46.624Z,0.01087577,-0.012219065,0.99385655,0.23641968,-0.21559143,9.800049,3.225708,-14.932251,-37.3291,0.23823218,-0.21483488,9.801402,-0.0023270994,0.00045737624,0.002828598,-0.0001373291,0.00016784668,-0.00010681152
2019-07-01T20:17:46.838Z,0.010865267,-0.012252968,0.9938598,0.2400055,-0.21511841,9.801239,3.137207,-15.007019,-37.794495,0.2380931,-0.21552606,9.801391,0.00024060905,-0.001032725,-0.0027456284,4.5776367e-05,0.00015258789,-0.00010681152
2019-07-01T20:17:47.032Z,0.01088702,-0.012249199,0.9938541,0.23760986,-0.21702576,9.799561,3.6483765,-14.544678,-36.665344,0.23851988,-0.21539374,9.801382,0.001229316,-0.00043086708,0.0015087128,0.00010681152,9.1552734e-05,7.6293945e-05
2019-07-01T20:17:47.253Z,0.010852436,-0.012265205,0.9938634,0.23808289,-0.21559143,9.805313,2.3605347,-14.480591,-37.27722,0.23786218,-0.21579988,9.80139,-0.00073213875,-0.00050254166,-0.0004310608,4.5776367e-05,9.1552734e-05,6.1035156e-05
2019-07-01T20:17:47.449Z,0.010860427,-0.012271418,0.9938614,0.23760986,-0.21702576,9.802444,2.5802612,-14.898682,-37.750244,0.23803487,-0.21589985,9.801384,0.00051125884,-0.0011032075,0.0014648438,0.00010681152,-7.6293945e-05,0.0001373291
2019-07-01T20:17:47.651Z,0.010836965,-0.012255954,0.9938673,0.23640442,-0.21343994,9.802429,2.6107788,-15.989685,-38.04779,0.23753372,-0.21566062,9.8014,-0.0011310428,0.00055764616,-0.00061893463,-7.6293945e-05,0.00015258789,0.00030517578
2019-07-01T20:17:47.858Z,0.010829024,-0.012238231,0.99386907,0.23928833,-0.21487427,9.801727,2.0751953,-15.292358,-38.414,0.23733808,-0.21533549,9.801414,2.503395e-06,0.000957042,0.0006952286,-1.5258789e-05,-3.0517578e-05,1.5258789e-05
2019-07-01T20:17:48.057Z,0.010855933,-0.012235117,0.993862,0.2359314,-0.2163086,9.798126,2.9159546,-16.331482,-37.98065,0.23786929,-0.21520218,9.801403,0.00091698766,0.00034037232,-0.00095939636,4.5776367e-05,3.0517578e-05,0.00018310547
2019-07-01T20:17:48.261Z,0.010822478,-0.012235351,0.99387074,0.2368927,-0.21583557,9.8033905,2.5878906,-14.830017,-37.208557,0.23720123,-0.21529676,9.801416,-0.0010138899,-6.122887e-05,-0.0020866394,-7.6293945e-05,9.1552734e-05,0.0001373291
2019-07-01T20:17:48.462Z,0.010795819,-0.01226188,0.9938781,0.23568726,-0.21536255,9.800049,3.3538818,-15.653992,-37.330627,0.2367238,-0.21588714,9.801415,-0.0005544871,-0.0013770759,0.0014734268,-0.0001373291,3.0517578e-05,-4.5776367e-05
2019-07-01T20:17:48.666Z,0.010792793,-0.012228951,0.99387836,0.23617554,-0.21343994,9.807709,2.796936,-15.393066,-37.860107,0.23659469,-0.21525143,9.801433,-0.00041361153,0.001806438,-0.0009250641,0.00010681152,-3.0517578e-05,-0.00016784668
2019-07-01T20:17:48.868Z,0.01079584,-0.01221908,0.9938774,0.23760986,-0.21536255,9.799805,3.4194946,-15.861511,-37.98065,0.23663501,-0.21505024,9.801435,0.00024372339,0.00043280423,0.0016202927,-7.6293945e-05,3.0517578e-05,-6.1035156e-05
2019-07-01T20:17:49.067Z,0.010792411,-0.012231955,0.9938785,0.23951721,-0.21655273,9.803879,2.5421143,-15.623474,-38.500977,0.2365933,-0.2153112,9.801431,3.0070543e-05,-0.0007455796,0.00091552734,0.00010681152,0.00015258789,-0.00010681152
2019-07-01T20:17:49.269Z,0.010829323,-0.012233181,0.9938689,0.23881531,-0.21559143,9.803162,2.558899,-15.338135,-37.913513,0.23733349,-0.21523592,9.8014145,0.0019023269,-6.374717e-05,0.0022029877,-7.6293945e-05,0.00015258789,0.0001373291
2019-07-01T20:17:49.477Z,0.010852251,-0.012263223,0.9938634,0.23951721,-0.21702576,9.8029175,3.1036377,-15.583801,-38.81836,0.23785436,-0.21576162,9.801391,0.0013861358,-0.00074774027,-0.00044441223,-0.0001373291,3.0517578e-05,-0.00010681152
2019-07-01T20:17:49.679Z,0.010868808,-0.012279838,0.99385935,0.23857117,-0.2131958,9.803635,3.314209,-15.9210205,-40.782166,0.23821993,-0.21604191,9.801376,0.0012681782,-1.1399388e-05,-0.001578331,-0.0001373291,3.0517578e-05,-4.5776367e-05
2019-07-01T20:17:49.882Z,0.010884153,-0.012237709,0.99385464,0.23928833,-0.21583557,9.8022,2.8549194,-15.74707,-39.067078,0.23843862,-0.21517684,9.80139,0.000568226,0.0022436082,0.00071048737,0.00010681152,9.1552734e-05,-0.00010681152
2019-07-01T20:17:50.157Z,0.01088626,-0.012258269,0.99385446,0.23736572,-0.2163086,9.798599,2.557373,-15.107727,-39.378357,0.23852366,-0.21557316,9.801379,0.0004924238,-0.0014272034,-0.0008058548,-7.6293945e-05,0.00021362305,1.5258789e-05
2019-07-01T20:17:50.362Z,0.010868161,-0.012274138,0.9938594,0.23904419,-0.2163086,9.8022,3.5217285,-15.345764,-37.954712,0.23819506,-0.21593218,9.801378,-0.000116184354,-0.00014391541,-0.001982689,-1.5258789e-05,3.0517578e-05,0.0001373291
2019-07-01T20:17:50.568Z,0.010828416,-0.012240059,0.99386925,0.24119568,-0.21655273,9.8029175,3.5110474,-15.563965,-38.15155,0.2373297,-0.21537285,9.801412,-0.0011714101,0.00027008355,0.0015106201,-1.5258789e-05,9.1552734e-05,-4.5776367e-05
2019-07-01T20:17:50.772Z,0.01087024,-0.012246003,0.9938584,0.23712158,-0.21463013,9.801956,2.3010254,-15.567017,-38.705444,0.23817791,-0.2153765,9.801392,0.002053246,4.592538e-05,4.863739e-05,-1.5258789e-05,0.00015258789,-0.00010681152
2019-07-01T20:17:50.900Z,0.010858335,-0.012239577,0.99386144,0.23976135,-0.21774292,9.805542,3.8345337,-15.390015,-38.882446,0.23792659,-0.2152829,9.801399,-0.00012603402,-0.00027397275,0.0016241074,0.00010681152,3.0517578e-05,-0.00016784668
2019-07-01T20:17:51.099Z,0.010878068,-0.012280752,0.99385697,0.23641968,-0.21655273,9.799805,3.7261963,-14.4592285,-37.782288,0.23840688,-0.21603483,9.801372,0.0013159215,-0.0014442801,-3.9100647e-05,4.5776367e-05,9.1552734e-05,7.6293945e-05
2019-07-01T20:17:51.301Z,0.010843941,-0.012278241,0.9938658,0.23904419,-0.21583557,9.803162,2.6428223,-15.106201,-38.850403,0.23771961,-0.21607763,9.801387,-0.0013125837,-0.0002194792,-0.0021038055,-7.6293945e-05,-3.0517578e-05,7.6293945e-05
2019-07-01T20:17:51.558Z,0.010882595,-0.012288475,0.9938559,0.23760986,-0.21655273,9.801727,2.6123047,-16.067505,-37.38556,0.23851344,-0.21617362,9.801365,0.0017092973,-0.0001244098,-0.00013160706,4.5776367e-05,0.00015258789,-0.00010681152
2019-07-01T20:17:51.753Z,0.010843427,-0.012269228,0.9938658,0.23904419,-0.21583557,9.7986145,1.8692017,-14.811707,-36.421204,0.23769051,-0.21590276,9.801391,-0.0010617673,0.00032931566,0.0007095337,0.00016784668,9.1552734e-05,-0.00022888184
2019-07-01T20:17:51.957Z,0.010872651,-0.012273787,0.9938582,0.23904419,-0.21559143,9.8022,2.6046753,-14.390564,-37.347412,0.23828408,-0.21591324,9.801377,0.001480192,-0.00064215064,-0.0019254684,0.00016784668,9.1552734e-05,-0.00010681152
2019-07-01T20:17:52.160Z,0.010861755,-0.012255839,0.9938608,0.2400055,-0.2163086,9.8029175,1.3565063,-15.270996,-37.701416,0.2380289,-0.21559165,9.801391,-0.00016961992,0.0004684776,-0.0001783371,4.5776367e-05,9.1552734e-05,1.5258789e-05
2019-07-01T20:17:52.369Z,0.010905376,-0.012283027,0.9938499,0.23783875,-0.21870422,9.801483,2.5619507,-15.187073,-38.186646,0.23895735,-0.21600568,9.801358,0.0022343695,-0.0012606233,0.0006790161,-1.5258789e-05,4.5776367e-05,-0.00010681152
2019-07-01T20:17:52.568Z,0.010869277,-0.012304232,0.99385965,0.23808289,-0.21534729,9.8022,2.5558472,-15.333557,-38.51776,0.23828016,-0.2165176,9.801363,-0.0016429275,-0.0014591664,0.00061511993,0.00016784668,-3.0517578e-05,-4.5776367e-05
2019-07-01T20:17:52.771Z,0.010882687,-0.0122788185,0.9938557,0.23904419,-0.21583557,9.7986145,3.1646729,-16.093445,-38.619995,0.23849514,-0.21598458,9.801371,0.00078083575,0.00064846873,7.915497e-05,-7.6293945e-05,0.00021362305,-0.00010681152
2019-07-01T20:17:52.974Z,0.01085728,-0.012285219,0.99386245,0.2359314,-0.21583557,9.804352,2.4932861,-14.974976,-38.139343,0.23800074,-0.21617813,9.801377,-0.0004056394,0.000127092,0.00021457672,-1.5258789e-05,9.1552734e-05,1.5258789e-05
2019-07-01T20:17:53.178Z,0.010845519,-0.012274514,0.9938654,0.23928833,-0.21464539,9.8033905,2.368164,-15.85083,-38.99231,0.23774336,-0.2160005,9.801388,-0.00039191544,0.0004220158,-2.002716e-05,-1.5258789e-05,-3.0517578e-05,0.00019836426
2019-07-01T20:17:53.378Z,0.01085534,-0.012258315,0.9938625,0.23951721,-0.21583557,9.799576,2.2644043,-14.775085,-37.486267,0.23790585,-0.21565734,9.801392,0.0006648302,0.00078351796,-0.0011348724,-1.5258789e-05,0.00015258789,-0.00016784668
2019-07-01T20:17:53.580Z,0.01087566,-0.012264628,0.9938573,0.23736572,-0.21487427,9.8029175,2.3910522,-15.419006,-38.00049,0.23832509,-0.21572605,9.80138,0.0011848509,-0.00034709275,0.0005207062,-0.0001373291,3.0517578e-05,-0.00018310547
2019-07-01T20:17:53.780Z,0.010842892,-0.012249734,0.9938656,0.23928833,-0.21679688,9.801727,3.7612915,-15.400696,-38.05237,0.23763919,-0.21552306,9.801401,-0.0007671416,0.0006675273,0.0011377335,0.00010681152,0.00021362305,-4.5776367e-05
2019-07-01T20:17:53.985Z,0.01087812,-0.0122731235,0.9938568,0.23951721,-0.21655273,9.802444,3.5812378,-15.699768,-38.710022,0.238392,-0.21588553,9.801375,0.0018310845,-0.0011299998,-0.00084400177,0.00010681152,0.00015258789,-0.00016784668
2019-07-01T20:17:54.186Z,0.010864838,-0.012263276,0.9938601,0.23904419,-0.21487427,9.801483,3.8284302,-15.536499,-38.987732,0.238106,-0.21572874,9.801385,0.00022052228,0.00038190186,-0.0008840561,-0.0001373291,0.00015258789,0.0002593994
2019-07-01T20:17:54.391Z,0.010896235,-0.012274111,0.9938521,0.24047852,-0.21583557,9.801727,3.5949707,-15.560913,-37.776184,0.23875606,-0.215856,9.801367,0.0014651567,0.00027646124,0.0010108948,-1.5258789e-05,3.0517578e-05,0.00019836426
2019-07-01T20:17:54.597Z,0.010902234,-0.012275592,0.9938505,0.23904419,-0.2163086,9.8033905,2.9464722,-15.600586,-38.13629,0.23887904,-0.21586879,9.801363,0.0008645952,4.9233437e-05,0.00035381317,-0.0001373291,0.00015258789,0.0002593994
2019-07-01T20:17:54.799Z,0.0108929975,-0.012290452,0.9938532,0.2368927,-0.21463013,9.801956,1.7318726,-15.90271,-37.617493,0.23872548,-0.21618423,9.80136,0.00029619038,-0.0001039654,0.00038814545,4.5776367e-05,0.00015258789,7.6293945e-05
2019-07-01T20:17:55.003Z,0.010864663,-0.012244988,0.9938599,0.23880005,-0.21607971,9.800766,2.961731,-15.234375,-38.287354,0.23806432,-0.21537164,9.8013935,-0.0007236153,0.0009930432,0.000248909,0.00010681152,9.1552734e-05,7.6293945e-05
2019-07-01T20:17:55.202Z,0.010873002,-0.012267727,0.99385804,0.23664856,-0.21511841,9.803162,3.2363892,-14.71405,-37.135315,0.23827843,-0.21579379,9.801379,0.0005135089,-0.0012246221,-0.0014352798,0.00016784668,0.00016784668,-0.00024414062
2019-07-01T20:17:55.399Z,0.010843342,-0.0122576095,0.9938656,0.23928833,-0.21702576,9.8022,2.8884888,-15.32135,-37.17041,0.23766461,-0.21567585,9.801397,0.0011242777,-0.0013397783,-0.00086307526,0.00022888184,0.0002746582,7.6293945e-05
2019-07-01T20:17:55.609Z,0.010841084,-0.0122487685,0.9938661,0.23521423,-0.21440125,9.8022,4.411316,-15.211487,-38.26599,0.23760103,-0.21550904,9.801402,0.0009521395,-0.0005543381,0.0005283356,-1.5258789e-05,0.00021362305,-0.00018310547
2019-07-01T20:17:55.808Z,0.010796845,-0.012236542,0.9938774,0.23857117,-0.21559143,9.800766,3.012085,-15.885925,-38.42163,0.23669152,-0.21538898,9.801428,-0.0012489855,0.00075802207,-0.00012683868,0.00010681152,-3.0517578e-05,-0.00010681152
2019-07-01T20:17:56.005Z,0.010846448,-0.01222806,0.99386436,0.23617554,-0.2115326,9.801483,2.470398,-15.487671,-38.01422,0.23766503,-0.2150897,9.80141,0.0016213804,-2.6986003e-05,-0.0011959076,4.5776367e-05,9.1552734e-05,-4.5776367e-05
2019-07-01T20:17:56.207Z,0.010814566,-0.0121637015,0.9938716,0.23904419,-0.21463013,9.801712,1.58844,-15.473938,-37.75177,0.23689373,-0.21391712,9.801455,-0.00072294474,0.00238882,0.00030517578,-1.5258789e-05,9.1552734e-05,1.5258789e-05
2019-07-01T20:17:56.415Z,0.010837681,-0.01218377,0.9938659,0.23976135,-0.21559143,9.799561,2.0462036,-16.1026,-37.519836,0.23739745,-0.21424733,9.801435,0.0013870001,-0.0010858625,0.0008382797,0.000289917,0.00021362305,-6.1035156e-05
2019-07-01T20:17:56.625Z,0.010884758,-0.0121827815,0.99385357,0.2409668,-0.21391296,9.801712,2.6733398,-16.273499,-38.412476,0.238336,-0.21410123,9.801415,0.0021581948,-0.0005429685,-0.0026445389,-1.5258789e-05,-3.0517578e-05,-0.00010681152
2019-07-01T20:17:56.824Z,0.010911448,-0.012212746,0.9938471,0.2400055,-0.2172699,9.801239,2.4780273,-15.267944,-38.27362,0.23893188,-0.21461514,9.80139,0.0010829419,-0.0009846687,0.00047588348,0.00035095215,4.5776367e-05,7.6293945e-05
2019-07-01T20:17:57.026Z,0.01092528,-0.01223241,0.9938438,0.23808289,-0.21440125,9.801956,3.187561,-15.505981,-38.879395,0.23924935,-0.21496229,9.801374,0.0012301058,-0.0018354207,0.0006198883,-7.6293945e-05,0.00021362305,-0.00016784668
2019-07-01T20:17:57.235Z,0.010886801,-0.012201854,0.9938534,0.24023438,-0.2141571,9.804352,2.9022217,-14.802551,-38.12256,0.23841664,-0.21446861,9.801405,-0.0008161515,0.0007929653,0.0008831024,0.00010681152,9.1552734e-05,6.1035156e-05
2019-07-01T20:17:57.435Z,0.01092255,-0.012201882,0.99384403,0.24047852,-0.2141571,9.800278,2.708435,-15.620422,-37.75177,0.23913099,-0.21437274,9.80139,0.0015706569,-0.00023856759,0.000910759,0.00010681152,-3.0517578e-05,-4.5776367e-05
2019-07-01T20:17:57.641Z,0.010934567,-0.012213323,0.99384105,0.23664856,-0.21679688,9.800766,3.0639648,-14.79187,-38.127136,0.23939502,-0.21456403,9.801379,0.00060522556,-0.0003055483,-0.0013160706,-7.6293945e-05,3.0517578e-05,-4.5776367e-05
2019-07-01T20:17:57.839Z,0.010896912,-0.012234963,0.99385124,0.24072266,-0.2163086,9.799332,2.3895264,-15.570068,-37.425232,0.23868783,-0.21508873,9.801385,-0.0015492588,-0.0007484108,-0.00054836273,-7.6293945e-05,0.00015258789,-0.00016784668
2019-07-01T20:17:58.039Z,0.010925206,-0.01227744,0.99384457,0.23713684,-0.21559143,9.8022,2.822876,-14.881897,-37.68158,0.23934194,-0.21584292,9.801352,0.0013939142,-0.0014388859,-0.0010070801,-1.5258789e-05,-3.0517578e-05,1.5258789e-05
2019-07-01T20:17:58.250Z,0.010860954,-0.012252908,0.99386096,0.23545837,-0.21463013,9.801483,2.5985718,-16.28418,-37.8067,0.23800676,-0.21553649,9.801392,-0.0022994876,0.00065790117,0.00076007843,0.00022888184,3.0517578e-05,7.6293945e-05
2019-07-01T20:17:58.449Z,0.010839142,-0.012228219,0.99386626,0.23857117,-0.21536255,9.801712,3.1738281,-16.177368,-37.127686,0.23751937,-0.21511249,9.801414,-0.0006181747,-1.3619661e-05,-0.0002965927,0.00016784668,0.00015258789,-4.5776367e-05
2019-07-01T20:17:58.653Z,0.010840129,-0.01221267,0.9938657,0.23928833,-0.21487427,9.804825,2.6733398,-16.271973,-38.563538,0.23750666,-0.21480583,9.80142,0.00057169795,0.00016452372,0.0010662079,-7.6293945e-05,0.0002746582,-0.00016784668
2019-07-01T20:17:58.854Z,0.01085092,-0.012214858,0.9938629,0.23953247,-0.21702576,9.803879,2.5238037,-15.988159,-38.801575,0.23772682,-0.21481952,9.801414,0.0015344322,-3.029406e-05,0.001821518,-1.5258789e-05,3.0517578e-05,-0.00016784668
2019-07-01T20:17:59.050Z,0.010868099,-0.012271314,0.9938594,0.23928833,-0.2163086,9.800995,3.0288696,-15.594482,-38.139343,0.23818791,-0.21587712,9.801379,0.0008214563,-0.0018342137,0.00057697296,0.00016784668,0.00015258789,1.5258789e-05
2019-07-01T20:17:59.255Z,0.0108961435,-0.012271343,0.9938521,0.23880005,-0.2182312,9.801727,2.4551392,-15.853882,-37.864685,0.23874846,-0.21580213,9.801369,0.0014574379,-0.0007248819,-0.00058078766,4.5776367e-05,9.1552734e-05,-4.5776367e-05
2019-07-01T20:17:59.461Z,0.010866667,-0.012313636,0.9938605,0.23664856,-0.21846008,9.803162,2.7938843,-15.542603,-37.513733,0.23824766,-0.21670851,9.801361,-0.00041770935,-0.0019738227,-0.0003938675,0.00010681152,3.0517578e-05,0.0001373291
2019-07-01T20:17:59.658Z,0.010845993,-0.01231346,0.99386585,0.23808289,-0.2163086,9.801727,3.187561,-15.505981,-38.95569,0.23783407,-0.21676071,9.801369,-0.0007254034,-0.00025328994,-0.0009059906,-1.5258789e-05,-0.00019836426,0.0001373291
2019-07-01T20:17:59.870Z,0.010863849,-0.012305475,0.9938611,0.23664856,-0.21511841,9.802444,2.7618408,-14.300537,-38.241577,0.2381743,-0.21655652,9.801366,-9.705126e-05,0.00048191845,-0.0005874634,0.00010681152,-3.0517578e-05,-4.5776367e-05
2019-07-01T20:18:00.070Z,0.010836745,-0.012285003,0.9938678,0.23808289,-0.21583557,9.801239,3.2104492,-15.1474,-37.9776,0.2375899,-0.21622922,9.801387,-0.0012206584,0.00019679964,0.0024747849,-1.5258789e-05,9.1552734e-05,0.00019836426
2019-07-01T20:18:00.279Z,0.010836849,-0.012262746,0.9938674,0.23880005,-0.21463013,9.805069,3.4622192,-14.910889,-38.017273,0.23754556,-0.21579374,9.801397,3.2559037e-05,0.0009483248,-0.0002632141,-0.0001373291,-3.0517578e-05,-0.00010681152
2019-07-01T20:18:00.479Z,0.010871881,-0.012260617,0.9938582,0.23832703,-0.21487427,9.803635,3.2348633,-14.71405,-37.28485,0.23824121,-0.2156578,9.801384,0.0017362386,0.00080890954,-0.00033664703,4.5776367e-05,9.1552734e-05,0.0001373291
2019-07-01T20:18:00.681Z,0.010854516,-0.012261622,0.9938628,0.23880005,-0.21559143,9.802673,2.3208618,-15.356445,-37.530518,0.23789628,-0.21572421,9.801391,-7.908046e-05,-7.7962875e-05,0.0007276535,-7.6293945e-05,0.00021362305,0.00019836426
2019-07-01T20:18:00.919Z,0.01086805,-0.012253984,0.9938591,0.23783875,-0.21463013,9.800293,3.1921387,-15.510559,-38.35144,0.2381508,-0.21553843,9.801389,0.0011042655,0.00045011938,-0.00031280518,4.5776367e-05,9.1552734e-05,0.0001373291
2019-07-01T20:18:01.124Z,0.010849397,-0.01223288,0.99386364,0.23617554,-0.21702576,9.803635,3.5964966,-15.103149,-40.400696,0.23773402,-0.21517603,9.801407,-0.0011156648,0.00057323277,-0.00020694733,4.5776367e-05,-3.0517578e-05,0.00019836426
2019-07-01T20:18:01.330Z,0.010834,-0.012254716,0.99386805,0.24023438,-0.21702576,9.803162,2.999878,-15.948486,-39.79492,0.23747186,-0.21564439,9.801402,0.00033982098,-0.0015870929,0.00095939636,0.00010681152,0.00021362305,0.0001373291
2019-07-01T20:18:01.490Z,0.010849074,-0.012260401,0.9938642,0.23832703,-0.21798706,9.8022,3.9077759,-15.605164,-38.778687,0.237785,-0.21571499,9.8013935,0.0012164265,-8.176267e-05,4.7683716e-06,4.5776367e-05,9.1552734e-05,1.5258789e-05
2019-07-01T20:18:01.700Z,0.010860798,-0.01231246,0.993862,0.23832703,-0.21440125,9.8033905,2.2827148,-15.930176,-39.08081,0.2381279,-0.21670131,9.801364,0.0010934621,-0.0021861196,0.0019111633,4.5776367e-05,0.00015258789,7.6293945e-05
2019-07-01T20:18:01.889Z,0.01092023,-0.012292018,0.9938461,0.23832703,-0.2131958,9.800278,3.578186,-15.542603,-40.11383,0.23927298,-0.2161414,9.801348,0.003113106,0.0003194064,-0.0009536743,0.00016784668,9.1552734e-05,1.5258789e-05
2019-07-01T20:18:02.088Z,0.0108812135,-0.01222544,0.99385524,0.23664856,-0.2141571,9.804352,3.0593872,-14.862061,-38.29193,0.23835425,-0.21494485,9.801396,-0.0014754534,0.0017616004,-1.2397766e-05,-7.6293945e-05,9.1552734e-05,0.0001373291
2019-07-01T20:18:02.293Z,0.010861427,-0.0122344345,0.99386054,0.2416687,-0.21702576,9.803146,4.0023804,-15.232849,-39.160156,0.23797762,-0.21517402,9.8014,-0.00038735569,-0.0006438345,0.00046539307,0.00010681152,0.00015258789,0.0001373291
2019-07-01T20:18:02.501Z,0.0109186815,-0.01225021,0.9938458,0.2416687,-0.2163086,9.80603,2.7313232,-15.109253,-37.64801,0.23915467,-0.21532811,9.801368,0.0027317852,-0.0004837066,0.0004682541,-1.5258789e-05,-3.0517578e-05,-0.00010681152
2019-07-01T20:18:02.704Z,0.010949097,-0.012281971,0.99383837,0.23617554,-0.21966553,9.803879,3.9382935,-14.949036,-38.494873,0.23982888,-0.21586706,9.801341,0.0013027042,-0.0008568764,0.0030317307,4.5776367e-05,4.5776367e-05,7.6293945e-05
2019-07-01T20:18:02.901Z,0.0108686555,-0.012315377,0.99385995,0.24191284,-0.21487427,9.805313,2.9037476,-16.473389,-38.68866,0.23829103,-0.21673718,9.801359,-0.0028971732,-0.0021524876,9.441376e-05,0.00016784668,-3.0517578e-05,1.5258789e-05
2019-07-01T20:18:03.102Z,0.01094729,-0.012289771,0.99383897,0.23857117,-0.21894836,9.798843,2.2644043,-16.445923,-38.42926,0.23980905,-0.21602441,9.801337,0.003208056,0.0007545054,0.0016546249,4.5776367e-05,0.00021362305,0.00019836426
2019-07-01T20:18:03.364Z,0.010900397,-0.012326787,0.99385184,0.24072266,-0.21679688,9.805313,2.949524,-15.524292,-38.571167,0.23894921,-0.21687473,9.801339,-0.0013820231,-0.0015466213,-0.003528595,-1.5258789e-05,-0.0001373291,0.00019836426
2019-07-01T20:18:03.537Z,0.010917388,-0.012328074,0.9938474,0.2349701,-0.21702576,9.802673,2.682495,-16.052246,-38.594055,0.23929149,-0.21685407,9.8013315,0.00089357793,0.00034601986,0.0005273819,-1.5258789e-05,0.00015258789,0.0001373291
2019-07-01T20:18:03.721Z,0.010859393,-0.012315274,0.9938624,0.24240112,-0.2163086,9.80603,2.4276733,-15.299988,-34.275818,0.23810568,-0.21676013,9.801363,-0.0024710447,-0.00021775067,0.00034999847,4.5776367e-05,-0.0001373291,-4.5776367e-05
2019-07-01T20:18:03.922Z,0.0109407855,-0.0123302,0.99384135,0.23712158,-0.21606445,9.801956,2.6855469,-15.90271,-38.94043,0.23976354,-0.21683246,9.80132,0.0032822937,-0.00037193298,0.0015039444,0.00010681152,-3.0517578e-05,1.5258789e-05
2019-07-01T20:18:04.121Z,0.010880445,-0.012286738,0.99385643,0.24095154,-0.2141571,9.804596,2.7648926,-16.200256,-37.646484,0.23846686,-0.21614543,9.801367,-0.0028045923,0.0010496676,-0.003780365,-7.6293945e-05,-1.5258789e-05,-0.00010681152
2019-07-01T20:18:04.324Z,0.010966871,-0.012300255,0.993834,0.23880005,-0.2172699,9.804596,3.2089233,-15.144348,-38.2782,0.24022226,-0.2161765,9.801323,0.0030612946,0.00039817393,0.0030727386,-7.6293945e-05,4.5776367e-05,-4.5776367e-05
2019-07-01T20:18:04.526Z,0.010892612,-0.012292253,0.99385333,0.23880005,-0.21440125,9.800049,2.8793335,-15.312195,-38.375854,0.23872155,-0.2162205,9.80136,-0.0026061088,-3.3661723e-05,-0.00019264221,4.5776367e-05,-7.6293945e-05,7.6293945e-05
2019-07-01T20:18:04.731Z,0.010934486,-0.012257294,0.9938418,0.2368927,-0.21702576,9.803635,3.111267,-15.589905,-37.98828,0.23948531,-0.21542397,9.801358,0.00095008314,0.0015497953,-0.0013961792,0.0001373291,0.00010681152,-0.000289917
2019-07-01T20:18:04.931Z,0.010846088,-0.012291638,0.9938655,0.23736572,-0.2163086,9.8029175,1.9805908,-15.667725,-37.882996,0.23779047,-0.2163338,9.80138,-0.002847612,-0.0021014959,-0.0012636185,-0.00016784668,0.00010681152,-0.00010681152
2019-07-01T20:18:05.134Z,0.010888394,-0.012282495,0.9938543,0.23904419,-0.21487427,9.803879,2.2644043,-14.851379,-37.1994,0.23861687,-0.21604107,9.801366,0.0013539195,0.0011982471,0.00059890747,1.5258789e-05,-9.1552734e-05,-0.0004272461
2019-07-01T20:18:05.336Z,0.010851905,-0.012264066,0.9938635,0.23736572,-0.21440125,9.799561,2.9190063,-16.331482,-37.98065,0.2378492,-0.21577904,9.801391,-0.0012260973,0.00045485795,-0.0007123947,-4.5776367e-05,3.0517578e-05,-0.00010681152
2019-07-01T20:18:05.541Z,0.010891306,-0.01224063,0.99385285,0.24023438,-0.21463013,9.801483,2.3620605,-16.000366,-38.645935,0.23858765,-0.21521465,9.801385,0.0009137541,0.0010718405,-0.00079631805,1.5258789e-05,-7.6293945e-05,-0.00022888184
2019-07-01T20:18:05.746Z,0.010867784,-0.0122056715,0.9938584,0.23641968,-0.21392822,9.803635,2.1255493,-16.098022,-37.52289,0.23804466,-0.21459453,9.801413,-0.00022059679,0.0011678338,-6.0081482e-05,-0.00010681152,0.00022888184,-0.00024414062
2019-07-01T20:18:05.943Z,0.010901584,-0.012242072,0.9938502,0.24072266,-0.2131958,9.8029175,2.9510498,-15.678406,-37.545776,0.23879604,-0.21521513,9.801379,0.0014252812,-0.00060868263,-0.00018787384,-4.5776367e-05,-9.1552734e-05,-4.5776367e-05
2019-07-01T20:18:06.145Z,0.010872296,-0.012193326,0.993857,0.23760986,-0.21463013,9.800522,2.6382446,-15.330505,-38.29193,0.23810902,-0.21434097,9.801415,-0.0010002702,0.0018876195,0.0013074875,-0.00010681152,0.00010681152,-0.00010681152
2019-07-01T20:18:06.349Z,0.010889511,-0.012218852,0.9938529,0.23904419,-0.21846008,9.805313,2.8015137,-15.397644,-37.257385,0.2385063,-0.21479368,9.801396,0.00074487925,-0.00052016973,0.0007123947,-0.00010681152,3.0517578e-05,-0.00016784668
2019-07-01T20:18:06.556Z,0.010851087,-0.012262111,0.9938637,0.23521423,-0.2141571,9.802673,1.9454956,-14.950562,-36.45172,0.23782876,-0.21574299,9.801392,-0.000496313,-0.0014967471,-0.00033283234,-4.5776367e-05,0.00022888184,-0.00010681152
2019-07-01T20:18:06.761Z,0.01084331,-0.0122320745,0.99386525,0.2416687,-0.21559143,9.80603,3.4301758,-15.565491,-38.29956,0.2376107,-0.21517667,9.80141,-3.8847327e-05,0.0008098334,0.00041294098,7.6293945e-05,3.0517578e-05,-0.0004272461
2019-07-01T20:18:06.962Z,0.01087037,-0.012240084,0.9938583,0.23425293,-0.2131958,9.801483,2.268982,-16.4505,-37.901306,0.23816814,-0.21526039,9.8013935,0.0010667741,-3.863871e-05,0.0012331009,-4.5776367e-05,-1.5258789e-05,-0.00010681152
2019-07-01T20:18:07.164Z,0.0108451,-0.012208147,0.99386436,0.24095154,-0.21536255,9.806274,2.697754,-15.913391,-37.43286,0.23759653,-0.21470399,9.80142,-0.0017064065,0.0013013482,-0.00092220306,0.0001373291,-0.00019836426,1.5258789e-05
2019-07-01T20:18:07.363Z,0.010888455,-0.012206179,0.99385303,0.23736572,-0.21559143,9.803879,3.0822754,-16.096497,-38.76953,0.23845872,-0.21454872,9.801402,0.0017101467,-0.00026659667,0.0019350052,1.5258789e-05,-1.5258789e-05,7.6293945e-05
2019-07-01T20:18:07.570Z,0.010878485,-0.012237116,0.99385613,0.24095154,-0.21655273,9.803162,3.8635254,-14.883423,-38.17749,0.23832409,-0.21518049,9.801392,-0.00078201294,-0.0017840713,0.00017166138,7.6293945e-05,-0.0001373291,1.5258789e-05
2019-07-01T20:18:07.773Z,0.010907522,-0.012238212,0.99384856,0.23568726,-0.21368408,9.801483,3.7628174,-15.402222,-37.901306,0.23890662,-0.21512362,9.801378,0.0010369718,-0.00016792119,-0.0005273819,7.6293945e-05,0.00021362305,7.6293945e-05
2019-07-01T20:18:07.974Z,0.010862034,-0.012218649,0.9938601,0.2416687,-0.2163086,9.8033905,2.7069092,-15.617371,-37.902832,0.23795682,-0.21486373,9.801408,-0.0011073649,0.0005015433,-0.0014772415,7.6293945e-05,-9.1552734e-05,0.00012207031
2019-07-01T20:18:08.168Z,0.01088384,-0.012227344,0.9938546,0.23904419,-0.21463013,9.801727,2.508545,-14.764404,-37.11548,0.23841071,-0.21497501,9.801394,-0.0015651584,0.00014327466,0.00030136108,-0.00010681152,-3.0517578e-05,0.0001373291
2019-07-01T20:18:08.370Z,0.010914882,-0.012237429,0.9938466,0.23808289,-0.21583557,9.801483,3.038025,-15.299988,-38.606262,0.23905204,-0.21508846,9.801375,0.0011517107,0.00024174154,-0.0013923645,-0.00010681152,-9.1552734e-05,7.6293945e-05
2019-07-01T20:18:08.580Z,0.010894571,-0.01225795,0.99385226,0.24095154,-0.21679688,9.8029175,3.1143188,-15.670776,-37.173462,0.23868906,-0.2155445,9.801375,-0.0011042058,-0.0007415116,-0.0004453659,-4.5776367e-05,9.1552734e-05,-0.00022888184
2019-07-01T20:18:08.784Z,0.01092712,-0.01229039,0.9938443,0.23880005,-0.21559143,9.802429,4.3563843,-14.782715,-37.573242,0.23940726,-0.21609098,9.801345,0.0020103604,-0.00068585575,-0.00029850006,1.5258789e-05,3.0517578e-05,-4.5776367e-05
2019-07-01T20:18:08.985Z,0.010900016,-0.012280913,0.9938512,0.237854,-0.21583557,9.802673,3.048706,-15.234375,-37.53662,0.23884581,-0.21597879,9.801361,-0.0012552738,0.00016069412,-0.00019836426,-4.5776367e-05,-9.1552734e-05,1.5258789e-05
2019-07-01T20:18:09.190Z,0.010896114,-0.012284639,0.9938523,0.2368927,-0.21870422,9.801239,2.7008057,-15.611267,-38.656616,0.23877563,-0.21606219,9.801362,-0.00047399104,5.468726e-06,0.0005130768,-4.5776367e-05,-0.00019836426,-0.00010681152
2019-07-01T20:18:09.391Z,0.010871126,-0.012312917,0.9938593,0.24023438,-0.21751404,9.800278,2.3101807,-15.499878,-37.934875,0.23833525,-0.21668242,9.801358,-0.0012258142,-0.0015377402,-0.0010919571,1.5258789e-05,0.00015258789,-0.00036621094
2019-07-01T20:18:09.595Z,0.010894258,-0.012328616,0.9938535,0.23928833,-0.2182312,9.801483,2.7496338,-16.490173,-37.85553,0.23883033,-0.21692705,9.801341,0.00091959536,-8.831918e-05,-8.2969666e-05,7.6293945e-05,-3.0517578e-05,-0.00010681152
2019-07-01T20:18:09.799Z,0.0108933,-0.01235754,0.9938542,0.23928833,-0.21606445,9.800049,4.168701,-15.150452,-38.923645,0.23887157,-0.21749517,9.801328,0.0004095435,-0.001202479,-0.00038433075,1.5258789e-05,9.1552734e-05,-0.000289917
2019-07-01T20:18:10.001Z,0.010910084,-0.012321683,0.9938493,0.23880005,-0.21440125,9.804108,2.3025513,-15.795898,-37.391663,0.23913214,-0.21674879,9.801337,0.0008634478,0.0006933212,0.00021266937,7.6293945e-05,3.0517578e-05,7.6293945e-05
2019-07-01T20:18:10.201Z,0.010904447,-0.012272087,0.99384993,0.2400055,-0.21463013,9.801956,3.0044556,-16.105652,-38.391113,0.23891594,-0.21579428,9.801364,-0.00058431923,0.0021060705,-0.001127243,1.5258789e-05,-3.0517578e-05,-0.00010681152
2019-07-01T20:18:10.409Z,0.010933806,-0.012255382,0.99384195,0.23880005,-0.21559143,9.800522,3.1478882,-14.863586,-37.312317,0.23946773,-0.21538843,9.801359,0.0007647425,0.00027173758,0.0005187988,7.6293945e-05,9.1552734e-05,-0.00016784668
2019-07-01T20:18:10.602Z,0.010896751,-0.012255561,0.99385166,0.23736572,-0.21606445,9.801712,2.380371,-14.041138,-37.265015,0.23872764,-0.21549192,9.801376,-0.00066046417,-0.0005583465,0.0011405945,-4.5776367e-05,9.1552734e-05,-0.00035095215
2019-07-01T20:18:10.811Z,0.010886882,-0.012266844,0.9938544,0.23857117,-0.21655273,9.801727,2.7328491,-15.034485,-37.783813,0.23855397,-0.2157391,9.8013735,-0.00024013221,-8.453429e-05,-0.0002040863,0.0001373291,3.0517578e-05,0.00018310547
2019-07-01T20:18:11.015Z,0.010861023,-0.012272296,0.99386126,0.23857117,-0.21798706,9.803162,2.7923584,-15.539551,-37.81433,0.2380486,-0.2159154,9.801383,-0.00020043552,-0.00063204765,-0.0006132126,-4.5776367e-05,0.00015258789,7.6293945e-05
2019-07-01T20:18:11.220Z,0.010879846,-0.012300758,0.9938568,0.23904419,-0.21606445,9.8033905,3.137207,-15.083313,-37.43286,0.23848416,-0.21642119,9.801361,0.00078728795,-0.0010775328,0.00086307526,-4.5776367e-05,-3.0517578e-05,-0.00022888184
2019-07-01T20:18:11.421Z,0.010869259,-0.012315423,0.9938598,0.23664856,-0.21774292,9.801483,3.4301758,-15.565491,-38.450623,0.23830317,-0.21673647,9.801358,-0.00024607778,-2.169609e-05,0.0007419586,1.5258789e-05,-3.0517578e-05,1.5258789e-05
2019-07-01T20:18:11.625Z,0.010854874,-0.012321556,0.99386364,0.23736572,-0.21487427,9.805557,2.8015137,-15.397644,-37.257385,0.23802845,-0.2168951,9.801361,-0.00068093836,-0.0008312464,-0.0006275177,1.5258789e-05,3.0517578e-05,-4.5776367e-05
2019-07-01T20:18:11.827Z,0.010831018,-0.012256641,0.9938688,0.23449707,-0.2172699,9.802444,1.8249512,-15.455627,-38.21106,0.2374163,-0.21569008,9.801403,-0.00057451427,0.0020522624,0.0027685165,0.0001373291,0.0002746582,1.5258789e-05
2019-07-01T20:18:12.030Z,0.0107741,-0.012278445,0.993884,0.23617554,-0.21655273,9.804596,2.3040771,-15.644836,-37.965393,0.23632425,-0.21626937,9.801416,-0.001623109,-0.0014368892,-0.0008773804,0.0001373291,0.00015258789,-0.000289917
2019-07-01T20:18:12.232Z,0.010773205,-0.012280661,0.9938843,0.23808289,-0.21559143,9.801956,2.859497,-15.826416,-37.876892,0.23631096,-0.21631509,9.801415,6.404519e-05,-0.0006697625,0.00036621094,0.0001373291,-3.0517578e-05,-0.00018310547
2019-07-01T20:18:12.435Z,0.01080464,-0.01227943,0.9938761,0.23760986,-0.21870422,9.801956,3.6056519,-15.110779,-39.045715,0.23693666,-0.2162066,9.801403,0.0011097044,-6.866455e-05,-0.0007133484,-4.5776367e-05,-0.00019836426,-0.00016784668
2019-07-01T20:18:12.635Z,0.010812241,-0.012296582,0.9938744,0.24023438,-0.2141571,9.801727,4.2053223,-15.939331,-40.068054,0.23712431,-0.2165215,9.801392,-1.8432736e-05,-0.0004759878,-0.0004711151,1.5258789e-05,3.0517578e-05,-0.00047302246
2019-07-01T20:18:12.840Z,0.010868734,-0.012274713,0.9938593,0.23832703,-0.21392822,9.8029175,3.3569336,-15.504456,-37.678528,0.23820774,-0.21594192,9.801379,0.0017760545,0.0013314486,-0.000787735,1.5258789e-05,3.0517578e-05,1.5258789e-05
2019-07-01T20:18:13.135Z,0.010888142,-0.012237477,0.9938536,0.23880005,-0.21511841,9.799805,3.9916992,-15.527344,-38.69171,0.23851782,-0.21516153,9.801388,0.0007456094,0.0010268688,0.0002632141,-4.5776367e-05,-3.0517578e-05,-0.00016784668
2019-07-01T20:18:13.342Z,0.010878893,-0.012242391,0.9938561,0.23809814,-0.21583557,9.801956,3.5079956,-15.637207,-38.24005,0.23834325,-0.21528253,9.801389,-2.9668212e-05,-0.00029675663,-0.0009469986,1.5258789e-05,9.1552734e-05,1.5258789e-05
2019-07-01T20:18:13.546Z,0.010867776,-0.012252741,0.9938592,0.2368927,-0.2172699,9.8022,3.0914307,-15.87677,-38.72528,0.23814273,-0.21551484,9.801389,-5.812943e-05,-6.4343214e-05,9.536743e-06,1.5258789e-05,3.0517578e-05,-0.00010681152
2019-07-01T20:18:13.752Z,0.010834115,-0.0122677,0.99386823,0.23641968,-0.21583557,9.8029175,2.241516,-15.209961,-38.102722,0.23750125,-0.21589798,9.801396,-0.0011181682,-0.00086562335,0.001917839,-4.5776367e-05,9.1552734e-05,-4.5776367e-05
2019-07-01T20:18:13.852Z,0.010833473,-0.012278198,0.9938685,0.23951721,-0.21774292,9.802673,3.1677246,-16.020203,-38.606262,0.23751032,-0.21610497,9.801392,8.5905194e-05,-0.00043533742,-0.001906395,1.5258789e-05,-3.0517578e-05,-0.00010681152
2019-07-01T20:18:14.056Z,0.010842674,-0.012302205,0.99386656,0.23713684,-0.21583557,9.799805,2.8030396,-15.322876,-37.61902,0.23774429,-0.21654959,9.801376,0.00033040345,-0.00071285665,-0.0004749298,-0.00010681152,-9.1552734e-05,-0.00022888184
2019-07-01T20:18:14.257Z,0.010855062,-0.012302667,0.9938633,0.23928833,-0.21798706,9.799576,2.9556274,-15.380859,-38.015747,0.23799282,-0.21652527,9.801371,0.00033557415,0.00021542609,-0.00079250336,1.5258789e-05,0.00015258789,-4.5776367e-05
2019-07-01T20:18:14.460Z,0.010860586,-0.012323434,0.9938622,0.23713684,-0.21343994,9.804596,3.0456543,-15.232849,-37.913513,0.23814654,-0.21691646,9.801358,0.0006570071,-0.0006007701,-0.0002040863,-4.5776367e-05,9.1552734e-05,-0.00016784668
2019-07-01T20:18:14.710Z,0.010881084,-0.012284051,0.9938562,0.2400055,-0.21894836,9.800995,2.784729,-15.684509,-37.91809,0.23847404,-0.21609119,9.801369,0.0020039082,-0.0002168715,0.00033473969,-0.00010681152,3.0517578e-05,-0.00016784668
2019-07-01T20:18:14.904Z,0.010887836,-0.012323661,0.9938551,0.237854,-0.21391296,9.802444,2.7236938,-15.252686,-37.828064,0.23869164,-0.21684745,9.801346,0.00033912063,-0.0011274368,0.0010204315,-0.00010681152,0.00015258789,0.00012207031
2019-07-01T20:18:15.102Z,0.010878823,-0.012295484,0.99385697,0.23928833,-0.21583557,9.802429,2.8625488,-15.7547,-37.9364,0.23845273,-0.21632084,9.801365,0.00010493398,0.0014588088,3.71933e-05,-0.00010681152,3.0517578e-05,-4.5776367e-05
2019-07-01T20:18:15.332Z,0.010891783,-0.012279506,0.99385333,0.237854,-0.21463013,9.800278,2.8778076,-15.388489,-37.86316,0.23867835,-0.21597348,9.801366,0.00034828484,0.00087094307,0.00034236908,7.6293945e-05,3.0517578e-05,-4.5776367e-05
2019-07-01T20:18:15.527Z,0.010871558,-0.0122536,0.9938582,0.2368927,-0.21511841,9.8033905,2.3925781,-15.41748,-38.301086,0.2382201,-0.21552147,9.801387,-0.0010798126,0.0006441027,-0.0016851425,1.5258789e-05,-9.1552734e-05,7.6293945e-05
2019-07-01T20:18:15.773Z,0.010851913,-0.012246654,0.9938632,0.23928833,-0.21583557,9.8022,2.8884888,-15.170288,-37.81891,0.23781303,-0.21543856,9.801398,-0.0006802231,9.49204e-05,0.0006351471,0.00019836426,-1.5258789e-05,7.6293945e-05
2019-07-01T20:18:15.932Z,0.010869715,-0.012241875,0.9938585,0.23976135,-0.21583557,9.8022,3.112793,-15.591431,-37.76245,0.2381588,-0.21529718,9.8013935,0.000618279,-0.000273481,0.0015392303,-0.00016784668,-3.0517578e-05,1.5258789e-05
2019-07-01T20:18:16.135Z,0.010897199,-0.012276126,0.9938519,0.23783875,-0.21846008,9.800293,3.1066895,-15.739441,-37.791443,0.23877953,-0.21589282,9.801366,0.0009302795,-0.000613302,0.0023050308,-4.5776367e-05,3.0517578e-05,-0.00018310547
2019-07-01T20:18:16.340Z,0.010897273,-0.012316943,0.9938525,0.23832703,-0.21702576,9.802429,3.1570435,-16.314697,-38.363647,0.23886624,-0.21669069,9.801346,-5.9217215e-05,-0.0015468448,-0.004840851,1.5258789e-05,-0.0001373291,7.6293945e-05
2019-07-01T20:18:16.540Z,0.010880306,-0.01232677,0.9938571,0.23857117,-0.2163086,9.802673,2.9159546,-16.331482,-37.98065,0.23854765,-0.21692857,9.801349,-0.00070746243,-0.00032876432,0.0017194748,7.6293945e-05,0.00021362305,-0.00036621094
2019-07-01T20:18:16.745Z,0.010873067,-0.01230966,0.99385875,0.2400055,-0.21607971,9.803635,2.2720337,-14.477539,-38.33008,0.23836724,-0.21661352,9.801359,0.0001937449,0.00031417608,-0.00029468536,-4.5776367e-05,-9.1552734e-05,-0.00010681152
2019-07-01T20:18:16.948Z,0.0109124705,-0.01228398,0.993848,0.23904419,-0.21606445,9.802673,3.112793,-15.745544,-36.886597,0.23910111,-0.21600516,9.801354,0.001115635,0.0006585419,0.00059604645,0.00032043457,-9.1552734e-05,-4.5776367e-05
2019-07-01T20:18:17.150Z,0.010924596,-0.012277038,0.99384475,0.23832703,-0.2172699,9.802429,2.8884888,-15.170288,-37.81891,0.23932895,-0.21583673,9.801353,0.00015194714,-0.00068326294,0.0015115738,7.6293945e-05,-3.0517578e-05,1.5258789e-05
2019-07-01T20:18:17.352Z,0.010915896,-0.012290017,0.9938472,0.2400055,-0.21606445,9.803162,2.1316528,-15.79895,-38.519287,0.23918219,-0.21611397,9.801351,-0.000651747,-0.00040197372,0.0003709793,-4.5776367e-05,-9.1552734e-05,-4.5776367e-05
2019-07-01T20:18:17.555Z,0.0109192105,-0.012292146,0.99384636,0.23832703,-0.2141571,9.800278,1.8753052,-16.256714,-37.92267,0.23925288,-0.21614666,9.801349,1.385808e-06,0.000112995505,-0.00054359436,0.0001373291,3.0517578e-05,-0.00016784668
2019-07-01T20:18:17.758Z,0.010896608,-0.0122620845,0.9938518,0.24191284,-0.2172699,9.801727,2.810669,-15.1779175,-37.438965,0.2387384,-0.21561986,9.801373,-0.00091739,0.00028710067,-5.340576e-05,7.6293945e-05,-3.0517578e-05,1.5258789e-05
2019-07-01T20:18:17.960Z,0.010972498,-0.012296007,0.9938325,0.23664856,-0.21583557,9.803635,3.6315918,-14.906311,-37.117004,0.24032584,-0.21607824,9.801323,0.003008768,-0.0011803806,-0.001786232,7.6293945e-05,-3.0517578e-05,-0.00010681152
2019-07-01T20:18:18.165Z,0.010882121,-0.012254139,0.9938555,0.23880005,-0.2182312,9.803635,1.9241333,-15.162659,-37.776184,0.2384323,-0.21550354,9.801382,-0.0036934912,0.0011044443,-0.00071430206,1.5258789e-05,9.1552734e-05,-0.00010681152
2019-07-01T20:18:18.376Z,0.010900369,-0.012337662,0.9938521,0.23976135,-0.21583557,9.801239,3.0441284,-15.078735,-38.78784,0.23897137,-0.21708745,9.801334,0.001238063,-0.0032725781,0.0017499924,-4.5776367e-05,-1.5258789e-05,0.00018310547
2019-07-01T20:18:18.573Z,0.010905288,-0.012294361,0.99385005,0.23951721,-0.21511841,9.800995,2.204895,-16.0141,-38.113403,0.23897928,-0.21622755,9.801353,0.0002604872,0.0016413629,0.0019683838,-4.5776367e-05,-7.6293945e-05,1.5258789e-05
2019-07-01T20:18:18.785Z,0.010932753,-0.012286616,0.9938427,0.2359314,-0.21679688,9.803879,2.8625488,-15.7547,-37.9364,0.23951198,-0.216002,9.801346,0.00022949278,0.0004285276,-0.002354622,7.6293945e-05,3.0517578e-05,-0.00010681152
2019-07-01T20:18:18.991Z,0.010886562,-0.01229334,0.99385494,0.24024963,-0.21702576,9.799332,3.692627,-15.113831,-38.29193,0.23860289,-0.21625803,9.801361,-0.0017163604,-0.00053323805,-0.0010929108,0.0001373291,3.0517578e-05,0.0001373291
2019-07-01T20:18:19.182Z,0.010884102,-0.0122970315,0.99385566,0.2400055,-0.2163086,9.801483,2.1118164,-16.314697,-38.020325,0.23856145,-0.21633686,9.801361,0.0004812926,-0.00045871735,-0.00041007996,7.6293945e-05,0.00015258789,-0.00016784668
2019-07-01T20:18:19.379Z,0.010897154,-0.012300902,0.9938523,0.23928833,-0.21607971,9.799561,1.9851685,-15.365601,-39.256287,0.23883036,-0.21637736,9.801353,0.0009151101,-0.00040511787,0.0011558533,-0.00016784668,-9.1552734e-05,-0.00010681152
2019-07-01T20:18:19.578Z,0.010946991,-0.012299018,0.9938392,0.24072266,-0.2131958,9.802444,2.229309,-15.426636,-38.372803,0.23982243,-0.21620604,9.801333,0.0011323094,-0.00034956634,0.0005092621,7.6293945e-05,-3.0517578e-05,1.5258789e-05
2019-07-01T20:18:19.782Z,0.010980274,-0.012250455,0.9938297,0.24095154,-0.21702576,9.805786,3.2836914,-15.211487,-38.52234,0.24038596,-0.21516657,9.801342,0.0007971972,0.0019819885,0.0013084412,7.6293945e-05,-0.00019836426,6.1035156e-05
2019-07-01T20:18:20.002Z,0.010985393,-0.012252988,0.9938284,0.23976135,-0.2141571,9.799332,3.0319214,-15.371704,-38.697815,0.24049357,-0.21520227,9.801339,-0.0005132258,-0.0006107986,0.0010271072,7.6293945e-05,-0.0001373291,-0.00016784668
2019-07-01T20:18:20.194Z,0.01099269,-0.012238872,0.99382627,0.23880005,-0.2172699,9.802673,2.9205322,-14.51416,-37.535095,0.24060982,-0.2149065,9.801342,-0.00014905632,0.00076524913,-0.000582695,1.5258789e-05,-9.1552734e-05,-4.5776367e-05
2019-07-01T20:18:20.393Z,0.01094719,-0.012260646,0.99383855,0.23713684,-0.21559143,9.7986145,2.8442383,-14.372253,-37.72888,0.2397462,-0.21545522,9.801352,-0.0018893927,-0.0020613372,-0.0016765594,0.00019836426,3.0517578e-05,-0.00010681152
2019-07-01T20:18:20.599Z,0.0109309275,-0.012251712,0.99384266,0.23880005,-0.2163086,9.803635,2.5909424,-16.351318,-38.497925,0.23940255,-0.21532448,9.801363,-0.0010665506,0.00019799173,-0.00047397614,0.00019836426,-0.0001373291,-0.00016784668
2019-07-01T20:18:20.798Z,0.010906059,-0.0122551145,0.9938492,0.2359314,-0.21343994,9.799332,2.5482178,-15.478516,-38.47046,0.23891272,-0.21545808,9.801372,-0.0013113171,-0.0008428842,0.0014429092,-0.00016784668,-3.0517578e-05,-0.000289917
2019-07-01T20:18:21.003Z,0.010878133,-0.01223276,0.99385613,0.237854,-0.21559143,9.800766,3.3248901,-16.081238,-38.700867,0.23830795,-0.21509627,9.8013935,-0.001638025,0.0011640191,-0.0023889542,-0.00016784668,-0.0002593994,1.5258789e-05
2019-07-01T20:18:21.205Z,0.010862613,-0.012237847,0.9938603,0.23904419,-0.21440125,9.80101,3.3493042,-15.496826,-38.734436,0.23800845,-0.21523753,9.801397,-0.0013498664,0.0003541708,0.0009717941,-4.5776367e-05,-9.1552734e-05,-4.5776367e-05
2019-07-01T20:18:21.403Z,0.010908516,-0.012253539,0.99384856,0.24095154,-0.21870422,9.800522,2.7175903,-15.475464,-37.34436,0.2389585,-0.21542062,9.801371,0.0017774105,-0.00018274784,-0.00030612946,-0.00016784668,-3.0517578e-05,7.6293945e-05
2019-07-01T20:18:21.619Z,0.010928648,-0.0123235965,0.99384445,0.24023438,-0.21774292,9.797653,2.6138306,-15.840149,-38.39569,0.23950718,-0.21673615,9.80133,0.00074219704,-0.0015086234,-0.00019359589,1.5258789e-05,-0.0001373291,-0.00016784668
2019-07-01T20:18:21.812Z,0.01095985,-0.012343983,0.9938366,0.24095154,-0.21463013,9.805557,2.406311,-15.205383,-37.428284,0.24017338,-0.2170505,9.801306,0.00055745244,-0.00143224,0.0005121231,1.5258789e-05,-3.0517578e-05,-0.000289917
2019-07-01T20:18:22.020Z,0.010959848,-0.012292742,0.99383575,0.23568726,-0.2163086,9.803635,2.6107788,-14.169312,-37.831116,0.24006623,-0.21604858,9.801331,-0.00055398047,0.0021401048,0.0011396408,-0.00010681152,-0.0002593994,-0.00022888184
2019-07-01T20:18:22.222Z,0.010911018,-0.012310081,0.9938488,0.23832703,-0.21751404,9.800278,2.6428223,-15.258789,-37.9776,0.23912661,-0.21651945,9.801343,-0.0024646074,-0.0005184859,-0.0014600754,-0.00010681152,-3.0517578e-05,-0.00018310547
2019-07-01T20:18:22.418Z,0.01089519,-0.012306252,0.9938529,0.23808289,-0.21559143,9.80101,3.3538818,-15.501404,-38.206482,0.23880228,-0.21648724,9.801352,-0.00073081255,-5.51641e-05,0.0020589828,7.6293945e-05,9.1552734e-05,-0.000289917
2019-07-01T20:18:22.638Z,0.010873338,-0.012302216,0.9938585,0.23713684,-0.21679688,9.802444,2.9632568,-15.235901,-37.986755,0.23835714,-0.21646723,9.801363,-0.00054048,-6.54757e-05,0.0008916855,7.6293945e-05,-0.0001373291,-0.00016784668
2019-07-01T20:18:22.833Z,0.010857227,-0.012307938,0.9938628,0.23808289,-0.21607971,9.800995,2.6229858,-15.69519,-38.064575,0.23804708,-0.2166225,9.801367,-0.0011736602,-0.00038571656,-0.00020503998,1.5258789e-05,-0.0001373291,-0.00022888184
2019-07-01T20:18:23.031Z,0.010870839,-0.012283645,0.9938589,0.237854,-0.21511841,9.801483,3.5552979,-16.358948,-38.46588,0.23826844,-0.21611087,9.8013735,0.000310421,0.00075660646,-0.002213478,7.6293945e-05,0.00021362305,-0.0004272461
2019-07-01T20:18:23.232Z,0.010876931,-0.012253303,0.9938568,0.23976135,-0.21440125,9.804352,3.0456543,-15.232849,-37.913513,0.23832685,-0.21550119,9.801385,-4.9322844e-06,0.0011045635,0.0010786057,-4.5776367e-05,-0.00019836426,-0.00010681152
2019-07-01T20:18:23.443Z,0.010893607,-0.012254849,0.99385244,0.23904419,-0.21607971,9.803162,3.0014038,-16.331482,-37.45575,0.23866332,-0.21548647,9.801377,0.00059740245,0.00039298832,0.0018415451,-4.5776367e-05,9.1552734e-05,-0.00010681152
2019-07-01T20:18:23.641Z,0.010905639,-0.012251869,0.9938493,0.2400055,-0.21440125,9.803162,4.496765,-15.209961,-37.66632,0.23889753,-0.21539575,9.8013735,0.00035011768,6.9886446e-05,0.0010652542,1.5258789e-05,-9.1552734e-05,-0.000289917
2019-07-01T20:18:23.842Z,0.01092366,-0.012235868,0.9938443,0.23904419,-0.21583557,9.800049,2.7389526,-14.962769,-37.61902,0.23922423,-0.21503428,9.8013735,0.00074730814,0.00043466687,-0.0005645752,-0.00016784668,-1.5258789e-05,1.5258789e-05
2019-07-01T20:18:24.047Z,0.010922942,-0.01226883,0.99384505,0.23976135,-0.21606445,9.801483,2.5390625,-16.001892,-36.84082,0.23927872,-0.21568069,9.801357,-2.5182962e-06,-0.0006169677,-0.0018053055,1.5258789e-05,9.1552734e-05,-0.00022888184
2019-07-01T20:18:24.369Z,0.010918218,-0.012266342,0.99384624,0.23857117,-0.21583557,9.801727,3.590393,-15.249634,-40.35492,0.23917913,-0.21564479,9.801361,-0.00012651086,4.5746565e-05,-0.0016832352,1.5258789e-05,-3.0517578e-05,7.6293945e-05
2019-07-01T20:18:24.517Z,0.010922136,-0.0122883655,0.9938455,0.23928833,-0.21774292,9.804825,3.7826538,-14.735413,-39.27765,0.23930341,-0.21606483,9.801348,-3.783405e-05,-0.00071151555,0.002544403,-4.5776367e-05,-1.5258789e-05,-0.00010681152
2019-07-01T20:18:24.659Z,0.010903946,-0.012303494,0.9938505,0.23713684,-0.21606445,9.8029175,3.1845093,-15.504456,-39.256287,0.23897153,-0.21640973,9.80135,-0.0009339005,-0.0005750358,0.0018625259,-4.5776367e-05,-0.0001373291,-0.000289917
2019-07-01T20:18:24.858Z,0.010910099,-0.012305112,0.993849,0.24143982,-0.21559143,9.801956,2.3590088,-16.148376,-38.298035,0.23909786,-0.21642475,9.801346,-0.00032907724,0.00014445186,-0.0011434555,1.5258789e-05,-0.0001373291,-4.5776367e-05
2019-07-01T20:18:25.061Z,0.010953556,-0.012284248,0.99383724,0.23832703,-0.2163086,9.801239,3.5217285,-15.26947,-38.5437,0.23992276,-0.21589954,9.801338,0.0012605488,0.00079225004,-0.0015649796,0.0001373291,-3.0517578e-05,1.5258789e-05
2019-07-01T20:18:25.258Z,0.010907828,-0.012282792,0.9938492,0.23928833,-0.21534729,9.802673,2.4795532,-15.344238,-37.835693,0.23900585,-0.21599446,9.801357,-0.0014321804,-0.00052554905,0.001982689,-0.00010681152,9.1552734e-05,-0.00030517578
2019-07-01T20:18:25.470Z,0.010920079,-0.012276297,0.9938459,0.23760986,-0.21534729,9.802444,2.3727417,-15.782166,-38.60016,0.23923714,-0.21583445,9.801356,0.00050880015,0.00050106645,-0.0017089844,7.6293945e-05,3.0517578e-05,-0.00016784668