rotationVector_x,rotationVector_y,rotationVector_z,accelerometer_x,accelerometer_y,accelerometer_z,magneticField_x,magneticField_y,magneticField_z,gravity_x,gravity_y,gravity_z,linearAcceleration_x,linearAcceleration_y,linearAcceleration_z,gyroscope_x,gyroscope_y,gyroscope_z
-0.9683769,0.24092464,0.057495836,-1.4165497,-0.8925171,-9.724426,15.493774,-15.411377,38.526917,-1.2334466,-0.29675728,-9.724244,0.11201155,-0.3299924,-0.18292141,0.33543396,0.0546875,3.1030426
-0.8517739,0.5200008,0.045474503,-1.076767,-0.4905243,-9.729218,1.8096924,-13.694763,38.4552,-1.2172197,-0.28563452,-9.726622,0.09026563,-0.25297695,-0.12129974,0.32363892,0.05883789,3.0391388
-0.634536,0.7701657,0.027712207,-1.1772614,-0.653244,-9.748352,-9.780884,-4.623413,38.285828,-1.2309617,-0.31142554,-9.724101,0.036517262,-0.32275456,-0.08616161,0.34239197,0.0569458,3.2561188
-0.3278991,0.94240266,0.0055821165,-1.0887299,-0.58384705,-9.722046,-13.504028,9.793091,36.769104,-1.2519294,-0.319927,-9.721148,0.048469782,-0.31471738,-0.06717968,0.38235474,0.057556152,3.5433502
0.030242981,0.99736696,-0.01861456,-1.0911255,-0.69392395,-9.688538,-6.034851,22.471619,36.02295,-1.2479287,-0.32662573,-9.721439,0.08552039,-0.3698641,-0.04904747,0.39505005,0.06677246,3.664917
0.38023108,0.9225935,-0.03995944,-1.2658081,-0.79681396,-9.743576,9.425354,26.716614,34.44214,-1.2292985,-0.33925182,-9.72338,0.13309538,-0.34684443,-0.05219364,0.39694214,0.06591797,3.6556244
0.6729813,0.73680615,-0.05512865,-1.1318054,-0.59580994,-9.655045,23.545837,20.368958,34.155273,-1.2227453,-0.3444797,-9.724022,0.12654626,-0.33723223,-0.015147209,0.38174438,0.06518555,3.5710297
0.87665445,0.47672385,-0.06340623,-1.1174469,-0.5766754,-9.6957245,32.28302,6.576538,35.520935,-1.2194254,-0.35524452,-9.724052,0.12925923,-0.2961249,-0.05984783,0.36419678,0.06341553,3.4238586
-0.98424405,-0.16409281,0.06541175,-1.0695953,-0.5934143,-9.748352,29.048157,-6.840515,36.546326,-1.2381083,-0.3581823,-9.721583,0.105567455,-0.29193008,-0.022040367,0.36219788,0.060913086,3.3569794
-0.9835228,0.16822417,0.059525248,-1.0839539,-0.51924133,-9.724426,16.944885,-15.313721,38.48877,-1.2438973,-0.36280513,-9.720673,0.13060653,-0.34272403,-0.02686882,0.3637085,0.062927246,3.407547
-0.88528645,0.46054286,0.046943318,-1.076767,-0.7465668,-9.446869,2.8320312,-14.283752,38.597107,-1.215448,-0.3455573,-9.724899,0.19355834,-0.2864311,-0.029200554,0.35479736,0.058044434,3.3281403
-0.7176514,0.6933842,0.03344852,-1.0911255,-0.41874695,-9.743576,-8.908081,-6.752014,38.34381,-1.2250571,-0.32576466,-9.724377,0.11723781,-0.20754835,-0.018403053,0.3276825,0.055648804,3.0414581
-0.5029787,0.8619443,0.017616995,-1.0576324,-0.5048828,-9.750748,-13.941956,5.244446,36.990356,-1.2096105,-0.3066152,-9.726933,0.14116931,-0.20259449,-0.02657032,0.30812073,0.047348022,2.887268
0.30942714,0.9489149,-0.032739945,-0.8159485,-0.36610413,-9.858429,-11.169434,17.089844,37.252808,-1.1735201,-0.2914586,-9.731819,0.17346895,-0.16792256,-0.022929192,0.29267883,0.046432495,2.7178192
0.53487396,0.842862,-0.04266993,-0.8494568,-0.35653687,-9.755539,-6.4483643,23.971558,36.271667,-1.1237574,-0.27632743,-9.7381315,0.16542554,-0.08540681,-0.019105911,0.2565155,0.04057312,2.397171
0.6752207,0.7354832,-0.046945617,-0.7920227,-0.26081848,-9.745972,-0.22277832,26.72882,34.98993,-1.0633953,-0.2717118,-9.745037,0.18614876,-0.051938504,-0.022947311,0.19975281,0.034454346,1.8558807
0.7374077,0.67335296,-0.04730261,-0.8925171,-0.27038574,-9.774673,4.107666,28.103638,35.92224,-1.0044215,-0.27395827,-9.751229,0.149598,0.009932458,-0.019164085,0.14001465,0.022125244,1.2853241
0.76944906,0.63661873,-0.04701662,-0.85902405,-0.22013855,-9.762711,9.379578,27.590942,34.017944,-0.9756356,-0.26545253,-9.754388,0.07857233,0.02251637,-0.010846138,0.082839966,0.013626099,0.7229004
0.7763881,0.6282846,-0.045572795,-0.9308014,-0.20817566,-9.762711,10.038757,27.853394,34.49707,-0.9413605,-0.25586376,-9.758011,0.07112694,0.030160278,-0.008060455,0.041793823,0.008132935,0.40255737
0.7681972,0.63833183,-0.04431877,-0.9906311,-0.090927124,-9.729218,9.475708,27.964783,33.86383,-0.93078554,-0.23830788,-9.759469,0.019774199,0.036996692,-0.00071048737,0.0068511963,0.0013580322,0.049179077
0.7655703,0.64143234,-0.044664536,-0.9571228,-0.26081848,-9.76033,8.712769,27.038574,33.857727,-0.94388694,-0.23579463,-9.758271,-0.018857896,0.008684933,-0.0025014877,-0.0052490234,-0.0020141602,-0.07080078
0.7615185,0.6462373,-0.044143464,-0.9667053,-0.21296692,-9.762711,7.8842163,27.835083,36.84845,-0.94787425,-0.21948501,-9.7582655,-0.0015241504,0.0069683194,0.00031757355,0.0005493164,-0.00018310547,0.0076446533
0.76173633,0.6459829,-0.04405606,-0.93559265,-0.21057129,-9.762711,9.228516,27.80304,33.91571,-0.9479148,-0.21656093,-9.758327,-0.0028936863,0.0047674477,-0.00033283234,0.0006713867,0.000869751,0.0062408447
0.76130325,0.64651084,-0.04376227,-0.94755554,-0.18664551,-9.753143,9.912109,26.974487,33.493042,-0.9442633,-0.21245834,-9.758772,0.0061489344,0.0028199852,-0.0009393692,0.00048828125,0.000869751,0.012466431
0.75858617,0.64969534,-0.04359211,-0.9451599,-0.22013855,-9.765106,9.135437,27.502441,34.236145,-0.9454509,-0.20885234,-9.758734,-0.0009085536,0.011625648,0.0021705627,-0.0021362305,1.5258789e-05,-0.013626099
0.75921607,0.64894503,-0.043829747,-0.9571228,-0.21296692,-9.762711,9.14917,27.720642,34.506226,-0.9485146,-0.21173231,-9.758375,-0.006433487,-0.0034319907,3.8146973e-06,0.00091552734,-0.00091552734,-0.008056641
0.7599826,0.6480203,-0.044178523,-0.928421,-0.2033844,-9.76033,8.900452,27.404785,35.357666,-0.9550607,-0.21371907,-9.757693,-0.006028831,0.0028730184,-0.00092220306,0.0013427734,-0.00077819824,0.0031738281
0.7623358,0.6452612,-0.04412505,-0.94277954,-0.22013855,-9.748352,9.870911,27.696228,34.321594,-0.95250034,-0.21257237,-9.757969,0.0040895343,0.0024585426,-0.0004196167,0.004043579,0.0007324219,0.037261963
0.7631237,0.6443434,-0.04399016,-0.9786682,-0.13877869,-9.743576,9.881592,28.067017,33.639526,-0.94899666,-0.21178862,-9.758327,0.00084781647,-0.0033532083,-0.0006875992,0.0017700195,0.0009765625,0.024871826
0.7627712,0.64475447,-0.04402407,-0.9643097,-0.17706299,-9.76033,8.078003,27.215576,33.918762,-0.9507443,-0.2111232,-9.75817,-0.00627476,0.0067497045,0.00087451935,-0.00061035156,0.00093078613,0.00024414062
0.76710004,0.639594,-0.044240154,-0.9403839,-0.2416687,-9.755539,9.794617,27.990723,33.325195,-0.95161486,-0.21195059,-9.758068,0.000111699104,-0.002476856,-0.000111579895,0.0045928955,0.0016021729,0.034332275
0.76975405,0.63640845,-0.044254653,-0.94755554,-0.24885559,-9.769897,10.188293,27.572632,34.283447,-0.9484806,-0.21329902,-9.758345,0.0051454306,-0.0030281395,-0.001156807,0.005996704,0.0006713867,0.061401367
0.10621967,0.9930979,-0.016018616,-0.9667053,-0.19142151,-9.772293,10.072327,26.757812,34.651184,-0.95056605,-0.2139083,-9.758128,-0.003899157,-0.0002963096,0.0030469894,0.0007324219,-0.0007324219,0.0103302
0.106203474,0.99310297,-0.015849715,-0.9403839,-0.23210144,-9.76033,9.924316,27.191162,33.988953,-0.9499529,-0.21066286,-9.758258,0.0013601184,0.0036064088,0.0020551682,-0.0004272461,0.0012969971,0.0004272461
0.1062103,0.99310166,-0.015930986,-0.9571228,-0.20100403,-9.772293,9.382629,27.58789,34.469604,-0.94982535,-0.21227102,-9.758236,-0.0016177893,-0.002914831,-0.00015926361,0.00018310547,0.00018310547,0.00019836426
0.106230915,0.9930992,-0.015941646,-0.94277954,-0.24885559,-9.777069,10.566711,26.933289,35.34546,-0.94988334,-0.21245547,-9.758226,0.0005886555,-0.0010526478,2.861023e-05,6.1035156e-05,0.00036621094,0.00030517578
0.10612497,0.9931072,-0.015915282,-0.9643097,-0.20578003,-9.743576,10.6414795,27.023315,33.699036,-0.951337,-0.21187827,-9.758097,-0.007262826,-0.00043195486,1.7166138e-05,0.0,0.0,-4.5776367e-05
0.1061948,0.993103,-0.015877478,-0.98583984,-0.22732544,-9.76033,10.031128,27.861023,33.36792,-0.95018876,-0.21119232,-9.758224,0.0017117262,0.00057563186,-0.0015649796,-0.00079345703,0.0005493164,-6.1035156e-05
0.105926536,0.99311924,-0.016016994,-0.9523468,-0.1986084,-9.74118,10.670471,27.528381,34.631348,-0.9545786,-0.21371807,-9.757741,-0.0063565373,-0.0007304698,0.00076007843,0.0014038086,-0.0007324219,0.00038146973
0.1060686,0.9931111,-0.015923154,-0.9260254,-0.20817566,-9.755539,9.703064,27.690125,33.569336,-0.9521858,-0.21199454,-9.758012,-0.0020863414,0.002329588,0.00090408325,-0.00048828125,0.0017852783,0.0011138916
0.10973676,0.99271876,-0.015979942,-0.9667053,-0.20100403,-9.757935,10.018921,27.566528,33.532715,-0.95011723,-0.20991172,-9.758258,0.0010846257,0.00048588216,0.00040340424,0.0022583008,0.002029419,0.030181885
0.11045416,0.99264824,-0.015988648,-0.928421,-0.27278137,-9.757935,10.173035,27.204895,34.436035,-0.94652176,-0.20981734,-9.75861,0.00439471,0.0006119162,0.00035953522,0.001953125,0.00062561035,0.021377563
0.111549765,0.99252206,-0.016031906,-0.9571228,-0.18902588,-9.762711,10.025024,27.635193,33.92639,-0.9480637,-0.2094763,-9.758468,-0.0035188794,-0.0011385232,-0.0019683838,0.0012817383,0.0005493164,0.008560181
0.11153817,0.99252397,-0.016026186,-0.98583984,-0.18664551,-9.769897,9.738159,26.521301,34.162903,-0.9478396,-0.20939979,-9.7584915,0.003045261,0.010713711,0.002688408,-0.00030517578,7.6293945e-05,0.003540039
0.11269958,0.99237895,-0.016510213,-0.9308014,-0.21534729,-9.726822,9.664917,26.585388,34.780884,-0.9436714,-0.21173376,-9.758844,-0.0038953424,-0.022134408,-0.0017967224,0.004348755,-0.0014038086,0.01210022
0.10442117,0.993307,-0.015785744,-0.9667053,-0.21296692,-9.769897,10.403442,26.92566,34.820557,-0.94551164,-0.20734273,-9.75876,-0.006091416,-0.0020708144,-0.00021457672,-0.01171875,-0.0014648438,-0.10609436
0.0776709,0.9957657,-0.014259873,-1.0121613,0.26560974,-10.076172,8.43811,26.443481,33.29315,-0.9407957,-0.20681019,-9.759228,0.005691886,-0.009075567,-0.00011444092,-0.014526367,-0.0017089844,-0.12724304
0.05549182,0.99719495,-0.013653354,-1.105484,-0.34457397,-9.762711,8.265686,27.65503,35.058594,-0.96024615,-0.21442741,-9.757169,-0.036022186,-0.025890246,0.006934166,-0.022537231,-0.006225586,-0.19088745
0.032024313,0.99826205,-0.011681983,-0.96191406,-0.3254242,-9.796219,7.1136475,27.22168,34.262085,-0.9485345,-0.19853039,-9.758651,0.018619418,0.03216125,-0.0038442612,-0.025344849,-0.003479004,-0.2602234
0.029330757,0.99826616,-0.012520648,-0.9523468,-0.27038574,-9.92543,4.8950195,27.71759,35.887146,-0.97585696,-0.21668476,-9.75557,-0.048935056,-0.04004866,-0.0016269684,-0.011779785,-0.003479004,-0.12864685
0.029205902,0.99831283,-0.011691252,-0.9762726,-0.15553284,-9.757935,7.121277,27.366638,34.516907,-0.962293,-0.20096095,-9.757254,0.02846831,0.036497906,0.0052404404,0.00079345703,0.00044250488,0.0048828125
0.09191826,0.9945075,-0.014785317,-0.91166687,-0.2368927,-9.750748,7.3791504,27.748108,34.43451,-0.95952284,-0.20217496,-9.757502,-0.0037639737,0.003479883,0.0008916855,-0.00024414062,0.0013580322,0.0030059814
0.098443225,0.9938877,-0.015326099,-0.93559265,-0.17468262,-9.745972,6.7337036,27.857971,33.650208,-0.95655257,-0.20694384,-9.757693,0.014876485,-0.010400936,-0.0025672913,0.011917114,0.0015411377,0.10964966
0.08767839,0.994916,-0.014905917,-0.93559265,-0.1651001,-9.755539,6.2591553,27.816772,34.94568,-0.94762564,-0.209616,-9.758507,0.017517269,-0.017048225,-0.0032234192,-0.0030517578,-0.001159668,-0.016540527
0.05878433,0.9970556,-0.0132233165,-1.0217285,-0.21057129,-9.755539,4.0878296,27.738953,35.473633,-0.9427946,-0.20390289,-9.759096,-0.0015321374,0.004500106,0.002257347,-0.025344849,-0.0020141602,-0.21258545
0.037226282,0.99807715,-0.011860263,-0.95474243,-0.18664551,-9.757935,2.5894165,26.545715,35.66742,-0.9506421,-0.19703753,-9.758475,-0.011930227,0.00049477816,0.0022706985,-0.027908325,-0.005554199,-0.27470398
0.016707918,0.99861354,-0.0110459905,-0.99302673,-0.22253418,-9.743576,2.2354126,27.690125,35.31189,-0.9570979,-0.2003952,-9.757776,-0.01858896,-0.01574789,0.0012769699,-0.02192688,-0.0038452148,-0.19761658
0.01203033,0.9986343,-0.0107963085,-0.9571228,-0.16749573,-9.750748,2.1575928,27.529907,36.642456,-0.9756356,-0.19973947,-9.755954,-0.04558575,0.0027665645,0.000954628,-0.015579224,-0.00010681152,-0.16896057
0.025259594,0.9983847,-0.011663511,-0.90448,-0.22492981,-9.762711,3.2913208,27.981567,35.177612,-0.9757753,-0.20384908,-9.755855,-0.0021694303,-0.013226375,0.0010499954,0.00819397,0.0009918213,0.099990845
0.03781869,0.9980263,-0.011740767,-0.9308014,-0.18424988,-9.702896,4.206848,27.029419,34.1156,-0.9627425,-0.19366905,-9.757357,0.019169807,0.01533623,-0.00046539307,0.01008606,0.0056915283,0.13475037
0.04384268,0.9978018,-0.01225651,-0.98583984,-0.20817566,-9.743576,2.6000977,26.991272,34.550476,-0.95299095,-0.19845155,-9.758218,0.021111488,-0.007403627,-0.0010166168,0.0104522705,0.0012359619,0.098587036
0.043570578,0.99780345,-0.012250352,-1.0241241,-0.29193115,-9.757935,4.5959473,26.690674,34.179688,-0.9571193,-0.19840515,-9.757814,-0.0007292628,0.0068838,0.0023851395,0.0030670166,-0.0006713867,0.0077056885
0.05024014,0.99746346,-0.012857228,-0.933197,-0.28234863,-9.755539,5.2581787,26.945496,35.186768,-0.966524,-0.20348936,-9.756783,-0.01546818,-0.0028748065,0.0009508133,0.0054473877,-0.00079345703,0.017105103
0.062159996,0.9967706,-0.013848126,-0.928421,-0.16989136,-9.755539,5.2581787,26.945496,35.186768,-0.97317594,-0.21109457,-9.7559595,0.0017493963,-0.0038704127,-0.0009031296,0.012710571,0.0001373291,0.11026001
0.06485033,0.9966307,-0.013974199,-0.96191406,-0.20817566,-9.750748,5.7754517,27.857971,34.672546,-0.9605886,-0.21180819,-9.757193,0.021048546,-0.0072198957,-0.0029802322,0.0077667236,0.0008544922,0.08979797
0.063946456,0.9966906,-0.013697637,-0.9906311,-0.25125122,-9.753143,5.8685303,26.564026,33.42285,-0.961012,-0.20721163,-9.757249,-0.005381465,0.011384502,0.0011806488,-0.0014038086,0.0006866455,-0.011291504
0.06373125,0.99669605,-0.013827025,-0.96191406,-0.19142151,-9.750748,6.1782837,27.885437,34.35974,-0.9637419,-0.20977865,-9.756925,-0.006459832,-0.0094973445,0.0003709793,0.0010375977,-0.00048828125,0.00061035156
0.06360012,0.9967033,-0.013758506,-0.8877411,-0.21296692,-9.750748,4.3533325,26.826477,33.31299,-0.96444494,-0.20851354,-9.756882,-0.0030955076,0.0014497936,-0.00016880035,-0.0018920898,0.0011138916,-0.0010986328
0.060541365,0.99691015,-0.013457524,-0.9571228,-0.18185425,-9.743576,4.748535,26.556396,34.147644,-0.9585338,-0.20589052,-9.757521,0.0059311986,-0.005032301,0.0024003983,-0.0021362305,-0.00018310547,-0.004699707
0.051294934,0.9974514,-0.012586963,-0.98583984,-0.27278137,-9.762711,4.940796,27.2995,33.763123,-0.95110524,-0.19798242,-9.758411,0.010966599,0.0120034665,-0.0065641403,-0.009338379,0.00048828125,-0.07458496
0.048517853,0.9975524,-0.012576841,-0.99780273,-0.1986084,-9.76033,4.5669556,27.853394,34.19342,-0.9658875,-0.1996739,-9.756925,-0.036637962,0.008168787,0.006638527,-0.0060424805,0.00032043457,-0.07824707
0.053134605,0.9973429,-0.012662305,-0.9690857,-0.23928833,-9.748352,4.3762207,27.03247,35.090637,-0.95609915,-0.1974554,-9.757933,0.01158011,-0.011500433,-0.0028715134,0.00093078613,0.0019683838,0.051071167
0.031339914,0.9982431,-0.012037674,-0.9379883,-0.25125122,-9.755539,3.831482,27.662659,33.95691,-0.96328115,-0.20567372,-9.757057,-0.008355558,-0.0011496395,0.0024175644,0.0058135986,0.0018920898,0.017532349
0.036338754,0.9980875,-0.012361362,-0.9690857,-0.18664551,-9.71965,5.5664062,26.753235,34.379578,-0.95738184,-0.20744745,-9.757601,0.012370944,-0.010136798,-0.002202034,0.008132935,-0.0005493164,0.08381653
0.035754874,0.9981062,-0.012295291,-0.9260254,-0.1986084,-9.757935,5.038452,27.670288,33.83484,-0.9585079,-0.20666707,-9.757507,-0.0014200807,0.0120444745,0.0016298294,-0.0007324219,0.000869751,-0.0068969727
0.037123844,0.99805105,-0.012434887,-1.0193481,-0.3254242,-9.757935,4.197693,28.479004,35.01587,-0.96025974,-0.20803249,-9.757306,0.0017747283,0.0014484525,-0.00039958954,0.0033721924,-0.00048828125,0.015274048
0.04828771,0.99756473,-0.013126052,-0.9068756,-0.23449707,-9.755539,5.809021,26.994324,33.363342,-0.96303636,-0.21080366,-9.756972,-0.0022466779,-0.016860187,0.0025892258,0.0070343018,0.0010986328,0.04373169
0.044563875,0.9977338,-0.013097078,-0.9643097,-0.1986084,-9.748352,6.7214966,27.259827,35.342407,-0.9640886,-0.21374495,-9.756804,-0.0076319575,-0.0038575977,0.000113487244,-0.0006713867,-0.0010375977,-0.02204895
0.04456259,0.99773663,-0.01297544,-0.9690857,-0.18902588,-9.765106,4.9209595,28.378296,35.41565,-0.963499,-0.2113883,-9.756914,-0.0060394406,0.007190749,-0.00018596649,-0.00030517578,0.0012817383,0.00024414062
0.04493752,0.99772954,-0.012945541,-1.0289154,-0.17945862,-9.748352,5.4275513,27.253723,34.562683,-0.95979655,-0.2106132,-9.757297,0.0030850172,-0.008631155,-0.0027866364,0.0004272461,0.0010528564,0.0050811768
0.045091853,0.9977211,-0.012779005,-0.9260254,-0.22253418,-9.765106,4.6691895,28.219604,35.01892,-0.9611411,-0.20713945,-9.757238,-0.007985413,0.019666016,0.00461483,-0.0012207031,0.00061035156,-0.004211426
0.044573348,0.9977802,-0.012542024,-0.9786682,-0.17945862,-9.755539,5.911255,27.359009,34.34143,-0.9475622,-0.20360428,-9.75864,0.021740556,-0.04770808,-0.0058107376,0.0023345947,0.0009765625,0.04031372
0.003793758,0.99882007,-0.010679791,-0.9786682,-0.22492981,-9.767502,4.9484253,27.523804,33.43048,-0.92590976,-0.20570497,-9.760674,0.03764367,0.017279625,0.0012788773,-0.03163147,-0.0021972656,-0.2507019
-0.022270275,0.9984931,-0.0090549905,-1.1365967,0.01914978,-9.7005005,3.3737183,27.911377,35.461426,-0.96214473,-0.19887841,-9.757311,-0.078175366,0.023395285,0.004137993,-0.034683228,-0.0053710938,-0.3940735
0.012754907,0.9984943,-0.010837706,-1.0887299,-0.21534729,-9.7005005,3.0593872,26.515198,34.283447,-1.0257434,-0.19917478,-9.750824,-0.15603638,0.027762815,0.015475273,0.005203247,-0.001953125,0.029937744
0.13456762,0.98951364,-0.017255677,-0.57188416,-0.50727844,-9.820145,5.5862427,27.191162,34.46808,-1.0074478,-0.2040788,-9.75263,0.05940783,-0.054686368,-0.004242897,0.092559814,0.022064209,0.91404724
0.19830146,0.9787527,-0.02022167,-0.624527,-0.22732544,-9.800995,10.327148,27.070618,34.40094,-1.001459,-0.20121954,-9.753305,0.26062548,-0.080510855,-0.023294449,0.10928345,0.0181427,1.0734711
0.1349019,0.98953015,-0.017702289,-1.1772614,-0.12921143,-9.707687,12.390137,26.55487,33.75702,-0.9812876,-0.21617237,-9.755036,0.20335841,-0.0344705,-0.017620087,-0.0048217773,0.0015869141,-0.027786255
0.083836995,0.9951427,-0.015743569,-1.1509552,-0.18185425,-9.726822,9.791565,27.610779,35.061646,-0.9849513,-0.22648598,-9.754433,-0.19422418,0.037109137,0.012710571,-0.07873535,-0.016906738,-0.8685913
0.16379464,0.9851009,-0.019452706,-0.7537384,-0.40678406,-9.767502,8.106995,27.946472,33.988953,-1.0029162,-0.2194813,-9.752763,-0.124804735,0.0066572726,0.010668755,0.021636963,0.0050201416,0.19438171
0.22009307,0.9741099,-0.021364793,-0.7657013,-0.37088013,-9.78186,12.670898,27.296448,34.654236,-0.9909087,-0.20513454,-9.754302,0.29125208,-0.06128931,-0.026431084,0.094680786,0.016860962,1.0111694
0.029454876,0.9982535,-0.012742223,-1.1557312,-0.20100403,-9.724426,7.7713013,27.48108,34.59015,-0.97843236,-0.22082776,-9.7552185,0.18807882,-0.054213956,-0.013978958,-0.02418518,-0.0043945312,-0.24177551
-0.034770306,0.9980954,-0.009487294,-1.2394867,-0.117248535,-9.74118,6.970215,27.575684,34.565735,-0.97361124,-0.21986549,-9.755723,-0.18258327,0.022113785,0.014447212,-0.09411621,-0.017089844,-0.9652405
0.006544266,0.9986389,-0.01149181,-0.89730835,-0.25125122,-9.753143,10.888672,27.108765,34.007263,-0.9896573,-0.2186098,-9.754136,-0.117486,0.026840538,0.010956764,-0.009399414,-0.0013427734,-0.09718323
0.08378909,0.99513537,-0.015283834,-0.71066284,-0.2632141,-9.724426,13.572693,27.6474,34.609985,-0.9914673,-0.21694276,-9.753989,0.06042111,-0.031772345,-0.0047750473,0.07484436,0.013137817,0.74165344
0.09208669,0.9944512,-0.015044264,-0.89730835,-0.28953552,-9.777069,11.2716675,26.620483,34.64966,-0.97480035,-0.2056795,-9.755914,0.22177207,-0.058353066,-0.018300056,0.051071167,0.011245728,0.54208374
0.0077566695,0.99868417,-0.011570025,-1.1629181,-0.17228699,-9.765106,6.814575,27.786255,34.23767,-0.968504,-0.21911918,-9.7562475,0.08913165,-0.0037680566,-0.007969856,-0.050628662,-0.008483887,-0.5040283
-0.017784785,0.99855316,-0.01025919,-1.1198425,-0.37327576,-9.755539,7.5942993,27.334595,33.13141,-0.96977353,-0.21826138,-9.756141,-0.18479109,0.047785223,0.020019531,-0.07072449,-0.012451172,-0.7277832
0.06616216,0.99646825,-0.014528767,-0.63648987,-0.34217834,-9.765106,13.114929,26.45111,34.53827,-0.9887011,-0.21955603,-9.754212,-0.14933133,-0.004521221,0.0120306015,0.037094116,0.006668091,0.32125854
0.102482714,0.9934592,-0.015243233,-0.76091003,-0.06700134,-9.724426,11.462402,27.444458,33.525085,-0.9658572,-0.2005399,-9.756909,0.34249365,-0.0634983,-0.025850296,0.08528137,0.017410278,0.9787903
-0.0032173847,0.99872917,-0.011221786,-1.2921295,-0.17945862,-9.712463,8.685303,28.20282,34.2453,-0.95968133,-0.22291043,-9.757034,0.08629084,-0.05238183,-0.010492325,-0.053863525,-0.009155273,-0.57873535
-0.023508538,0.99844164,-0.010060232,-1.2012024,-0.18902588,-9.731613,9.367371,27.145386,34.983826,-0.96671456,-0.2198776,-9.756409,-0.24573272,0.06470691,0.020363808,-0.08129883,-0.014404297,-0.8574066
0.07182979,0.996086,-0.014762691,-0.6412811,-0.32063293,-9.796219,14.233398,26.383972,34.025574,-0.9848758,-0.2188902,-9.754614,-0.12804073,-0.029585972,0.012167931,0.051376343,0.006362915,0.47636414
0.10563788,0.99313647,-0.015773393,-0.7848511,-0.23449707,-9.791428,10.653687,27.238464,34.04541,-0.9610953,-0.20849144,-9.757214,0.31791782,-0.049314454,-0.033639908,0.0872345,0.019607544,0.9553375
0.01325869,0.9986499,-0.012002439,-1.1964111,-0.16989136,-9.731613,7.507324,27.104187,33.843994,-0.95837367,-0.22240709,-9.757174,0.09075743,-0.043782264,-0.00830555,-0.04525757,-0.008239746,-0.47964478
-0.028757362,0.9983205,-0.00955753,-1.1509552,-0.1603241,-9.726822,8.181763,27.731323,34.01947,-0.961383,-0.2149885,-9.757044,-0.17567068,0.031353593,0.01577282,-0.08355713,-0.017089844,-0.852829
0.02463032,0.9983817,-0.012422893,-0.8039856,-0.22732544,-9.774673,11.273193,26.695251,34.361267,-0.9797828,-0.21923618,-9.755118,-0.15727746,0.013108268,0.015059471,0.009841919,0.0005493164,0.061035156
0.070210926,0.99625736,-0.013929654,-0.75613403,-0.21057129,-9.734009,9.289551,27.445984,33.462524,-0.9659521,-0.20546067,-9.756799,0.205329,-0.061674908,-0.02438736,0.07092285,0.013259888,0.78845215
-0.005748855,0.99872994,-0.010985156,-1.3447723,-0.15553284,-9.712463,8.444214,28.335571,33.529663,-0.9647428,-0.22508639,-9.756484,-0.2744947,0.04049845,0.02732563,-0.024856567,-0.0025634766,-0.24569702
-0.013963351,0.9986227,-0.010801201,-0.6197357,-0.19621277,-9.710068,10.646057,27.017212,34.45282,-0.9845346,-0.22677574,-9.754468,-0.15035313,-0.051619515,0.012337685,0.06829834,0.013076782,0.647583
0.16102494,0.9856961,-0.018435232,-0.74417114,-0.2416687,-9.769897,16.937256,25.61493,34.136963,-0.9513858,-0.21049516,-9.7581215,0.39436144,-0.045633823,-0.034438133,0.10684204,0.029632568,1.2023163
0.053386122,0.99734634,-0.013941244,-1.2969055,-0.20817566,-9.71965,11.198425,26.835632,34.24225,-0.94366586,-0.2229769,-9.7585945,0.17155421,-0.0577946,-0.021001816,-0.04849243,-0.009338379,-0.5020752
-0.016153354,0.99863195,-0.010413832,-1.306488,-0.31106567,-9.729218,7.661438,26.96991,33.810425,-0.94918454,-0.21937707,-9.758141,-0.34622645,-0.011141315,0.029943466,-0.115448,-0.026748657,-1.2641907
0.0614508,0.9968007,-0.014671068,-0.84706116,-0.45703125,-9.767502,9.7229,27.900696,34.89685,-0.9748332,-0.22782102,-9.755419,-0.17487979,0.06237483,0.018249512,0.011917114,0.0030670166,0.11495972
0.15929715,0.9859473,-0.018554416,-0.7034912,-0.17945862,-9.707687,14.160156,26.600647,33.61969,-0.96252894,-0.212652,-9.756983,0.14305377,-0.11788377,-0.014959335,0.1169281,0.021575928,1.1926575
0.10537902,0.993193,-0.016520506,-0.9906311,-0.16270447,-9.729218,12.731934,27.01416,33.91266,-0.94576055,-0.22509246,-9.758343,0.28082985,-0.009265438,-0.020407677,0.017166138,0.008560181,0.21002197
0.03929052,0.99797374,-0.013867038,-1.0384827,-0.105285645,-9.71965,8.120728,28.088379,34.472656,-0.9519273,-0.23437032,-9.7575245,-0.16739362,0.048822,0.0142326355,-0.08135986,-0.018508911,-0.8772583
0.09724027,0.99396425,-0.016579866,-0.8183441,-0.2871399,-9.762711,11.689758,26.712036,35.78186,-0.9674752,-0.23166785,-9.75606,-0.18034297,0.025288418,0.020484924,0.0,0.00012207031,-0.017471313
0.16790257,0.98450404,-0.019565564,-0.6628113,-0.19142151,-9.777069,15.179443,26.091003,32.94525,-0.96551245,-0.22412367,-9.756431,0.11032891,-0.04589641,-0.010007858,0.083999634,0.014846802,0.8585205
0.117880814,0.9917883,-0.017023146,-1.2059784,-0.18424988,-9.707687,13.543701,27.142334,33.98285,-0.94555604,-0.22343054,-9.758401,0.26908797,-0.023144841,-0.018689156,0.011306763,0.0057525635,0.17953491
0.048473384,0.99756944,-0.014339235,-1.0791626,-0.06700134,-9.736389,9.861755,27.552795,33.91571,-0.9519515,-0.23496181,-9.757507,-0.22005773,0.023553595,0.019487381,-0.08544922,-0.018859863,-0.95643616
0.11131844,0.9924883,-0.017195007,-0.7298126,-0.44267273,-9.7986145,12.330627,26.98822,33.924866,-0.96692914,-0.23047659,-9.756143,-0.13040888,0.03175491,0.008732796,0.0041046143,0.0019683838,0.05809021
0.1361734,0.9894703,-0.016838424,-1.1557312,-0.1483612,-9.712463,13.276672,26.61438,33.810425,-0.93891,-0.2037536,-9.759474,0.2383346,-0.09066892,-0.025294304,0.06732178,0.013504028,0.77323914
0.064452514,0.99666685,-0.015635716,-0.63648987,-0.93559265,-9.832108,11.665344,26.58081,33.792114,-0.94836044,-0.24559534,-9.757595,-0.11687106,0.11435062,0.004845619,-0.05117798,-0.008117676,-0.6388397
0.10387792,0.9933498,-0.015504532,-1.4428711,0.13877869,-9.796219,13.180542,26.09253,34.388733,-0.9506288,-0.20596564,-9.758292,0.102354944,-0.13632007,0.0060424805,0.005264282,0.0011749268,0.18154907
0.11459966,0.99212426,-0.016930522,-0.94277954,-0.107681274,-9.82254,12.315369,26.54419,34.59015,-0.965109,-0.22236465,-9.756511,-0.1654514,0.060033336,0.0013666153,0.0028686523,-0.0024414062,-0.22583008
0.09255791,0.99447924,-0.016522849,-1.3543396,-0.7513428,-9.7005005,12.588501,27.445984,33.554077,-0.93883353,-0.23769133,-9.758714,0.15105826,0.20908462,0.0015106201,0.014480591,0.0061187744,0.41197205
0.13740845,0.9892501,-0.017451959,-0.47138977,1.2897339,-9.49472,13.755798,26.498413,33.843994,-0.9567827,-0.2122453,-9.757556,-0.15105486,-0.47028777,0.006316185,0.012039185,-0.00091552734,-0.0884552
0.09652434,0.99409187,-0.016608229,-0.9906311,-1.689331,-9.76033,13.218689,26.89209,34.925842,-0.94356406,-0.23525244,-9.758316,0.05129814,0.6340163,-0.01615715,-0.016052246,0.0015869141,-0.09010315
0.108341314,0.9928751,-0.016927043,-1.1102753,0.37806702,-9.872787,12.686157,26.14441,33.058167,-0.9440969,-0.23053592,-9.758377,-0.018046975,-0.5254697,0.014922142,0.006362915,0.0005645752,0.27018738
0.117051825,0.9918472,-0.016865999,-0.8829498,-0.088531494,-9.736389,14.439392,27.342224,34.439087,-0.9621869,-0.21911906,-9.756873,-0.09062892,0.2668687,-0.004166603,-0.011291504,-0.0037231445,-0.42112732
0.14699155,0.98790586,-0.018591896,-1.2562256,-0.3900299,-9.74118,12.341309,27.281189,33.833313,-0.93936515,-0.22844446,-9.758883,0.15499449,0.0077006966,-0.0064430237,0.019561768,0.0077056885,0.37757874
0.16026358,0.98579323,-0.019653201,-0.67477417,-0.20578003,-9.743576,14.170837,26.820374,33.66394,-0.9564074,-0.2345448,-9.757082,-0.20600587,-0.06251846,0.015073776,-0.0065307617,-0.007751465,-0.20103455
0.1739711,0.98348606,-0.020123782,-0.9403839,-0.23928833,-9.736389,14.434814,25.680542,32.662964,-0.9492902,-0.23240006,-9.757829,-0.020303607,0.004480943,0.0015268326,0.0010375977,-0.0015869141,-0.016494751
0.17403574,0.98347604,-0.02009171,-0.9667053,-0.23210144,-9.738785,13.708496,27.149963,34.5047,-0.94889617,-0.23177288,-9.757882,-0.00966537,0.021084964,-0.0025663376,-0.0010375977,0.0008087158,-0.010314941
0.17523868,0.9832576,-0.019847754,-0.9714813,-0.18185425,-9.7005005,14.31427,26.542664,32.99713,-0.9523881,-0.2251832,-9.757696,-0.0054168105,0.013791189,-0.00065135956,0.0007324219,-6.1035156e-05,0.005203247
0.17756061,0.9828465,-0.019647906,-1.409378,-2.2755737,-10.695923,14.801025,26.419067,34.388733,-0.9515856,-0.21919855,-9.757911,-0.03630787,0.008841231,-0.003045082,-0.002319336,-0.02961731,0.030303955
-0.02694242,0.9872198,-0.10736102,-9.470795,-8.807983,-11.030914,13.113403,28.581238,32.556152,-2.1632075,-2.1393774,-9.322766,-0.30088186,-0.2474873,-0.4170046,0.12132263,-0.062301636,-0.5297394
-0.24759683,0.8968924,-0.12691163,-6.0634155,-3.7088776,-8.183456,5.7174683,35.43396,25.645447,-5.4308405,-3.9018853,-7.172981,-2.6023245,-3.7832534,-0.36522627,0.8629761,-2.4696655,-3.0009613
-0.31647247,0.85374004,-0.14674276,-3.0580292,-3.9361877,-5.309677,4.6783447,33.91266,24.700928,-5.562213,-4.8566513,-6.453302,0.98127365,0.476408,-1.18925,0.0013580322,-1.4878235,-1.0053711
-0.4806945,0.7803471,-0.07077516,-3.706482,-5.0153503,-6.496521,2.8625488,30.48706,27.851868,-5.3580394,-4.7948217,-6.6686945,2.8837738,1.0612683,0.044202805,-0.76026917,-0.39253235,-0.85832214
-0.72712886,0.5532287,0.13093086,-8.506485,-4.3740845,-5.4843445,3.9764404,26.020813,30.82428,-6.0426917,-4.067245,-6.5661087,2.1571069,-1.6349096,-0.051481247,-1.5992432,-1.780365,-1.8157959
-0.8544208,0.34476054,0.2622666,-10.018753,-2.6081696,-4.606186,11.791992,10.601807,36.50055,-6.3351703,-3.0347438,-6.842977,-1.8226175,-1.4124808,1.7654095,-2.7572632,-1.5016327,-2.151413
-0.7872106,0.17902158,0.52790105,-9.772293,-3.6299133,-0.100494385,19.421387,-2.218628,34.78546,-9.076814,-2.2188876,-2.9763038,-0.82780266,-0.47416258,-1.2812066,-1.6758423,-1.4993744,-1.0610199
-0.4145308,0.0011433418,0.89876574,-3.780655,-1.179657,6.439087,39.196777,-7.9574585,13.626099,-7.310452,-1.140605,6.4363575,-3.536398,-1.1197783,-5.29564,-1.4624634,-4.6661224,0.2531433
-0.1885903,0.034294356,0.9791175,-3.0341034,-0.047851562,8.420349,25.836182,-13.175964,-29.325867,-3.6671894,0.4080789,9.086011,0.5333526,-1.6435454,-2.3867388,-0.62301636,-4.833435,1.1257019
-0.21095395,0.072743356,0.9745758,-3.4743805,1.0408783,8.410767,6.9213867,-23.815918,-32.0755,-4.061159,1.306803,8.830042,0.6826918,-1.1864928,0.1656065,0.6641998,-0.33865356,0.7097626
0.12879977,-0.10607861,-0.9837941,-1.1294098,3.0317078,8.020737,-1.0192871,-23.170471,-32.97882,-2.348705,2.2126253,9.260575,-0.38104558,-1.1307094,0.036750793,0.23873901,-0.3440857,0.691864
0.081600524,-0.04885322,-0.990885,-0.03111267,-0.01675415,11.672195,-5.2871704,-18.90564,-36.61499,-1.4944558,1.1021258,9.629242,1.243104,0.9339504,-1.3422985,-0.38941956,-0.7507477,0.61502075
0.068906054,-0.043490417,-0.99455833,-1.0121613,-0.43070984,11.724838,-6.376648,-20.231628,-34.951782,-1.2887467,0.93608326,9.676428,0.51358294,-0.44813073,2.07306,-0.4515381,0.070007324,0.24771118
0.027779184,0.058277708,0.8686841,-2.383255,1.763504,8.432312,-8.045959,-21.961975,-32.821655,-0.088088445,1.260516,9.724903,-0.9569912,-1.5250921,1.4592791,-0.00579834,-0.6148834,-0.3201599
0.051640783,0.050051004,0.9073544,0.23449707,1.380661,7.858032,-10.980225,-23.11554,-31.199646,0.51243484,1.310208,9.705212,-1.5699437,-0.16392803,-1.4863071,0.4295044,-0.29748535,-0.2679901
0.041849602,0.094823584,0.91220796,1.1605225,0.65802,11.461624,-10.198975,-23.646545,-31.340027,0.011520407,2.0218968,9.595946,0.8985806,-1.0232586,-0.4008751,0.16085815,-0.17170715,0.5176544
-0.024838494,0.08448277,0.9262502,-0.17706299,0.6699829,10.27478,-5.755615,-22.673035,-34.41925,-1.0584856,1.3562484,9.654563,0.42086995,0.19139063,0.89434433,0.024932861,0.22773743,0.21026611
-0.039291006,0.11707492,0.9088433,-1.4763641,1.7276154,9.949356,-3.211975,-25.505066,-32.75757,-1.6152842,1.7798619,9.507542,0.7974168,-0.8910198,0.19038486,-0.2727356,0.8087921,0.022842407
-0.013824071,0.11700698,0.88340425,-1.0983124,1.351944,9.073578,-2.3529053,-26.40686,-31.166077,-1.2803904,1.9043425,9.534384,-0.04649484,-0.57624054,0.6779623,0.3474121,-0.09736633,-0.59809875
0.007604017,0.1049149,0.86402804,-0.8614197,1.1509552,10.372879,-2.090454,-25.878906,-31.295776,-0.88422364,1.8513604,9.589629,0.13691342,-0.8185754,0.10227108,0.26341248,-0.34965515,-0.47714233
0.0074245515,0.077942125,0.8431307,-1.105484,1.3710938,11.016556,0.24871826,-23.67096,-32.60193,-0.6904592,1.3663626,9.6864195,0.4465708,-0.5094589,0.31677437,-0.38049316,-0.18006897,-0.5585785
-0.0140451845,0.068338044,0.8221495,0.110076904,1.6630096,8.949158,0.12512207,-22.956848,-31.924438,-0.9837423,0.9463189,9.711185,0.56241494,0.07729107,0.6590624,-0.1799469,0.009963989,-0.4286499
0.011882805,0.060060535,0.80798376,1.8305054,2.108078,10.420746,-1.0147095,-23.173523,-32.299805,-0.5020077,1.0883702,9.7331295,0.514619,0.72287583,-0.24066544,0.19529724,-0.108291626,-0.27378845
0.01244747,0.06724395,0.7618603,0.830307,0.45703125,7.4201508,2.949524,-22.694397,-32.21283,-0.6635184,1.1620523,9.714925,1.2050258,-0.73720443,-1.2763958,-0.002746582,-0.28990173,-0.19969177
-0.047798384,-0.030212643,0.7298182,1.2203369,-4.2185516,9.28894,2.6519775,-16.053772,-35.531616,-0.28047606,-1.0711749,9.7439375,0.5804633,-1.1229645,-1.0136843,-0.67652893,0.009414673,-0.46536255
-0.09244441,-0.101912,0.6957632,-0.33499146,-4.0773773,11.126633,-0.3463745,-7.8948975,-32.38678,0.14759806,-2.6689205,9.43533,0.5947554,-1.6196144,0.84299755,-1.0846558,-0.31758118,-0.44189453
-0.11197844,-0.12660816,0.67613745,1.1126556,-4.141983,9.791428,2.6031494,-9.336853,-28.045654,0.2957914,-3.2539868,9.246323,-0.5512394,-1.0200737,1.6451387,-0.5765228,0.07801819,-0.5372009
-0.0651713,-0.060676195,0.70112437,0.21296692,-1.6821594,9.099899,3.6331177,-13.504028,-27.046204,-0.054277293,-1.7386694,9.651138,0.7935802,-1.1175722,0.3556509,0.4323883,-0.03236389,0.0385437
-0.01720786,-0.015485521,0.7363934,0.30389404,-0.19381714,10.00679,2.1499634,-16.45813,-25.323486,-0.043170888,-0.45186412,9.79614,0.10036318,-0.94927204,-0.13191795,0.5310974,0.0977478,0.4977417
-0.010644413,-0.0083731515,0.7371613,0.15553284,-0.14356995,9.808182,2.5924683,-19.351196,-24.494934,-0.042951286,-0.26210284,9.803052,0.1291962,0.0961228,0.38959885,0.6324463,-0.006713867,0.18785095
-0.010060154,-0.008523592,0.7369496,0.15074158,-0.1483612,9.800995,1.940918,-19.462585,-25.170898,-0.032429032,-0.25654787,9.80324,0.18553844,0.11345109,0.08643246,-0.001159668,-0.002319336,0.0004272461
-0.009509504,-0.008648606,0.73675853,0.14596558,-0.114852905,9.805786,0.84228516,-18.960571,-24.269104,-0.022740817,-0.2510636,9.80341,0.17450652,0.10573593,0.08007145,-0.0004272461,-0.0004119873,0.0004272461
-0.0016427196,-0.0124568585,0.9969073,0.13400269,-0.119644165,9.817749,1.3168335,-19.068909,-24.765015,-0.013166267,-0.24606392,9.803554,0.16573057,0.1034957,0.07493496,-0.00012207031,-0.000289917,0.00036621094
-0.0011212394,-0.012293686,0.9971534,0.15074158,-0.12921143,9.810577,0.9994507,-19.021606,-24.438477,-0.003993611,-0.24206913,9.80366,0.15806338,0.09794751,0.07553768,-0.00036621094,-0.00035095215,0.0004272461
0.0016909934,-0.010825335,0.9968129,0.1531372,-0.13877869,9.817749,0.9048462,-19.163513,-25.518799,0.049837723,-0.20902309,9.804296,0.10618524,0.06513858,0.045580864,-0.00048828125,-0.00035095215,-0.00010681152
0.003550346,-0.009845263,0.99656916,0.1651001,-0.14596558,9.805786,2.2277832,-20.246887,-24.964905,0.08524838,-0.18671869,9.804502,0.07008667,0.044224367,0.033901215,-0.00012207031,-0.000289917,0.00030517578
0.004136385,-0.008783467,0.9964876,0.08375549,-0.107681274,9.820145,1.8829346,-19.108582,-24.266052,0.0951721,-0.16491982,9.804802,0.059133887,0.020746216,0.020451546,0.00091552734,0.0017089844,-0.00012207031
0.0048006102,-0.008217099,0.996394,0.124420166,-0.12921143,9.812973,0.2319336,-18.730164,-21.401978,0.107404314,-0.15264484,9.804873,0.016225204,0.025608197,0.014625549,0.007583618,0.014175415,-0.0017700195
0.0050965557,-0.00779066,0.9963508,0.119644165,-0.117248535,9.817749,1.3442993,-20.155334,-25.437927,0.11255957,-0.143762,9.80495,0.031107627,0.008673802,0.011230469,-0.0053100586,-0.011230469,-0.0009765625
0.0060283546,-0.0078588715,0.9962183,0.1483612,-0.18424988,9.832108,2.2979736,-20.381165,-25.750732,0.1310938,-0.14334956,9.804726,0.004403904,0.012393296,0.0079956055,0.0017700195,0.0027618408,-0.0063476562
0.0056183496,-0.007296061,0.9953466,0.1603241,-0.13400269,9.765106,2.2201538,-20.08667,-26.74408,0.12340752,-0.13186428,9.804988,0.0032294393,0.0073753744,0.0011892319,0.0045318604,0.008560181,-0.06626892
0.0064758644,-0.0076939147,0.995325,0.13639832,-0.122039795,9.800995,3.1539917,-20.674133,-27.807617,0.1409146,-0.13799708,9.8046665,0.004142016,0.005621597,0.0006875992,-0.0048217773,-0.010681152,-0.030593872
0.00670502,-0.0077999015,0.9953074,0.14596558,-0.13400269,9.815353,3.5064697,-20.147705,-26.885986,0.14560969,-0.13961084,9.804575,0.0046993345,0.0012663752,0.0017843246,-0.002746582,-0.002746582,0.0008544922
0.006832171,-0.007827002,0.99529135,0.13877869,-0.13160706,9.810577,2.9403687,-20.033264,-27.745056,0.14816451,-0.1398768,9.804533,0.003560558,0.0013060421,0.0024776459,-0.0007324219,-0.001083374,0.00018310547
0.0068197707,-0.0077040647,0.99528736,0.1603241,-0.13400269,9.791428,3.4179688,-20.222473,-27.502441,0.14769748,-0.13749276,9.804574,0.0026059747,0.00034479797,-0.0017347336,0.00079345703,0.00091552734,0.00018310547
0.007009924,-0.007799216,0.9952574,0.1531372,-0.15792847,9.8033905,2.0965576,-19.371033,-26.289368,0.15162922,-0.1389465,9.804494,0.0022583455,0.0015717149,0.0003271103,-0.0006713867,-0.0013427734,0.0005493164
0.0069992063,-0.0078437105,0.99525946,0.16989136,-0.12921143,9.815353,1.3031006,-19.28711,-25.184631,0.15150096,-0.13983902,9.804482,-1.3202429e-05,0.0010183007,0.0005559921,-0.00030517578,0.0005493164,0.00012207031
-0.0056039267,-0.00392188,0.99400413,0.59820557,1.146164,11.832504,4.2282104,-18.655396,-25.102234,-0.100858204,-0.08845426,9.805732,0.34407064,-0.008874781,0.0760355,-0.00030517578,0.0050811768,0.0005645752
-0.02140397,0.046176646,0.9805064,-1.3639069,-1.7228394,9.040085,8.734131,-19.410706,-20.832825,-0.10491363,1.1778406,9.735096,0.6572425,-0.91298854,-1.3944798,0.6833801,-0.13798523,-1.26474
0.022940166,0.042576402,0.8530071,-2.7684937,-0.6460571,15.730423,16.363525,-15.220642,-25.50354,-0.050148387,0.9461243,9.760775,-1.5255889,-2.0505521,-0.16578674,0.019622803,-0.47120667,-1.9228363
0.013465203,0.00044474777,0.7754828,0.119644165,-0.021530151,9.762711,17.0578,-5.8013916,-31.013489,0.19929658,0.17346917,9.80309,-1.3183595,-0.31597543,0.6926575,-0.5550842,-0.01171875,-1.8016968
0.013367267,-0.00094984774,0.7062405,0.14596558,0.0023956299,9.676575,13.795471,2.2125244,-30.001831,0.19834638,0.17242318,9.803128,-0.34497905,-0.2115482,0.01047039,0.014251709,-0.18307495,-1.1540527
0.012114759,0.0035801637,0.9319424,0.114852905,-0.04547119,9.824936,15.316772,3.691101,-29.161072,0.19599289,0.15154663,9.80352,-0.1226998,-0.1669369,-0.0054044724,-0.007446289,-0.015686035,-0.54574585
0.010304946,0.002033719,0.95269585,4.228119,-34.9711,7.657028,7.472229,-6.3812256,-29.075623,0.18043746,0.09939197,9.804486,-0.73639154,0.05284311,-0.02555275,-0.0036010742,0.0028839111,-0.0028686523
0.21469909,0.6600171,-0.7110546,0.1268158,-0.22253418,9.815353,-11.199951,-12.145996,-28.42865,-4.452093,-8.730446,0.35856625,-5.454172,-7.2436857,9.746326,0.02432251,-0.055511475,8.324692
0.12022956,0.3894864,-0.9029257,0.13877869,-0.22253418,9.820145,-12.825012,-12.547302,-28.140259,-3.1701934,-6.5762067,6.5478063,0.41068965,0.27815664,9.290556,-0.011108398,-0.04989624,3.317337
0.0748376,0.2419456,-0.95932627,0.12921143,-0.24645996,9.810577,-11.460876,-12.449646,-29.232788,-1.9999461,-4.369276,8.548685,0.36193883,0.27381912,8.82876,-0.00036621094,-0.00035095215,-6.1035156e-05
0.05204148,0.1697931,-0.9779811,0.13877869,-0.22970581,9.839294,-12.255859,-12.513733,-27.62909,-1.3632638,-3.144993,9.188086,0.34040487,0.25744244,8.390076,-0.00030517578,-0.00010681152,0.00030517578
0.038637325,0.12932044,-0.9861551,0.110076904,-0.2536316,9.779465,-11.856079,-12.483215,-28.016663,-0.9916713,-2.4282773,9.449362,0.33459747,0.24575362,7.9662023,-0.0009765625,-0.003112793,-0.0015258789
0.038882498,0.10185457,-0.98568994,-6.4701996,0.6915283,9.698105,-16.564941,-4.1885376,-28.851318,-1.0085378,-1.871071,9.5735235,-0.3246851,0.4184379,7.57408,0.0037384033,0.008560181,0.007949829
0.083190426,0.071366034,-0.755565,0.4139557,-2.8115692,9.753143,-10.031128,14.77356,-30.319214,-2.136805,-0.0038063133,9.571021,-2.2678149,-1.2736402,7.2631474,0.01625061,-0.040008545,3.034256
0.075447105,0.027271606,-0.43128887,1.0887299,-2.3090668,9.812973,3.312683,18.365479,-31.117249,-1.118877,1.0990871,9.680419,-0.07428986,-2.4281497,6.872904,0.05027771,-0.05947876,6.0590363
0.05504958,-0.0005423517,-0.1993052,1.0073853,-0.46420288,9.765106,7.041931,17.230225,-31.272888,-0.20478319,1.0584915,9.747208,1.2511237,-2.0404902,6.5221453,0.044174194,-0.024307251,4.100403
0.04699143,0.00021183898,-0.18908338,0.057434082,-0.06939697,9.793823,7.6919556,17.193604,-30.477905,-0.17834526,0.90320873,9.763339,0.15777847,-0.39948833,6.2265177,0.0012969971,0.0096588135,0.539032
0.035272915,0.003234369,-0.23371024,0.7776642,-2.0769653,9.951752,7.5134277,16.967773,-31.196594,-0.22332393,0.65738696,9.7820425,0.3604778,-0.67426777,5.6182423,0.0050201416,0.026153564,-0.22009277
0.0275044,0.021426966,-0.5331504,-1.6247253,0.21057129,9.834503,0.7675171,18.461609,-27.972412,-0.64285004,0.23194145,9.782807,0.86318624,-1.4815776,5.335772,0.016555786,0.082717896,-1.7327881
0.02536253,0.02186447,-0.65623724,0.08135986,-0.18424988,9.7986145,-7.5393677,16.467285,-29.925537,-0.64970076,0.09356098,9.7846575,-1.3916321,0.05528149,5.0482073,0.0544281,0.025543213,-2.6228943
0.020021576,0.019330516,-0.66137236,0.01914978,-0.1603241,9.808182,-10.202026,16.363525,-30.13916,-0.5438912,0.04358719,9.791458,-0.03153658,-0.17485519,4.827725,0.008987427,-0.099121094,-0.70695496
0.017507572,0.017879307,-0.6623289,0.028717041,-0.14356995,9.800995,-9.953308,16.299438,-28.878784,-0.490013,0.024861872,9.794369,0.28347918,-0.1652128,4.579715,-0.0010375977,-0.004211426,0.00036621094
0.015377255,0.016628915,-0.66314256,-0.0143585205,-0.13639832,9.815353,-9.474182,16.25824,-28.982544,-0.44401062,0.009358654,9.796589,0.2716544,-0.15451847,4.3511825,-0.00018310547,-0.00035095215,0.00030517578
0.013311572,0.015455053,-0.6638987,0.028717041,-0.15553284,9.805786,-9.970093,16.08429,-29.525757,-0.39993232,-0.0060722805,9.798491,0.25881758,-0.14843157,4.1328516,-0.0005493164,-0.0012817383,0.00018310547
0.0040296004,0.018204411,-0.26302543,0.028717041,-0.15074158,9.8033905,-9.490967,15.968323,-29.418945,-0.36520007,-0.017676208,9.799831,0.24685967,-0.14013663,3.9291878,0.00024414062,0.00024414062,6.1035156e-05
-0.001484693,0.0102370465,-0.2553886,0.028717041,-0.1603241,9.8033905,-10.118103,16.366577,-29.689026,-0.18667608,-0.07942997,9.804552,0.1646209,-0.09514573,2.6178632,-0.00024414062,-0.00016784668,0.00036621094
-0.0041333237,0.006325495,-0.24912813,0.01914978,-0.1603241,9.808182,-9.611511,15.167236,-30.178833,-0.09995216,-0.10941749,9.805531,0.109448224,-0.063434884,1.7444487,0.0,0.0,0.00024414062
-0.0055277525,0.004132906,-0.24551687,0.023925781,-0.15553284,9.808182,-9.773254,16.896057,-29.368591,-0.05195856,-0.12499797,9.805716,0.071640775,-0.039860547,1.1628008,-6.1035156e-05,-4.5776367e-05,0.00024414062
-0.006262933,0.0029970077,-0.2436367,1.5912323,0.8518524,9.923035,-9.207153,16.784668,-28.660583,-0.027080921,-0.13345349,9.805704,0.051502906,-0.028583892,0.775053,-0.00024414062,-6.1035156e-05,0.00024414062
-0.014022014,-0.0001614865,-0.27348244,0.19142151,-1.0337067,9.951752,-11.953735,16.529846,-28.825378,0.0782588,-0.26363915,9.8027935,1.1276219,1.2054877,0.7715864,-0.03878784,-0.016235352,-0.05882263
-0.02883437,0.00521398,-0.3016376,-1.4356995,-2.8283234,9.267395,-11.566162,17.860413,-27.815247,0.073133126,-0.56978774,9.78981,-0.15526366,0.023590088,0.7367134,-0.08856201,0.011856079,-0.52388
-0.013467447,0.0056465953,-0.3601399,0.052642822,-0.29670715,9.724426,-14.955139,15.736389,-27.4292,0.010552636,-0.17394508,9.805101,-0.076382644,-0.26802397,0.6566553,-0.16790771,0.027618408,-0.43304443
-0.007247151,0.0024485432,-0.36478907,-0.21534729,0.5144501,9.887146,-13.882446,14.875793,-29.385376,0.0071381424,-0.14985985,9.805503,0.050735004,-0.016325116,0.5995846,0.057739258,-0.014831543,0.00036621094
-0.010018645,-5.606176e-05,-0.40130013,-1.1078796,-0.44267273,9.812973,-13.2247925,13.388062,-29.414368,0.07986202,-0.17953028,9.804681,0.5486168,0.06973,0.5652323,-0.0076293945,-0.015319824,-0.07714844
-0.008715998,0.0023685677,-0.48081473,0.1603241,-0.17706299,9.710068,-16.223145,12.747192,-28.741455,0.04146404,-0.17222081,9.80505,-0.48972422,-0.2244991,0.55092144,-0.017288208,0.013381958,-1.0213623
-0.0082688145,0.0023430767,-0.4808042,0.071777344,-0.17468262,9.805786,-16.523743,11.260986,-27.89917,0.037683118,-0.16429162,9.805202,0.027474348,-0.018332794,0.5209513,0.0158844,0.015335083,-0.20317078
-0.008317569,0.00234454,-0.48075822,0.06460571,-0.17945862,9.8033905,-18.104553,12.265015,-29.820251,0.038109083,-0.16514575,9.805185,0.029366545,-0.023545131,0.4880867,-0.0028076172,-0.0041503906,0.00036621094
-0.008373778,0.0021918216,-0.48069492,0.06700134,-0.16989136,9.805786,-17.184448,10.853577,-27.954102,0.041253533,-0.16467534,9.8051815,0.027237587,-0.020466864,0.46616364,0.00036621094,-0.000289917,0.00036621094
-0.008323183,0.002238327,-0.48065633,0.059814453,-0.16989136,9.815353,-17.5766,11.499023,-29.92096,0.03996948,-0.16424547,9.805193,0.027647868,-0.018805325,0.44487286,0.0008544922,0.00079345703,0.00062561035
-0.008722202,0.0019653018,-0.48056883,0.06460571,-0.17228699,9.805786,-18.507385,12.164307,-29.670715,0.048409987,-0.16853827,9.805081,0.017185569,-0.010993138,0.29341125,-6.1035156e-05,0.00079345703,6.1035156e-05
-0.008924114,0.0017834165,-0.4804531,0.059814453,-0.17228699,9.808182,-17.607117,10.6918335,-29.405212,0.053418975,-0.1703034,9.805026,0.010582831,-0.0073166937,0.19799519,-0.00018310547,-6.1035156e-05,7.6293945e-05
-0.008948493,0.0017861881,-0.48047945,0.06460571,-0.17468262,9.810577,-16.227722,11.004639,-29.850769,0.053606167,-0.17074718,9.8050165,0.008124899,-0.0062006563,0.13420486,0.00036621094,0.0011138916,0.00062561035
-0.009008956,0.00177363,-0.48051313,0.057434082,-0.16749573,9.808182,-17.915344,12.705994,-28.530884,0.054398578,-0.17166662,9.8049965,0.0039858334,-0.0042781085,0.088027,0.0006713867,0.00091552734,0.0004272461
-0.008903015,0.0007474693,-0.38337785,0.01675415,-0.13400269,9.793823,-17.89093,11.547852,-29.444885,0.053404953,-0.16688818,9.805085,-0.0049782656,0.007208228,0.050697327,0.00012207031,7.6293945e-05,0.00018310547
-0.00918185,0.0006085492,-0.38334703,0.0382843,-0.16270447,9.789032,-16.88385,10.897827,-30.978394,0.058012296,-0.1708958,9.804989,0.00849786,-0.008282483,0.04497242,0.00030517578,-0.00061035156,-0.00012207031
-0.00934583,0.0004729973,-0.38325676,0.050247192,-0.16270447,9.800995,-16.621399,11.120605,-29.35791,0.061683733,-0.17285274,9.804934,0.0014023483,-0.0010695308,0.02587223,-0.0004272461,-0.0005493164,-0.00018310547
-0.009358492,0.00043841952,-0.38321748,0.06939697,-0.15074158,9.810577,-17.350769,10.998535,-29.353333,0.062397923,-0.1728248,9.804929,0.0015922822,-0.0018952489,0.018509865,-0.0005493164,-0.0016479492,0.0006713867
-0.009313555,0.0004000462,-0.38314107,0.057434082,-0.16749573,9.82254,-17.733765,11.486816,-29.615784,0.0627411,-0.17172763,9.804945,0.0019509494,0.0032784343,0.005009651,0.00030517578,0.00038146973,0.0004272461
-0.009251883,0.0005410681,-0.38329566,0.0765686,-0.16749573,9.800995,-17.660522,11.419678,-29.933167,0.059751675,-0.17166024,9.804966,0.0058475137,0.0019206107,0.0027570724,-0.00036621094,0.00062561035,0.00018310547
-0.011149172,0.00059853157,-0.38262102,-0.028717041,-0.279953,10.013962,-17.382812,12.316895,-30.366516,0.07282342,-0.20650919,9.804205,-0.0077460557,0.021546006,0.011452675,-0.0095825195,-0.0029907227,-0.00024414062
-0.07280368,0.025766117,-0.3775304,0.062210083,-3.0508423,9.3511505,-18.019104,13.70697,-27.113342,0.07275304,-1.508432,9.6896715,0.042020097,1.1537931,0.38640594,-0.08782959,0.00093078613,-0.031814575
-0.28344822,0.10168944,-0.32862547,0.107681274,-6.9463654,6.707077,-17.759705,25.393677,-18.476868,0.041568406,-5.631976,8.028045,0.040066756,2.3362737,1.1746302,-1.7865906,-0.04348755,0.20188904
-0.44865862,0.15167694,-0.27773997,0.057434082,-8.865402,4.197006,-16.4917,32.099915,-7.347107,-0.042384516,-8.1810055,5.407378,0.093219385,1.229743,1.2281752,-2.3334503,-0.12771606,0.23249817
-0.5302715,0.17990269,-0.2640719,0.23449707,-9.662216,2.2755737,-17.248535,33.5907,0.69122314,-0.024511619,-9.099301,3.6568444,0.035445366,0.2963581,0.57338715,-1.5104828,-0.12283325,0.12156677
-0.5729854,0.20745271,-0.2677342,0.14117432,-9.521042,2.3234253,-17.163086,33.13446,3.9169312,-0.027752208,-9.476429,2.5232725,0.07744281,0.007966995,0.30617929,-0.6642456,0.17312622,-0.0715332
-0.5891718,0.23043185,-0.28010193,0.0765686,-9.662216,1.6725769,-16.381836,34.040833,6.260681,-0.026467673,-9.609368,1.9569706,0.10344786,0.060954094,0.4092195,-0.59606934,0.27012634,-0.06321716
-0.5929509,0.2331647,-0.2777847,0.047851562,-9.698105,1.7539368,-16.760254,32.70569,6.1523438,-0.05725987,-9.6314535,1.8445022,0.14684431,-0.06286621,-0.09091759,-0.1335907,0.11991882,-0.02571106
-0.5956326,0.23469754,-0.28110668,0.29193115,-10.260422,0.4905243,-18.003845,31.816101,6.77948,-0.006959948,-9.645973,1.7679207,0.023698222,-0.10213566,-0.16189814,-0.044830322,0.0026855469,0.01222229
-0.6281326,0.26052114,-0.27514586,-0.32781982,-10.466202,-0.8374939,-17.176819,31.851196,9.243774,-0.082872294,-9.7785635,0.7370324,0.38373294,-0.07931614,0.18051106,-0.06956482,0.1577301,0.0065460205
-0.6406829,0.26588595,-0.27327785,0.026321411,-9.846466,0.29910278,-18.405151,31.407166,9.127808,-0.041462827,-9.799606,0.36932105,-0.19740981,0.00921154,0.5063865,-0.72203064,0.06402588,-0.042877197
-0.6375986,0.2643916,-0.27442703,0.057434082,-9.815353,0.29910278,-17.427063,31.692505,9.069824,-0.040025998,-9.7956705,0.46218958,0.10002452,-0.053534508,-0.1367889,0.07366943,-0.0014038086,0.0041046143
-0.63590956,0.2632128,-0.27561802,0.04067993,-9.927826,0.50727844,-18.707275,31.900024,8.711243,-0.02693882,-9.792998,0.51657635,0.0726042,-0.04860878,-0.16296005,0.018692017,-0.0017700195,0.00030517578
-0.63447905,0.262354,-0.27652755,0.18664551,-9.772293,0.2632141,-17.373657,31.265259,7.850647,-0.018814808,-9.790568,0.5610726,0.06162654,-0.048916817,-0.06541395,0.070739746,0.00079345703,0.0020141602
-0.48835957,0.44033462,-0.5044785,0.06460571,-9.466003,1.7204437,-17.60559,32.00226,5.1376343,-0.00055835885,-9.716581,1.3260621,0.06420214,-0.110274315,-0.91132045,0.043014526,0.00012207031,-0.0060424805
-0.29030842,0.26852936,-0.63057,-0.8159485,1.3184509,15.086746,-16.807556,21.678162,-19.876099,0.073124066,-7.123604,6.739385,-0.0036112517,-1.9201002,-4.5940247,1.3329315,-0.0026245117,-0.018081665
-0.038862936,0.0776049,-0.688026,-0.8159485,-1.0241241,10.45903,-15.579224,14.537048,-28.553772,-0.5721955,-1.596406,9.658907,-0.9694183,0.33345723,0.06464386,6.0848846,0.9232178,0.045578003
-0.05584698,0.0514623,-0.70055926,0.03111267,-1.5457611,9.712463,-18.522644,12.025452,-30.982971,0.051180344,-1.4842985,9.693536,0.13083583,-0.16625714,-0.18695354,-0.39424133,-0.8460541,-0.20848083
-0.054833934,0.050402533,-0.7001615,0.04547119,-1.557724,9.71965,-17.062378,13.935852,-29.522705,0.051039994,-1.4558345,9.697852,0.017030798,-0.08995569,0.122198105,-0.0026855469,-0.05117798,-0.005554199
-0.059922557,0.055130664,-0.7004191,0.07896423,-1.9573364,9.530609,-18.624878,14.692688,-27.71759,0.056472577,-1.5907166,9.676612,-0.004175961,0.0144610405,0.1522665,-0.0043945312,-0.0014038086,0.008010864
-0.083760425,0.07765197,-0.6939502,0.1268158,-2.0315094,9.805786,-18.499756,15.873718,-28.689575,0.05731597,-2.2247837,9.550782,0.016987856,0.19447708,0.11347294,-0.2809906,-0.006958008,0.032562256
-0.08412024,0.07739153,-0.68528533,0.19142151,-2.354538,9.451645,-19.14978,15.454102,-27.163696,0.038885884,-2.2268672,9.550389,-0.017210964,0.087335825,0.19785786,0.041549683,-0.018005371,0.10971069
-0.07765581,0.0744005,-0.697963,0.20100403,-1.9525452,9.652649,-18.681335,15.12146,-27.175903,0.02989844,-2.0968595,9.579805,0.08739452,-0.25351787,-0.06368446,-0.1902771,0.03929138,-0.15870667
-0.05935231,0.054179635,-0.69420534,-0.22013855,-1.7108612,9.867996,-18.450928,13.174438,-27.957153,0.04803806,-1.5703413,9.679986,0.017256476,-0.34553182,0.01872158,0.21986389,-0.001159668,0.024429321
-0.05038854,0.043819655,-0.68393505,0.12921143,-1.3974152,9.729218,-18.701172,14.683533,-27.339172,0.051551018,-1.3057767,9.719192,-0.016173467,-0.18233645,0.12983608,0.29048157,-0.05001831,0.23695374
-0.04999298,0.042226933,-0.6789381,0.026321411,-1.3184509,9.774673,-18.00232,14.376831,-28.639221,0.060069826,-1.2793365,9.722658,0.038278617,-0.04906273,0.08162308,0.02230835,-0.0051879883,0.025527954
-0.049737234,0.040560205,-0.66394997,0.55752563,-1.1581268,9.824936,-18.579102,14.047241,-28.68042,0.055014595,-1.2549584,9.725864,-0.047412645,-0.105736494,0.06595802,0.01852417,-0.028274536,0.21588135
-0.052466698,0.04741529,-0.7044611,-0.0023956299,-1.7276154,9.430115,-19.38324,14.067078,-28.796387,0.068167254,-1.3818506,9.708565,-0.072721004,0.058492303,0.14115429,0.018753052,0.025970459,-0.25723267
-0.05735454,0.05467281,-0.7122543,0.093322754,-1.7419739,9.757935,-17.971802,13.1362915,-28.060913,0.053354096,-1.548313,9.683505,0.17690627,0.19430363,0.052277565,-0.21543884,0.12866211,-0.4814148
-0.07026196,0.060158826,-0.70786285,0.086135864,-2.3330078,9.114258,-18.951416,14.369202,-26.409912,0.14922911,-1.8002332,9.638842,-0.17499797,-0.19996297,0.056415558,-0.021118164,-0.07157898,0.072753906
-0.09362318,0.04927436,-0.71316326,0.5407715,-2.3593292,9.257828,-21.313477,13.6276245,-26.164246,0.6398458,-1.9616939,9.587113,-0.45061576,-0.03802073,0.27055073,-0.2669983,-0.011779785,-0.01637268
-0.07115729,0.047307488,-0.7440339,1.426117,-1.1509552,9.207581,-20.783997,9.518433,-27.851868,0.42354673,-1.6151776,9.663446,0.3385927,-0.5279993,0.22176552,0.15309143,-0.22589111,-0.4139862
-0.064936355,0.01733075,-0.7471266,0.107681274,-1.174881,9.985245,-19.316101,11.956787,-28.851318,0.7267764,-1.096169,9.718056,0.20068163,0.008014679,-0.400568,-0.052520752,-0.05557251,0.14501953
-0.067736425,0.015909404,-0.53412765,0.052642822,-1.8400879,10.607376,-19.796753,11.769104,-27.357483,0.44670585,-1.286005,9.711696,-0.100308,-0.052499533,-0.04826832,-0.065597534,0.016082764,-0.23054504
-0.040215448,0.02209734,-0.53574175,0.48095703,-1.9094696,9.800995,-18.243408,12.309265,-27.388,0.057154607,-0.89721996,9.765353,-0.069751665,-0.7742795,0.6274595,-0.073776245,0.17526245,0.0488739
-0.05105582,0.03940819,-0.5312882,-1.0624084,-0.72024536,9.765106,-15.80658,9.877014,-31.381226,-0.12089694,-1.2565382,9.725064,0.31391627,-0.6798471,0.06496334,0.23739624,0.24960327,0.19889832
-0.053912148,0.056112736,-0.52257603,0.29670715,-0.107681274,9.439682,-16.430664,10.426331,-31.924438,-0.38184035,-1.472889,9.687889,-0.5736085,0.6486244,0.08864689,-0.32826233,-0.09828186,-0.14416504
-0.038900033,0.071321756,-0.48491678,-0.20578003,-1.4787598,9.049652,-13.604736,11.3723755,-35.923767,-0.8481222,-1.342696,9.677202,0.9038177,0.96379054,-0.42482567,0.10623169,0.38705444,0.5434265
-0.050915033,0.06682887,-0.5042845,-1.3304138,-1.8903351,9.908676,-15.52124,11.453247,-34.469604,-0.6229145,-1.5192311,9.668211,0.23409045,0.021986127,-0.09355736,-0.119903564,-0.10298157,-0.07849121
-0.055115867,0.069212064,-0.50777644,-0.44984436,-1.1940155,8.274384,-14.187622,12.184143,-32.714844,-0.61435914,-1.6156435,9.653116,-0.44322348,-0.30563664,0.5871668,-0.06364441,0.022125244,-0.17567444
-0.061556518,0.06646137,-0.50851744,-0.45703125,-1.9453583,11.05484,-13.305664,12.321472,-33.706665,-0.5022284,-1.6966674,9.645698,0.071234345,0.18818998,-0.58979416,0.091156006,-0.0814209,0.04600525
-0.0655878,-0.0033177054,-0.53336537,1.4045868,-0.73220825,11.2582245,-16.903687,10.609436,-31.791687,0.7409942,-1.0501498,9.722063,-0.9515356,-0.68894434,1.4278374,-0.059249878,-0.24378967,-0.22894287
-0.039177835,-0.17148972,-0.52784324,3.5796661,1.3878326,8.745773,-23.208618,4.0496826,-29.472351,3.2004006,1.1369008,9.199744,-1.721956,-1.8344829,0.8135071,0.70428467,-0.9899597,-0.1360321
-0.2269916,-0.47933406,-0.4651684,-0.22013855,1.4380798,-8.705093,-37.052917,1.335144,-4.914856,8.7341795,1.2177874,4.2896976,-3.643361,-0.11075997,4.1160345,0.8798981,-1.9771271,0.11001587
-0.43500626,-0.86117244,-0.080190055,-0.41874695,-1.1868439,-8.049454,-5.163574,7.28302,37.1994,4.914247,-0.7823028,-8.450359,-0.51965237,0.8265681,3.5019293,0.99780273,-7.6852264,0.44825745
0.34059882,0.8894234,-0.033149116,-16.835907,3.7567291,3.287735,33.87909,3.7506104,18.945312,-5.5074444,1.445968,-7.9842105,3.5285802,-0.6168816,-1.1248388,-0.9121399,-5.7563934,0.65405273
0.0011104158,0.3389254,0.5061729,-0.6699829,11.514267,17.639893,8.531189,-9.805298,-39.105225,-5.260687,3.3820283,7.553638,-8.198627,0.65395284,-3.994267,-0.9767761,-7.971054,-0.6021271
0.051091347,0.19576712,0.49485964,3.3212433,-0.87815857,19.759933,-18.16864,-11.817932,-36.532593,-2.7489607,2.7469227,9.0037775,0.9167502,4.24084,0.4457693,1.8973694,-6.496475,2.2762299
0.16613673,-0.4223048,0.3339364,12.136398,-2.273178,-5.7140656,-23.182678,-6.2973022,-29.766846,7.931056,-0.07388513,5.7674327,-3.7333307,4.357021,5.542222,-2.2525787,-1.3879395,-1.0910034
0.28365415,-0.9014767,0.2826324,0.01675415,-1.9501495,-10.947159,-21.235657,10.18219,33.314514,4.4776187,-4.083061,-7.7103777,3.5795496,1.9614198,1.3760543,-1.2785492,-10.58728,1.3079376
0.32091293,-0.9226135,0.21399683,-5.206787,-1.277771,-15.438492,13.793945,12.269592,36.30371,1.3857703,-3.858869,-8.908376,-1.5478003,-0.6155727,-5.3147397,0.13917542,-4.441742,1.5505066
-0.34113792,0.8696754,0.2239076,-9.224335,2.7684937,-4.6205444,32.61261,7.208252,22.723389,-6.236074,1.9607375,-7.310081,-1.2319055,-1.831708,-4.892599,-0.9337616,-3.2782288,-0.6590576
-0.33724666,0.8003218,0.26007217,-14.969498,-5.058426,-1.0887299,40.989685,-2.3834229,6.0028076,-8.344891,1.2907923,-4.986688,-2.8558736,2.3119283,-0.58336496,-2.7048645,-2.0063324,0.35113525
-0.1144767,-0.32966083,0.022450862,3.012558,-8.310272,7.932205,-3.6651611,14.595032,-27.972412,6.00711,-2.248671,7.4181194,-10.663669,-3.0698493,5.9476714,0.6596222,-8.99884,-2.863266
-0.048871223,-0.30805886,0.40730235,3.0269165,-4.43869,6.690338,-24.003601,21.366882,-22.514343,4.795965,-3.283721,7.8984985,2.319551,-5.079964,5.5147867,-0.45552063,-3.9675293,-0.34239197
-0.093097225,-0.014006115,0.37865424,-4.9531403,-0.5001068,7.2646027,-5.567932,20.211792,-35.057068,-0.43846908,-1.7852337,9.6328125,1.9233068,-2.9471996,4.5647497,1.1233978,1.3989563,1.0902252
-0.09796266,0.1278828,0.3374713,-3.3427734,-2.5435638,9.643082,4.8721313,16.549683,-37.438965,-2.9746397,-0.93552774,9.297671,-3.9442391,-0.08194393,4.216959,1.2014008,2.778183,-0.42533875
-0.09538428,0.11414988,0.30187234,-6.6017914,-1.3710938,6.7046967,0.012207031,16.847229,-33.102417,-2.6730094,-1.0858303,9.372641,-3.0298119,-1.569318,5.877531,-0.19863892,-0.17799377,-0.12541199
-0.12634332,0.1680367,0.29701185,-4.101303,-2.0243225,7.9202423,4.1015625,12.664795,-32.00836,-3.8058038,-1.3292453,8.939763,-4.502363,-0.5615245,4.249648,0.401474,0.61839294,-0.41062927
-0.15789817,0.11464921,0.32021442,-4.919647,-1.249054,7.2430725,3.4805298,16.358948,-30.389404,-3.0762413,-2.1508765,9.05985,-2.9634576,-0.7075118,4.459592,-0.4139099,0.06347656,0.36328125
-0.15217544,0.084095895,0.33595234,0.7034912,-3.8237305,13.237091,-0.5371094,16.610718,-31.459045,-2.5295398,-2.2087607,9.213751,-4.3507795,-0.42917657,4.053144,-0.28733826,-0.59277344,-0.09388733
-0.10409689,0.16803877,0.35431877,-3.878769,-3.2686005,9.808182,3.0715942,16.340637,-31.5094,-3.7357435,-0.6983245,9.040296,-0.7093246,-1.6239002,4.466671,0.029327393,-0.20982361,0.8187561
-0.10024592,0.0077745346,0.37614948,-0.3397827,-1.8161469,8.097305,-7.5927734,18.449402,-28.378296,-0.88001895,-1.7536422,9.608366,-3.5360527,-1.0578475,4.5751586,-0.17182922,-0.9162903,-0.5704346
0.34449822,-0.62842417,0.38769677,-7.795822,3.0149536,-3.768692,-19.351196,18.780518,-21.484375,9.765104,-0.8614085,-0.26666176,-0.8698578,-0.72819746,8.835065,1.2807007,-4.6000824,0.5027466
-0.504492,0.86086607,0.03604111,-6.8004,-3.1537476,-4.4865417,-31.161499,15.34729,9.939575,-1.2964715,0.057752527,-9.720402,-1.5544875,2.079122,-5.2183404,-0.5634613,-10.54837,-0.3907776
-0.23730353,0.55647504,0.4162912,3.7208405,-8.793625,22.124039,18.841553,12.757874,29.638672,-9.3458185,1.3843453,2.6286247,-2.3495443,-1.1239493,-8.794156,0.5890045,-7.330063,2.144455
-0.08059632,0.059559707,0.44303924,1.9716797,-1.1652985,11.349152,-22.05658,16.290283,-24.29657,-1.7410349,-0.89073074,9.609671,-2.1568432,-1.5042382,6.071879,-1.9117126,-9.44606,-1.552887
0.25267878,-0.26604748,0.5070518,1.2897339,1.2681885,4.881363,-31.28357,12.879944,-1.9607544,6.5825415,1.219332,7.1661544,-0.5181868,-2.2886066,7.999025,1.3464203,-2.370285,0.4575348
0.6171744,-0.7762941,-0.0048592035,-3.2973022,0.8829498,-19.377075,8.666992,14.819336,33.869934,1.8933738,1.6260304,-9.483751,-4.2445655,-0.015809655,-4.036145,1.5494843,-7.38797,-0.20874023
-0.55098456,0.773446,0.07888033,-9.272186,-3.5030975,-4.508072,30.456543,23.571777,3.6514282,-5.453046,-2.080768,-7.8806777,-0.8115878,0.37779456,-4.1901054,1.9413605,-8.552109,0.10446167
-0.3793314,0.3421512,0.49598473,-0.49771118,-2.5459595,4.508072,6.663513,29.891968,-18.475342,-8.4021435,-1.8956741,4.6883683,-6.4689493,-2.0525913,-3.1171284,1.4788055,-4.7683105,0.0017700195
-0.12835114,-0.092654236,0.64063793,6.5850525,-4.9866486,6.886551,-16.80603,29.153442,-11.698914,-0.24734339,-3.055639,9.315165,-2.041363,-3.9500384,4.234727,-2.3994904,-9.862183,0.31533813
0.09833416,-0.2938741,0.61458176,7.647461,-6.1423798,4.692322,-23.739624,27.618408,-4.9316406,5.3666167,-2.143234,7.9231534,3.2531407,-2.7920115,3.5985081,1.0485687,-3.7102966,-0.26976013
-0.09967532,-0.47795033,0.011824771,6.714264,-0.7728882,3.4121704,-28.260803,23.136902,7.7804565,8.157105,-1.816812,5.131395,5.1964374,-3.6498413,2.312784,-0.93052673,-1.3897858,-0.102874756
-0.113986,-0.42456767,-0.0054613966,8.396408,-2.177475,4.2137604,-29.667664,22.702026,5.1071167,7.491475,-1.9625212,6.0163703,4.2508664,-0.4073655,0.710377,-0.64671326,-0.40805054,-1.0434875
-0.10019991,-0.44470575,0.010581312,8.762512,-1.8257294,3.677765,-28.337097,22.218323,3.2928467,7.741842,-1.8413482,5.7309427,5.141168,-1.2468694,1.344965,0.27563477,0.6291504,-0.011550903
-0.09134471,-0.4401614,0.015203767,8.360519,-1.8352966,4.134796,-29.969788,21.751404,2.734375,7.683177,-1.7313621,5.843078,4.985182,-1.0274782,1.1912656,0.09396362,-0.023147583,-0.050750732
-0.055808913,-0.40511197,0.015596214,8.487335,-0.9020996,3.5748749,-30.688477,19.648743,-5.0613403,7.2327075,-1.1226629,6.5267115,4.591397,-1.2612878,0.9047065,0.107940674,0.2973175,-0.087768555
-0.0082047805,-0.13559434,-0.015813371,4.5918274,-0.14596558,9.88475,-25.413513,17.475891,-17.953491,2.6370096,-0.11735592,9.444723,2.8955882,-0.066582195,3.9034758,0.36488342,0.8377533,-0.42967224
-0.0020458119,-0.108424515,-0.015888823,2.7302094,-0.2033844,10.128815,-23.417664,16.113281,-22.543335,2.114389,-0.0060948185,9.575997,2.0447671,-0.0660312,3.6396942,0.06866455,0.61001587,-0.11715698
-0.0028254353,-0.0682204,-0.010918699,2.0315094,-0.124420166,9.401398,-21.606445,15.594482,-24.758911,1.3354298,-0.04067396,9.715214,1.8298573,-0.059659194,3.5685968,-0.045928955,0.3546753,-0.037261963
-0.0046743685,-0.05481074,-0.007897915,1.9238281,-0.33499146,10.4231415,-18.424988,16.838074,-26.071167,1.0740823,-0.083047695,9.747299,1.331774,-0.058977135,3.527101,-0.011230469,0.2700653,-0.004638672
-0.0022220798,-0.22880754,-0.010073275,2.6799622,1.4644012,3.4528503,-17.274475,15.449524,-25.419617,4.3688145,0.0027817772,8.77974,-0.9859059,-0.21429724,5.566545,0.01411438,0.15156555,-0.0020141602
0.18341254,-0.82073855,0.09051599,5.436493,-2.273178,-11.5334015,-28.314209,15.292358,3.7704468,8.912559,0.4618746,-4.064894,-0.7316117,-0.6572008,3.0381453,0.8734894,-7.258957,0.16836548
0.12221522,-0.9836024,0.048972644,-12.335007,3.9912262,5.108673,-12.55188,23.814392,26.908875,2.4951556,-0.64932126,-9.461658,2.4685228,-0.8878682,-1.7018323,1.9103851,-4.8748474,0.7625427
-0.11666001,0.7932003,-0.24045314,-5.414963,-5.9485626,4.7114716,20.404053,21.04187,18.196106,-7.9624524,-4.9927917,-2.8003151,-0.4961338,-1.5315771,-6.4500713,-0.6183777,-4.9581146,1.3668213
-0.25164533,0.41093352,-0.33691236,-2.2157593,-6.0155487,15.893127,12.210083,23.529053,-24.757385,-4.856575,-6.707773,5.252604,-4.8489017,-2.7673004,0.59934616,3.4809875,-6.9342194,-1.3432312
-0.16042858,-0.26725972,-0.12407054,3.6562347,10.222137,10.365707,-22.335815,16.151428,-18.12439,5.3284254,-2.3138058,7.9009223,-5.4007525,-4.147607,2.2118864,1.735611,-5.582367,0.5844879
0.16802663,-0.5239052,-0.03732566,0.105285645,1.8089752,-10.463806,-34.236145,4.9865723,-5.8624268,8.448868,3.1327083,3.8695147,0.5538554,-2.3209023,6.6748857,4.151428,-3.7198792,-1.1448212
-0.46907848,0.8823458,0.016311923,-7.944168,-6.4821625,3.768692,-6.4331055,12.690735,28.469849,-0.74080575,-0.03176002,-9.778578,-1.4250765,1.2510775,-7.258456,4.2575836,-8.430298,0.25167847
-0.47775665,0.6913772,-0.18540514,0.5120697,-11.801407,1.0169525,-2.697754,32.53479,-16.65039,-5.1686816,-7.286324,-4.04532,-4.356762,-3.1539967,-4.8154535,3.6692657,-5.396042,-0.7675476
-0.56703115,0.36162993,-0.10921138,0.64367676,-6.898514,4.6995087,-10.816956,27.870178,-20.51239,-3.9770691,-8.915047,0.9355441,-1.2965816,-5.045738,2.7365313,3.0162354,-5.5191956,-1.6913757
-0.3354831,0.44105858,-0.49863547,-1.2107697,-6.254837,12.832703,-20.837402,19.703674,-21.461487,-2.4850292,-8.699317,3.7837665,-0.4622631,-1.9704733,2.8154778,1.003479,-1.1179962,-0.38038635
-0.20077814,0.065814756,-0.36008835,6.798004,1.7658997,7.738388,-11.853027,4.031372,-29.17633,0.24503984,-4.043115,8.931045,-2.097456,-4.628471,4.681195,1.2214966,-0.47439575,-0.60658264
0.33542612,0.19949475,-0.33021706,-5.9150543,3.8332977,25.466812,4.26178,5.583191,-34.80835,-5.5352354,4.3620796,6.8193717,3.4630156,-1.056278,1.5550559,6.531494,-3.5804138,2.3109741
0.28544527,0.23673905,-0.28731087,-3.830902,3.8548431,9.724426,-7.5805664,1.5136719,-34.544373,-5.709121,3.6102028,7.109343,-0.23768902,1.1558199,5.46652,-0.18881226,4.6345673,-0.43011475
0.28193566,0.0895454,-0.30187657,-0.9020996,3.8022003,7.903488,-8.52356,5.4504395,-33.328247,-3.260986,4.4813304,8.090367,-0.34813726,1.4526234,3.181396,0.6601715,-1.7998505,-0.12626648
0.20957167,0.09631048,-0.28158113,-1.5194397,3.0628204,14.385651,-8.006287,13.195801,-31.243896,-2.9168024,3.2965443,8.763301,1.5184146,1.7307607,3.9422112,-0.15484619,-0.3587494,0.37727356
0.10072109,0.06375084,-0.2299518,1.7132568,-1.3974152,17.079971,-23.010254,22.210693,-11.746216,-1.6619585,1.6205351,9.5279665,-0.010909677,1.9020551,5.079906,-0.98635864,0.70880127,0.30366516
-0.1316539,-0.3672439,-0.21001542,12.253647,-0.5144501,5.3527374,-26.568604,18.696594,16.152954,6.999585,-0.8021725,6.82149,-2.7262115,-0.18182975,4.676166,-1.7675476,-2.379074,0.68673706
-0.26906243,-0.65545624,-0.23414783,1.5314026,0.24406433,-16.378876,9.326172,16.52832,29.716492,9.793667,-0.5029118,-0.03956959,1.8273692,-0.6165763,2.8549542,-1.1004639,-4.7542725,-0.24263
-0.39385647,-0.9050626,-0.009582312,-11.880371,-3.2638092,-3.661026,18.484497,9.468079,-24.650574,2.9168284,-1.0670072,-9.301827,-0.18292034,0.5002346,-5.5158677,-0.320755,-6.8415527,-0.65423584
-0.11508025,0.30527356,0.41529915,-10.358536,-1.3088684,18.376877,-20.985413,13.6154175,-23.168945,-6.021718,0.5699048,7.7191005,-8.294357,-2.2249584,-10.129698,0.88290405,-8.620468,2.290268
-0.014190711,-0.034436837,0.32846138,1.8185425,-2.411972,-0.5670929,-30.290222,11.027527,4.925537,9.5141325,1.5857217,1.7712054,-0.30238557,-4.104404,8.481304,-1.035965,-8.916428,-1.418808
0.7498516,-0.58316344,0.028097503,-1.4739838,5.6351013,1.3734741,-6.7993164,7.928467,33.972168,3.9728124,4.2556586,-7.8915477,-1.9944829,-0.12055302,-8.25673,4.082077,-11.236649,-2.088501
-0.82673717,0.51733124,0.04249976,-2.8115692,-12.3589325,-0.90927124,1.8356323,24.983215,23.951721,-2.8904471,-3.0866473,-8.848068,0.43954575,2.205359,-2.7609527,0.2715454,0.016448975,-1.4400635
-0.58809835,0.22445479,-0.15268996,-0.071777344,-11.688934,9.726822,-10.055542,22.503662,-21.447754,-1.5927707,-9.460016,2.0350835,-2.7460296,-7.3894095,-5.271139,7.326355,-3.6513977,-1.2878876
-0.09217384,-0.38948458,-0.4260161,5.63031,3.2279205,5.7332,-26.335144,-19.909668,-2.911377,6.96826,1.7875543,6.664712,-1.7125272,-7.293295,2.9246573,7.5068665,-3.4624023,-3.9949646
0.05135818,-0.02750109,-0.45260203,0.25125122,-1.1509552,16.99144,-13.961792,-21.076965,-18.759155,0.02404318,1.1404338,9.740083,5.6919208,4.0239754,-0.43959117,2.566513,-1.3917999,-2.4329681
0.12962204,0.02209249,-0.65679216,-3.529419,11.801407,7.051651,5.215454,-27.293396,-21.339417,-1.9915115,1.6031249,9.467537,1.1538429,-1.1614571,10.440222,-0.2801361,4.4822083,-0.4350586
0.23684487,0.05051164,-0.7895377,-13.801804,7.4775696,-9.257828,22.447205,-22.323608,-6.536865,-4.2263026,1.837295,8.65639,-3.1335871,5.475733,3.8397171,1.2094116,-0.6300354,-2.5566711
0.6676439,-0.4500528,0.57694846,10.54039,-3.2231293,-2.4191437,-28.179932,-5.1742554,17.68341,8.766379,-3.2956316,-2.9085717,-8.739765,1.6234641,-0.32155514,3.8810577,6.911392,-4.0473785
0.42889363,-0.48167276,0.73532254,6.305084,-1.2203369,1.8687897,-31.768799,-0.35247803,-5.0491333,8.152342,-5.1954503,1.648333,6.2636895,1.1445683,-4.0372567,1.672821,12.446304,0.85406494
0.07214773,-0.10228082,0.8194729,1.3782654,1.1916199,19.9346,-8.374023,-17.610168,-23.417664,2.281557,-0.8524992,9.499375,6.693229,0.3386603,-4.576384,-0.91226196,0.27734375,-0.9095154
-0.15497749,0.3115673,0.7418949,-1.6462555,4.721039,9.714859,14.149475,-25.691223,-19.717407,-5.7575135,2.7914634,7.4316325,4.320153,1.5668573,8.469261,3.6439056,9.170883,0.4467926
-0.013804492,0.52148205,0.6455001,-8.492126,7.0947266,4.094116,17.469788,-35.665894,-2.1774292,-5.8804407,6.451126,4.4692016,-1.5402323,3.9618106,8.531096,1.4117279,1.5891876,-0.79730225
-0.333784,0.5466572,0.6319091,-11.318054,2.2875366,-0.6149597,26.571655,-27.36206,2.3773193,-8.815833,3.918233,1.7603745,-1.5575409,3.246294,0.559783,2.044159,1.0158844,0.106536865
-0.6504823,0.5296022,0.51781917,-11.112274,2.4095764,-8.216949,23.413086,-25.36316,8.729553,-8.352488,3.234079,-3.9933805,-8.633464,3.6453598,3.5601306,-2.5487213,5.2201385,-1.0983429
-0.50417954,0.3161716,0.7745772,-1.2275238,-3.871582,5.48674,21.652222,-23.057556,-2.809143,-8.987606,2.685439,2.860374,-6.3447785,2.0209713,-0.5789678,-1.2792664,2.2664032,-1.1174011
-0.35827065,0.2192458,0.83965534,-4.598999,1.3447723,5.379059,8.900452,-20.7016,-21.061707,-7.380746,1.1911782,6.3463426,-2.7053137,-0.69517696,8.260209,-2.8650208,-8.276306,-0.86743164
-0.43285728,0.20549694,0.82902867,-7.063614,1.0600128,10.320251,16.58783,-20.289612,-17.744446,-8.200241,0.89377713,5.303546,-2.5165257,1.6651121,4.0001044,1.3298798,2.4500275,-0.019607544
-0.17234546,0.29796058,0.9107357,-2.1870422,3.3834534,9.537796,11.703491,-25.434875,-16.47644,-4.412148,4.5509415,7.482799,-1.3069977,3.64768,2.6143944,1.0902252,-0.46211243,0.5654144
-0.13641532,0.34515706,0.9166644,-1.660614,6.0131683,6.9631195,5.912781,-25.151062,-17.919922,-3.4563193,5.8088126,7.1050644,-0.17336869,1.2481108,5.638277,-0.54452515,-0.18049622,1.8552704
-0.1689281,0.38165778,0.89981854,-2.136795,6.094513,7.6737823,-0.20599365,-26.937866,-18.710327,-3.9319263,6.3148966,6.3900256,0.26459515,2.8680048,4.1183434,0.704895,0.27746582,0.31123352
-0.16347104,0.39599362,0.895108,-1.976471,6.754944,7.171295,0.18615723,-29.25415,-17.312622,-3.8289602,6.556161,6.2069483,-0.38787496,3.106305,4.2568474,0.13366699,0.38809204,0.009475708
-0.12622343,0.42442304,0.8885797,-1.0073853,6.3840485,5.8384857,1.6677856,-30.319214,-17.514038,-3.1973095,7.100183,5.9611235,-0.49871075,2.978565,3.6997828,0.20880127,0.04826355,0.11099243
-0.1124952,0.4124886,0.89571214,-1.6725769,7.00618,7.0995026,-0.04272461,-32.774353,-16.661072,-2.9637673,6.977242,6.221299,0.02383995,3.3018138,2.7829087,0.3041687,-0.20866394,0.17428589
-0.08472745,0.4433436,0.8827998,-1.2849426,8.027924,3.9098663,-0.9048462,-33.161926,-11.71875,-2.5985048,7.460088,5.810787,-0.20844662,2.6545606,4.143935,-0.06285095,-0.1051178,-0.021072388
-0.08935238,0.43794814,0.8858572,-1.8113708,6.6185455,7.9585266,-1.789856,-32.843018,-13.279724,-2.62098,7.3911624,5.888258,0.5847192,3.323278,1.3045521,0.58406067,-0.064437866,0.04624939
-0.11693828,0.39938354,0.9023514,-2.079361,6.8602295,6.9056854,0.3250122,-30.059814,-15.896606,-2.9481714,6.8110776,6.4099836,-0.021253467,2.717011,3.2640717,-0.7190399,0.20288086,-0.037628174
-0.11144705,0.40567377,0.90030754,-1.6151581,7.0181427,5.900696,0.018310547,-31.765747,-14.645386,-2.8558946,6.9194465,6.3352594,-0.21976006,2.4654245,3.0186744,-0.035186768,0.14942932,-0.012527466
0.19625276,-0.36368293,-0.90486807,-2.0267181,6.707077,7.1976166,-0.3265381,-30.477905,-14.369202,-2.7543907,6.847613,6.4570823,-0.012202144,2.5119963,2.1339083,0.13378906,0.0037384033,0.018508911
0.18359645,-0.36532062,-0.9077411,-1.9046936,6.726227,7.073181,-0.5706787,-30.415344,-15.176392,-2.5950687,6.842644,6.5279574,-0.16491556,2.166698,2.7723813,-0.19137573,-0.033462524,-0.00079345703
0.17033936,-0.35747337,-0.9141232,-2.0769653,6.75972,6.817154,-1.2145996,-30.384827,-15.219116,-2.443747,6.6999264,6.7312317,0.0036844015,2.1821442,2.365426,-0.0078125,-0.10560608,0.010940552
0.19736125,-0.34548983,-0.9125243,-1.660614,6.254837,6.4917297,0.58288574,-29.678345,-15.827942,-2.889995,6.5503573,6.7015767,0.22271228,1.9884148,2.1543732,-0.06340027,0.24819946,-0.0038452148
0.17440052,-0.35172763,-0.9158391,-2.009964,6.7118683,7.030121,-0.82092285,-30.34668,-16.812134,-2.2289274,5.9774528,7.4479747,-0.06910181,2.1548457,1.314755,-0.09295654,-0.0395813,0.0262146
0.18289223,-0.2849092,-0.9396357,-3.1968079,5.7690887,8.169098,-0.13122559,-27.153015,-18.304443,-3.0933213,5.428679,7.558519,0.47080016,1.177382,2.757121,-0.8007202,-0.28007507,-0.27207947
0.25178716,-0.3367786,-0.905705,-2.6033936,5.89592,7.171295,4.3899536,-26.779175,-18.492126,-4.1181154,6.2475986,6.338693,-0.40482545,1.0680523,2.8542771,0.38931274,1.00177,-0.08943176
0.1712439,-0.35423052,-0.91876674,-1.8807526,5.9653015,7.063614,4.598999,-29.470825,-17.536926,-2.8592026,6.492805,6.7704377,-0.30255675,1.1046515,1.5194392,0.1847992,-0.57299805,0.19003296
0.15199873,-0.31738633,-0.93574566,-2.1942139,5.8169556,7.6833496,0.90179443,-29.650879,-16.365051,-2.6446733,5.8944373,7.3777847,-0.34535074,1.7410741,1.306077,0.03916931,-0.09333801,0.005569458
0.19119076,-0.3180322,-0.9283432,-5.201996,6.8004,7.1066895,1.0238647,-28.466797,-17.63916,-3.3444445,5.87289,7.1059303,0.4849789,1.1018095,1.7885823,-0.22369385,-0.08312988,-0.09895325
0.25363186,-0.33410695,-0.90748215,-4.158722,5.704483,6.5778656,6.2332153,-28.848267,-17.852783,-4.364946,6.0600724,6.355561,-0.4763651,1.3079343,1.7935266,0.32162476,1.1719055,-0.14237976
0.26110116,-0.31104845,-0.9136709,-4.2831573,5.8097687,6.22612,7.688904,-28.6026,-18.391418,-4.5767684,5.659801,6.5719275,-0.57969546,1.2440825,1.4791408,-0.20854187,0.050354004,-0.10041809
0.22123905,-0.2759963,-0.9350268,-4.3142548,4.7641144,9.0711975,8.903503,-27.00653,-16.078186,-3.924239,5.168143,7.3526206,-1.094713,1.4835839,0.54787207,-0.0022583008,0.042526245,-0.06340027
0.20028643,-0.24838233,-0.94750506,-2.950348,4.795212,7.240677,5.3344727,-25.254822,-19.125366,-3.621541,4.69692,7.80985,-0.47755075,0.68105173,1.9555445,-0.8392029,-0.51501465,0.009536743
0.16740492,-0.24443309,-0.9549513,-1.9549408,3.9792633,8.575882,4.6173096,-24.850464,-20.748901,-3.0529585,4.634667,8.085153,-0.34553146,0.9185786,0.67222214,0.20074463,-0.31513977,0.084732056
-0.30923623,0.2850392,0.9072559,-11.2534485,6.4127655,9.544968,4.208374,-24.8703,-21.568298,-5.5222907,5.0507445,6.337559,2.5093598,-0.4708438,2.6126857,-0.28147888,0.1191864,-0.053329468
0.327568,-0.28942105,-0.8990033,-5.8073883,4.967499,6.649658,11.689758,-25.874329,-16.038513,-5.622687,5.2765074,6.0592284,-2.5788383,0.93408537,1.1796737,0.27294922,1.4861908,-0.31581116
0.31820402,-0.26991946,-0.9085901,-8.27916,5.8863373,7.5996094,11.056519,-25.549316,-16.548157,-5.5709715,4.927465,6.3917723,-0.32281637,0.8155284,0.6857667,0.15266418,-0.13957214,0.17990112
0.29161,-0.2961453,-0.90933746,-4.5702972,5.2666016,7.410568,11.167908,-26.71051,-16.33606,-5.08964,5.391337,6.4186797,-1.240159,0.5002465,1.0607834,-0.004272461,0.07246399,-0.03451538
0.16774535,-0.2095361,-0.93329424,-1.385437,4.759323,8.236099,3.6972046,-25.869751,-19.334412,-2.0901053,4.620476,8.393633,-1.7823291,0.98811984,-0.013710022,-0.07336426,-1.3079834,0.21276855
0.14771505,-0.26359686,-0.92958516,-1.1078796,5.333603,8.025528,-1.2145996,-25.901794,-19.818115,-1.6017231,5.4175897,8.015896,-0.028525352,0.20882463,1.4492159,0.021881104,-1.2520905,0.007217407
0.15083177,-0.29477337,-0.92214423,-1.0001984,6.6831512,6.171097,-0.5355835,-27.334595,-17.495728,-1.5715686,5.9230814,7.656217,0.15420794,0.26604033,1.6219873,0.2513733,-0.07733154,0.0340271
0.1756632,-0.31633613,-0.9138117,-2.8618164,5.170883,8.506485,0.14190674,-30.659485,-15.106201,-2.0039825,6.305144,7.238757,0.53293025,1.0905104,0.26067114,0.71972656,0.27246094,-0.041046143
0.17306162,-0.27914506,-0.9278266,-2.2899323,6.2189484,7.7240295,2.7236938,-27.978516,-19.117737,-2.1812458,5.679993,7.6909184,-0.37123513,0.36160994,1.2393556,-0.6248474,0.01222229,-0.29071045
0.19592407,-0.33142418,-0.90336674,-2.3521423,7.1904297,4.821533,3.2989502,-31.365967,-18.852234,-2.2431788,6.598238,6.899406,0.102912664,0.04919529,1.4440169,0.33927917,-0.018615723,0.08705139
0.21779066,-0.35540512,-0.8879978,-2.4071808,6.809967,7.2598267,2.041626,-35.054016,-14.942932,-2.4394498,7.019488,6.3989253,0.0076282024,0.7123656,-0.18491697,0.84588623,0.5350647,0.16261292
0.2049215,-0.33995304,-0.8972697,-2.0482635,6.7860413,6.6831512,2.0126343,-33.5083,-17.118835,-2.3177702,6.759351,6.716361,-0.09104109,0.7331929,0.90336084,-0.36810303,-0.20549011,-0.0078125
0.19498661,-0.34028128,-0.89996195,-1.9429779,6.838684,6.7669067,3.5690308,-32.972717,-16.621399,-2.1709247,6.734586,6.7899065,-0.06050241,0.62196684,0.62801456,-0.031448364,-0.08703613,0.008743286
0.19171126,-0.3534529,-0.8961756,-1.9214325,6.9798584,6.4295197,1.9638062,-33.08716,-15.597534,-2.0693107,6.917954,6.6355295,-0.055620432,0.5236125,0.7007866,0.051437378,-0.04043579,0.013137817
0.1788955,-0.36523986,-0.89573014,-0.624527,6.479767,4.54158,1.9943237,-34.176636,-15.6692505,-1.8561482,7.0468583,6.5625362,-0.13484216,0.5109725,0.25086164,0.16500854,-0.061553955,0.019729614
0.055346616,-0.19097519,-0.9659674,1.8472595,-0.9834442,12.2895355,-0.9033203,-24.427795,-19.151306,-0.42888546,3.7977753,9.031242,-0.4548258,2.2475722,-2.5893545,-0.544693,-0.6261902,-0.08985901
-0.1494158,0.056993958,-0.9755885,4.8143616,-1.4644012,11.062027,-9.858704,-15.457153,-21.488953,2.6907508,-1.5316304,9.305072,-0.56071115,0.59138215,3.022828,-3.8175507,-1.7759094,-0.40774536
0.10850068,0.22302783,0.9671083,-0.112457275,5.716461,5.4963074,1.3031006,-32.05719,-13.169861,1.811089,4.3505826,8.600162,2.2194128,-4.955912,2.624641,0.30067444,-0.5638275,-0.5884552
0.14384376,0.44783157,0.86686444,0.57188416,9.011368,4.491333,4.7561646,-34.69696,-9.4696045,0.99432784,8.080228,5.4673223,-0.036311507,0.7503619,0.36705637,0.8518677,-0.59002686,-0.65966797
0.17367189,0.4452966,0.8646181,2.6656036,7.8101807,6.2165527,0.99487305,-34.750366,-6.6085815,1.5925422,8.078874,5.325972,-1.0471771,0.9035964,-0.11532593,0.39205933,-0.19943237,-0.13848877
0.2057868,0.4002949,0.8774159,1.8592224,7.9250336,4.8143616,0.78125,-33.424377,-10.63385,2.23808,7.5586996,5.8333054,0.4696126,0.47309208,0.8577924,-0.6067047,-0.43547058,0.39840698
0.19428177,0.441496,0.8584883,0.87338257,7.791031,6.1663055,2.0843506,-35.095215,-9.365845,1.7631408,8.097476,5.243338,-0.013187647,0.44455242,0.07365322,0.29542542,-0.20083618,-0.20500183
0.17862146,0.35041288,0.9129147,2.9647064,5.3814545,7.6618195,-3.0044556,-29.275513,-13.713074,2.448789,6.6562796,6.7725744,-0.9559169,1.3382115,-0.6393957,-0.42912292,0.20648193,0.25375366
0.1913361,0.3266882,0.9064521,0.88534546,7.6378937,5.682953,-1.3275146,-29.60205,-13.619995,2.2027829,6.510203,6.995384,1.1857109,-0.48977184,1.4968195,-0.6575928,0.29475403,0.66908264
0.13395566,0.4259582,0.87173504,0.1483612,7.7766724,5.3599243,5.0094604,-34.083557,-11.244202,0.6050086,7.812861,5.896062,0.43748277,0.24956322,0.3451705,0.798172,0.71759033,-0.57151794
0.14320694,0.35341272,0.91059524,0.7465668,5.9772644,6.352951,0.15411377,-28.848267,-13.676453,1.452766,6.759582,6.954704,-1.1936959,1.1458764,-0.7454529,-0.0033416748,0.23414612,0.06036377
0.06292663,0.2921796,0.95012677,0.8111725,4.2424774,9.738785,-0.19378662,-23.379517,-16.853333,0.66231924,5.554712,8.05462,0.33049732,0.9218874,-0.41090012,-0.7846527,0.30807495,0.6451416
0.037660223,0.26558745,0.961295,-0.095718384,4.9914246,8.805588,0.3982544,-22.605896,-17.477417,0.38238162,5.053894,8.395375,0.4059902,-0.09443331,1.269166,-0.8981476,0.5743408,0.45350647
0.036717102,0.23845446,0.969592,0.5359955,4.3286133,8.992233,-0.20141602,-21.322632,-18.928528,0.5063918,4.5642056,8.664986,-0.4589066,0.58124685,0.22939396,0.015167236,0.45046997,0.16523743
0.020310007,0.22739343,0.97311753,2.3665009,6.8721924,11.495117,0.30670166,-18.806458,-19.418335,0.2522112,4.352137,8.784399,0.3206146,0.3168292,0.25552082,-0.27212524,-0.10084534,0.12901306
-0.014699548,0.15993218,0.9758674,2.720642,2.9407806,9.056839,-0.20141602,-19.340515,-30.0766,-0.7454301,3.0184445,9.300737,3.3408065,3.0586882,2.2819777,-0.5298004,0.15467834,-0.0725708
-0.0054120524,0.2971128,0.8344458,-1.9046936,1.4237366,3.3643036,27.60315,-29.389954,-18.91632,-2.7930923,4.8133535,8.074692,4.268058,-1.7891173,2.1241312,0.27337646,0.21125793,-2.6883698
-0.062781826,0.2523191,0.8154685,-5.2091827,-0.026321411,12.842285,29.956055,-22.711182,-23.0896,-3.5632226,3.3988485,8.480664,-1.1268718,-1.2136354,-2.9120092,2.56633,-0.42173767,-2.5024261
-0.024469808,0.22933558,0.85172623,-2.273178,4.0917206,9.415756,24.595642,-27.365112,-23.74115,-2.5250874,3.60528,8.763349,-2.4629078,-3.7669275,0.96581364,-2.4036407,0.49719238,0.65797424
0.16066225,0.22686078,0.80141354,-2.486145,0.84706116,9.482758,18.362427,-25.70343,-27.981567,0.1689744,5.2346587,8.290971,-1.968075,-0.9308715,2.178731,0.9158783,-0.7304077,0.2915039
0.9609837,0.26214606,-0.030823106,-7.7431793,6.3720856,4.065399,12.998962,-18.20221,-35.51941,-1.0061771,1.4003117,-9.653866,-2.39365,1.8296183,10.958119,2.4098206,-6.313263,-4.736252
0.90551263,0.32896897,-0.21879672,-2.120041,8.487335,4.311859,13.356018,-21.400452,-33.61969,-4.8844624,1.3370463,-8.3979,-5.905528,6.0959964,5.8442745,1.1560211,-3.7495728,-5.444931
0.89694816,0.2592486,-0.19775559,-14.342575,3.2087708,5.0081787,10.614014,-25.456238,-32.2937,-4.997278,4.247617,-7.290772,-2.2232232,7.8430147,4.84515,0.53060913,0.1307373,0.37294006
-0.4424061,-0.18878406,0.86525047,-0.3900299,6.1997986,5.38385,11.354065,-25.117493,-32.180786,-6.9844527,-4.430221,5.2688665,2.5723724,-1.9411305,12.798772,-1.1211243,6.475662,9.198914
-0.3423523,-0.041577727,0.9337906,2.548355,2.6967163,6.008377,11.576843,-34.580994,-22.488403,-6.1922884,-1.402067,7.4739656,0.12965536,6.117912,5.4095755,1.5722656,0.16976929,0.13285828
0.18105255,0.09016886,-0.9792822,0.8063812,-0.41635132,12.404388,-1.4770508,-35.38208,-31.025696,-3.4947855,-1.697098,9.004261,4.0612903,3.5043929,5.4434767,-0.45906067,-0.9033966,0.878006
-0.13034853,-0.104837574,0.9851761,5.1589203,-2.7110748,11.066803,-12.666321,-21.56372,-47.612,-2.440467,-2.122959,9.257838,3.1548877,0.5303963,9.274313,-2.1255188,-0.0046844482,0.38056946
-0.12999187,-0.25378057,0.9508538,1.9094696,-3.5820618,10.133606,-5.9402466,0.8773804,-54.267883,-1.8233632,-5.0406475,8.212041,4.0434294,-0.15523922,7.097516,-0.8775635,-0.26846313,0.18833923
-0.07152593,-0.20477532,0.9756605,0.3637085,-2.280365,9.363113,-11.424255,-7.2372437,-51.390076,-1.2393329,-3.9637563,8.883866,2.1139884,-2.3669767,7.257122,-0.68019104,0.21925354,-0.24710083
0.070705,0.1548792,-0.9845402,1.1916199,-1.6055908,8.760132,-12.440491,-7.331848,-57.25708,-1.4903388,-2.9336567,9.238124,1.5950727,-1.3083931,6.41754,0.5549774,0.13433838,0.6088562
0.030310772,0.07632231,-0.9753951,3.4097748,-2.2827454,10.87059,-2.268982,-13.65509,-38.272095,-0.886137,-1.3384676,9.67438,1.538713,-1.304018,5.5621634,0.56243896,-0.48544312,1.2398224
0.06840758,-0.028806495,-0.91215646,2.876175,0.39242554,8.8007965,-14.146423,-16.11023,-20.692444,-0.99611115,1.056151,9.698592,3.5363615,-2.3853905,6.3299866,0.6477051,-0.16798401,2.456192
0.0117435325,-0.014705972,-0.84350187,2.548355,-2.6990967,9.750748,-19.760132,-4.2129517,-23.854065,-0.039453696,0.3669335,9.799704,3.0096993,-0.1161993,4.2147207,0.82522583,0.34851074,1.8042603
-0.018421296,0.01868496,-0.7929854,1.2586212,-2.8163452,10.17189,-21.678162,2.0950317,-26.191711,0.06344398,-0.5105242,9.793147,2.448995,-2.2654061,5.467495,-0.81274414,0.028411865,1.6299286
0.0023964702,0.0002981725,-0.7737681,1.8233337,-0.81355286,10.085754,-20.579529,-0.23345947,-27.163696,-0.04007377,0.025249416,9.806535,1.6229415,-2.4068193,5.0826297,0.059020996,-0.018493652,0.58955383
0.014988693,-0.07022076,-0.84090674,2.4047852,-0.28953552,9.133408,-21.728516,-8.87146,-22.833252,0.4915488,1.3158362,9.705531,1.2874296,-1.5883739,4.57401,0.669281,0.028900146,-0.35173035
-0.07117454,-0.06841716,-0.87905747,2.7852478,-0.74894714,8.633301,-24.465942,-9.443665,-19.740295,1.8529662,0.52854234,9.615485,1.221457,-0.4244,4.424589,0.43434143,-0.75038147,-1.190033
-0.11716163,-0.023523366,-0.8970673,3.2207336,-1.2945099,9.238693,-24.763489,-10.775757,-19.396973,2.2576752,-0.5637242,9.526568,1.7975368,-0.6193439,4.5896955,-0.78134155,-0.35960388,-0.36517334
-0.1403893,-0.042181563,-0.8970874,3.7710876,-1.0504456,9.114258,-25.985718,-10.997009,-20.072937,2.8149781,-0.40555727,9.385191,1.9821768,-0.9374553,3.5799713,-0.21366882,-0.25709534,-0.24917603
-0.14351977,-0.04000708,-0.8987459,3.809372,-1.0839539,9.231506,-24.623108,-11.201477,-19.717407,2.8534594,-0.4555873,9.371264,2.1324449,-0.7723149,3.524754,0.036468506,-0.074020386,-0.013198853
-0.15455033,-0.044767417,-0.89952093,3.878769,-1.031311,9.059235,-26.457214,-10.888672,-19.34967,3.0832958,-0.44137973,9.298863,1.9803944,-0.7478442,3.3726974,0.013198853,-0.018493652,-0.018936157
-0.15473706,-0.040520392,-0.90130186,3.9864502,-0.9762726,8.884552,-24.632263,-11.495972,-19.32373,3.0553095,-0.50548816,9.304834,2.023612,-0.6459637,3.1265326,0.006729126,-0.024795532,-0.022232056
-0.16344003,-0.044021428,-0.90210974,3.9170532,-0.9667053,8.937195,-25.675964,-11.495972,-19.055176,3.2345068,-0.49348795,9.2447195,1.8341753,-0.65171576,3.0043845,0.00630188,-0.0496521,-0.04360962
-0.18035913,-0.035836946,-0.90569574,3.9050903,-0.7848511,8.884552,-25.22583,-12.193298,-19.28711,3.4723217,-0.7146012,9.143452,1.2723508,-0.42765653,2.026371,-0.0056152344,0.050827026,0.0034942627
-0.18596104,-0.031535637,-0.90789026,3.7328033,-0.8542328,8.872589,-24.604797,-12.054443,-22.683716,3.5429165,-0.8039277,9.108887,0.82966924,-0.2310133,1.2952752,-0.012268066,0.010025024,-0.024795532
-0.18295607,-0.024846906,-0.91201735,3.316452,-1.0887299,9.107086,-24.006653,-11.58905,-20.95337,3.4511392,-0.8697637,9.138027,0.61243176,-0.16421777,0.83446693,-0.015457153,0.08369446,-0.012893677
-0.16280535,-0.012058647,-0.91868496,3.1824493,-1.0504456,9.286545,-22.607422,-11.065674,-20.072937,3.3793077,-0.8451729,9.167134,0.19341373,-0.31585878,0.87338066,-0.0036621094,-0.07310486,-0.08227539
-0.1397253,0.012755159,-0.9273182,2.2899323,-0.6699829,9.1453705,-23.233032,-12.263489,-21.42334,2.4544873,-1.1828775,9.420546,0.8355622,-0.10083151,0.9168806,-0.16729736,0.07460022,-0.27537537
-0.07639065,-0.03148049,-0.9270815,1.0576324,0.41156006,10.41835,-18.048096,-14.289856,-25.674438,1.6147808,0.024583878,9.672758,0.6084125,-0.84212583,1.2835388,0.16586304,0.56866455,-0.13407898
0.012973841,-0.1613347,-0.879482,1.7874451,2.572281,8.772095,-17.30194,-17.295837,-26.618958,1.1924391,2.8968372,9.292837,-0.030757785,-1.8234816,0.749074,1.235611,0.41900635,0.5166168
0.017394766,-0.13692775,-0.8213206,2.3114624,1.7946167,9.4253235,-18.818665,-14.981079,-27.671814,1.2063184,2.3945856,9.432982,0.15441823,0.6676309,0.07505131,0.77301025,0.669281,1.1788483
0.03191365,-0.041618664,-0.7621767,-0.14596558,2.2827454,9.0759735,-19.256592,-8.068848,-30.09491,0.04962622,1.0260261,9.752702,0.78641325,0.627938,0.4428892,-0.22338867,0.29353333,1.1068878
-0.073682025,-0.081998944,-0.6885546,2.445465,0.2368927,9.104691,-22.680664,-1.9622803,-28.865051,2.147801,0.07156276,9.568293,-0.9840895,0.99502087,1.2165499,-0.51379395,-0.006958008,0.91282654
-0.14871955,-0.0385302,-0.6419136,1.3902283,-2.7134552,9.743576,-28.796387,7.4798584,-20.347595,2.4400928,-1.7061486,9.343736,0.35914564,0.8579968,-0.024995804,-0.84780884,-1.0711517,0.90719604
-0.038615078,-0.0067413272,-0.60483193,0.8159485,0.31585693,8.322235,-21.920776,9.593201,-27.296448,0.56324697,-0.5224315,9.776513,0.67584795,-1.4942381,0.852664,-0.31019592,1.0625,0.70384216
-0.021948382,-0.0036026898,-0.6031866,1.1509552,-0.76091003,14.069794,-22.206116,6.8847656,-28.213501,0.31599692,-0.300596,9.7969475,0.67087615,-0.21298137,0.8204441,1.1329956,-0.23829651,0.26756287
0.056168925,-0.04688707,-0.6252887,3.328415,1.7060852,7.2382812,-18.209839,3.6956787,-34.161377,0.025642365,1.4309617,9.7016535,0.45121002,-1.4681947,1.6521959,0.023040771,0.52352905,-0.019607544
0.0682815,-0.03993516,-0.6461651,-0.899704,1.3734741,8.7960205,-15.693665,0.7369995,-35.47058,-0.2707978,1.5227046,9.683927,-0.43084466,-0.023958325,0.10610294,0.22291565,0.02218628,-0.38417053
0.04843392,-0.027310051,-0.636463,-0.81355286,0.25602722,6.6376953,-13.99231,-0.6713867,-36.12976,-0.19253908,1.0717114,9.746013,0.37704223,0.5113033,-1.0611563,0.4111786,0.1796112,-0.049057007
-0.0852533,0.05399195,-0.60401213,0.24406433,-3.0460663,10.717453,-18.58368,9.260559,-30.899048,0.17279539,-1.9615202,9.606923,-0.46874705,1.6303769,-0.22323799,-1.0466003,-0.115753174,0.097076416
-0.088733815,0.041488566,-0.5842213,0.50727844,-1.8903351,8.9730835,-19.74945,11.416626,-27.54364,0.36116803,-1.8775405,9.618461,-0.2695637,-0.5809281,0.9770775,-0.5738373,-0.14880371,0.31814575
-0.09168553,0.051187765,-0.5836682,0.98106384,-1.4117584,9.152542,-19.436646,12.966919,-27.23999,0.2412215,-2.0338888,9.590385,0.2569899,-0.5287092,1.2491503,-0.3711548,0.10862732,0.36553955
-0.041404143,0.044118974,-0.59814113,-0.06939697,-1.5649109,10.473389,-19.058228,10.812378,-28.29895,-0.2057456,-1.1665123,9.734851,0.10917616,-0.14179707,0.2421503,0.46780396,-0.06718445,-0.2094574
-0.03246366,-0.024579016,-0.5930025,0.9379883,-1.1222382,9.463608,-20.852661,8.204651,-27.244568,0.76524717,-0.22615889,9.774131,-0.6912774,-0.7640431,1.1188793,0.13061523,0.17710876,0.022720337
-0.0139663955,0.0042516515,-0.5941078,0.34457397,-0.39720154,9.961319,-18.743896,7.1228027,-29.438782,0.09567646,-0.2698487,9.80247,0.3636459,0.0346843,0.19825459,0.49542236,-0.26254272,0.010681152
-0.015852014,0.0029442627,-0.5955163,0.74417114,-1.7802582,9.956543,-19.746399,7.9971313,-28.315735,0.13877109,-0.2841065,9.801552,-0.116799995,-0.286034,0.39188004,-0.0079956055,0.08766174,-0.006591797
-0.0094564445,0.00792095,-0.5915612,1.2251282,0.8757782,9.913467,-18.273926,6.8634033,-29.2099,-0.015524561,-0.24142382,9.803666,0.04390525,-1.2183785,0.33975124,0.021759033,0.059814453,0.1031189
-0.020601671,-0.00043065118,-0.62062055,0.03111267,-0.21774292,10.612167,-19.451904,5.6167603,-28.964233,0.25739282,-0.3114817,9.798322,-0.019046485,0.9323958,0.40273476,-0.028396606,-0.04788208,-0.16664124
-0.014323952,0.0033677625,-0.6220876,0.088531494,-0.20578003,9.796219,-18.60199,6.388855,-27.479553,0.123062424,-0.26101315,9.802403,-0.09376265,0.8783772,0.31268787,-0.00579834,0.0061187744,-0.21356201
-0.013209913,0.0039038341,-0.62034035,0.20817566,1.1030884,9.879959,-18.778992,6.239319,-28.561401,0.10067917,-0.25067905,9.802928,-0.07877857,0.29406673,0.32565784,0.002090454,0.021087646,0.00091552734
-0.010072674,0.0008701328,-0.6326797,0.34934998,-0.7680969,9.631119,-19.76471,5.6625366,-28.337097,0.083290294,-0.1390431,9.80531,-0.17515236,0.28622973,0.29279137,0.0074005127,0.0045318604,-0.19700623
-0.011615031,0.0035282779,-0.6193705,0.119644165,-0.19142151,9.779465,-19.450378,5.6121826,-28.585815,0.08677497,-0.22169243,9.80376,0.066848986,-1.6350404,0.24739265,0.0074005127,0.0053863525,0.25082397
-0.012020254,0.0037550416,-0.6203098,-0.057434082,-1.7706909,9.836899,-20.062256,4.6310425,-29.441833,0.08848283,-0.23057872,9.80354,0.07032599,-0.41745144,0.25655174,-0.0018310547,-0.016235352,0.008865356
-0.014762092,0.0044994764,-0.6281693,-0.095718384,0.14117432,9.805786,-20.669556,5.1605225,-27.796936,0.113224514,-0.2806705,9.801978,0.12526992,-0.8478092,0.23103523,0.008071899,0.00032043457,-0.059127808
-0.01448736,0.004657112,-0.6426307,1.0193481,0.899704,8.846268,-19.81659,6.541443,-29.289246,0.11263051,-0.27636084,9.802108,-0.17269334,-0.026584208,0.2610445,-0.0064697266,0.0010986328,-0.13572693
-0.011012394,0.0053569865,-0.6102894,0.086135864,-0.1986084,9.8033905,-20.492554,7.28302,-27.44751,0.048593227,-0.23520373,9.803709,-0.087694585,1.1722176,0.21176052,0.040390015,0.15809631,0.33158875
-0.012369826,0.0043980614,-0.61016774,0.028717041,-0.24645996,9.774673,-19.567871,8.375549,-28.546143,0.07970228,-0.24482262,9.803269,-0.016737781,0.04385954,0.20665073,-0.052947998,-0.15142822,-0.026992798
-0.012289887,0.004350682,-0.6100634,0.055038452,-0.22013855,9.796219,-19.854736,7.408142,-28.657532,0.07944961,-0.24302445,9.803317,-0.004856974,0.03494467,0.20086479,-0.00036621094,-0.0010375977,-0.00016784668
-0.012226628,0.004282323,-0.6099702,0.04547119,-0.22492981,9.815353,-19.12384,7.4539185,-28.300476,0.0797264,-0.24123324,9.803358,-0.0044929385,0.03296466,0.19242573,-0.00012207031,1.5258789e-05,-0.00022888184
-0.012178606,0.004218693,-0.6098469,0.100494385,-0.18664551,9.817749,-20.005798,7.7697754,-29.632568,0.08010331,-0.23973848,9.803392,0.00032181293,0.034362197,0.18669224,-0.00018310547,-0.00022888184,-0.00030517578
-0.01154404,0.004007693,-0.60921144,0.0143585205,-0.21057129,9.745972,-19.296265,7.147217,-27.674866,0.0756094,-0.22741543,9.803721,-0.00864201,0.021470651,0.117759705,-0.00024414062,-0.0004272461,0.00012207031
-0.0112668965,0.0037668236,-0.60879934,0.06460571,-0.18424988,9.810577,-20.339966,7.1517944,-27.708435,0.07592901,-0.22026795,9.803883,0.0019667074,0.012718469,0.08329964,-6.1035156e-05,7.6293945e-05,-0.00012207031
-0.010995268,0.0035487087,-0.60841167,0.01914978,-0.1483612,9.815353,-19.927979,7.473755,-28.263855,0.07597439,-0.21347572,9.804031,-0.00019283593,0.012544379,0.05377674,-6.1035156e-05,6.1035156e-05,-4.5776367e-05
-0.010920822,0.003252946,-0.60809135,0.028717041,-0.16749573,9.805786,-19.4458,7.583618,-28.787231,0.07960482,-0.20882036,9.804103,0.00393977,0.006371528,0.035844803,0.0004272461,-0.0012817383,-0.0007171631
-0.010415905,0.0033658482,-0.60784084,0.07896423,-0.19621277,9.793823,-19.19403,7.7423096,-28.390503,0.071760856,-0.20232998,9.804301,0.00042527914,0.0078044534,0.023508072,0.0014648438,0.0034332275,-0.00018310547
-0.010660178,0.002845116,-0.60753864,0.08135986,-0.13639832,9.820145,-20.34607,7.00531,-27.737427,0.08270617,-0.1999571,9.804262,-0.0072079003,0.0022643954,0.016692162,0.00024414062,-0.0032958984,-0.00024414062
-0.00876269,0.000351536,-0.6039366,0.33738708,0.35653687,9.7986145,-21.411133,6.9488525,-29.66919,0.098300695,-0.1411379,9.805141,0.012591332,0.12233576,0.010903358,0.00091552734,0.0015411377,-0.03768921
-0.0073297047,-0.00088315096,-0.5910581,-0.117248535,-0.4905243,9.78186,-21.6156,5.683899,-28.105164,0.09894177,-0.105717875,9.805581,0.08636489,0.5176642,0.011345863,0.002746582,0.0013580322,-0.12088013
-0.0070562554,-0.0011797876,-0.5878834,0.13639832,-1.4021912,9.800995,-20.454407,6.5689087,-29.029846,0.100078866,-0.098347485,9.805646,-0.17487924,0.08342773,0.015404701,0.003982544,-0.006225586,0.15344238
-0.008009593,0.00045519747,-0.5820549,-0.06460571,-0.36849976,9.78186,-18.843079,6.677246,-28.997803,0.08417827,-0.13293166,9.8053875,0.045348853,-0.9401183,-0.0020389557,0.007888794,0.008865356,0.025970459
-0.007990057,0.0007382975,-0.5804803,0.059814453,-0.6652069,9.817749,-19.14215,6.9396973,-27.874756,0.07917738,-0.13600548,9.8053875,-0.06690806,-0.23331843,0.009317398,0.0038604736,0.002822876,0.13554382
-0.0086286375,0.0020207574,-0.5706329,0.15553284,0.26081848,9.879959,-19.018555,8.044434,-28.335571,0.06402614,-0.16158576,9.80511,0.024552554,-0.5226459,0.0012054443,0.0009765625,0.0060577393,0.03213501
-0.008222093,0.00173516,-0.57334465,0.052642822,-0.17468262,9.805786,-20.111084,7.0266724,-28.649902,0.06457731,-0.15162982,9.805265,0.056545563,0.21062289,0.012280464,-0.002746582,-0.0017700195,-0.07537842
-0.008391716,0.0016897608,-0.57845443,0.06700134,0.119644165,9.805786,-17.765808,7.3303223,-28.684998,0.068174616,-0.15342148,9.805213,-0.0025620088,0.04588175,0.004261017,-0.002319336,-0.0005950928,-0.06590271
-0.008395065,0.0016294698,-0.5842042,0.052642822,-0.17706299,9.829712,-16.635132,7.4020386,-28.337097,0.070255175,-0.15229838,9.805216,-0.0012995154,0.071324974,0.0011444092,-0.0014038086,0.0036773682,-0.0440979
-0.0073324256,0.0019694709,-0.58381253,0.32063293,0.34695435,9.767502,-16.343689,8.514404,-28.347778,0.05259975,-0.13930647,9.805519,-0.0073399134,0.26077116,0.012359619,0.00030517578,0.011489868,0.07551575
-0.0048276596,-0.0015293836,-0.56298554,-0.29670715,-0.095718384,9.810577,-16.770935,7.521057,-26.268005,0.078097485,-0.06136618,9.806148,0.08442677,0.16253948,0.0012025833,-0.00061035156,-0.0007324219,0.09590149
-0.0022980585,-0.0021009876,-0.5633007,0.007171631,-0.14117432,9.848862,-17.320251,7.772827,-25.66681,0.05943675,-0.014028885,9.80646,-0.0443472,0.09155552,0.008312225,0.0012817383,-0.0026855469,0.07672119
-0.0033145368,-0.0018697424,-0.5530288,0.07417297,-0.7537384,9.820145,-17.69104,9.840393,-22.888184,0.066505104,-0.033881903,9.806366,-0.14426392,-0.35304296,0.00094890594,-0.00030517578,-0.0076904297,0.10964966
-0.0040969523,-0.0013912467,-0.54686505,0.035888672,-0.17706299,9.827316,-16.842651,11.074829,-24.409485,0.06678809,-0.0523515,9.806283,-0.028244115,-0.36855912,-0.002046585,0.001953125,0.0045928955,0.03994751
-0.003892099,-0.0008489664,-0.5466943,0.15792847,0.0382843,10.037888,-16.511536,11.317444,-24.60022,0.055675242,-0.054815613,9.806339,-0.017134812,-0.16342738,0.0025196075,0.003616333,-0.00090026855,0.1362915
-0.004773958,-0.0002210342,-0.53033805,0.105285645,-0.3254242,9.810577,-16.075134,12.37793,-26.062012,0.053332455,-0.07708045,9.806203,0.0069809332,-0.49195045,-0.00036525726,0.0022583008,0.0012817383,0.08570862
-0.0052612885,-0.0005082554,-0.534082,-0.07417297,-0.39482117,9.774673,-15.696716,12.049866,-27.278137,0.06354016,-0.0819155,9.806102,-0.016150832,-0.09061428,0.0049352646,-0.0021362305,-0.008178711,-0.13365173
-0.0063760434,-9.543936e-05,-0.55235267,-0.0382843,0.26081848,8.6931305,-16.71753,10.813904,-27.488708,0.070634976,-0.10321039,9.805853,-0.05171871,-0.3715518,0.00044631958,-0.0026245117,0.0033721924,-0.23957825
-0.0034703582,-0.0028625256,-0.56252486,0.42114258,-2.634491,9.832108,-19.891357,11.157227,-23.738098,0.084706075,-0.024691964,9.806253,-0.2421337,0.6314998,-0.00835228,0.0057525635,-0.011413574,0.17721558
-0.010900901,4.5687808e-05,-0.54922366,-0.06939697,4.984253,9.832108,-22.669983,11.154175,-18.943787,0.116676696,-0.17914656,9.804319,-0.124085195,-2.9229155,-0.012997627,-0.006225586,-0.012268066,-0.09498596