rotationVector.y,rotationVector.x,magneticField.y,rotationVector.z,gravity.y,magneticField.z,linearAcceleration.y,gyroscope.y,gravity.x,gyroscope.z,gyroscope.x,magneticField.x,linearAcceleration.z,accelerometer.z,accelerometer.x,accelerometer.y,gravity.z,linearAcceleration.x
0.09718594,0.098001175,-1.8341064,0.5536643,2.6338537,-39.094543,0.47853494,-0.11123657,-0.50114983,0.0038909912,-0.3098297,21.887207,-0.15904427,9.51387,-0.63648987,2.7517395,9.43303,-0.4015842
0.08058906,0.09975181,-1.5319824,0.5540654,2.4850273,-40.04669,0.060849667,-0.1777649,-0.21610777,0.06376648,-0.06549072,20.84961,0.027929306,9.5234375,-0.023925781,2.4215393,9.484109,-0.23771992
0.07517415,0.10082944,-1.5060425,0.5543775,2.4443667,-40.35797,-0.020541668,-0.021453857,-0.11667518,-0.0074005127,0.0059814453,21.168518,0.008090019,8.078171,-0.653244,2.8737793,9.496413,0.03536573
0.0739666,0.09214902,-1.2115479,0.5630691,2.2951229,-40.4953,0.14113164,0.41429138,-0.16891733,0.09881592,-0.5037842,22.306824,-1.2835426,10.018753,-1.0552368,1.4428711,9.5328,0.10041274
0.054740064,-0.070006505,9.211731,0.54825383,-0.5531804,-34.353638,2.5326128,0.08074951,-1.6455934,-0.9061127,-1.6086121,27.398682,-0.93528175,16.764114,-1.4021912,-1.8017883,9.651756,2.3830376
-0.07673989,-0.031378094,23.982239,0.42528278,-1.1947604,-37.190247,0.17730367,-1.0767822,1.0947686,-0.9674988,-0.024429321,18.934631,2.2940435,7.4895325,-0.095718384,-4.342972,9.671837,-1.4400871
-0.140302,-0.079131864,27.546692,0.4141232,-2.5299776,-37.98523,-1.5233033,-0.8303528,1.8224648,-0.0054473877,-0.54704285,9.992981,-0.12557793,6.3146667,0.035888672,-0.23210144,9.297753,-1.3466415
-0.11742451,-0.05508363,28.179932,0.4459675,-1.9838787,-35.1532,-1.7482032,1.037857,1.5578027,0.28453064,0.5877075,6.665039,-0.4086666,11.825333,1.6582336,-0.0023956299,9.476701,1.2719735
-0.09721859,-0.009259838,22.531128,0.43331572,-0.98895276,-38.1073,-0.47337538,-0.63072205,1.6296523,0.042755127,0.44317627,10.173035,0.3853941,10.066605,2.2588196,-0.71066284,9.619594,-0.47317064
-0.13431916,0.028631948,20.274353,0.44463485,-0.6743102,-39.787292,-0.34398115,-0.3715973,2.581491,0.21318054,0.44647217,6.7626953,-0.00084400177,9.932602,2.3665009,-0.28953552,9.436715,-0.26116753
-0.07026462,0.028704133,17.700195,0.46862194,-0.15031861,-40.411377,0.13103773,1.4527588,1.4767547,0.2186737,0.09901428,12.919617,-1.9825687,9.61676,0.17706299,-0.19381714,9.693657,0.85799086
-0.0026072247,-0.005497086,17.17987,0.476144,-0.11915585,-38.406372,-0.4207427,0.0017089844,-0.0063694417,0.00010681152,0.0011444092,18.46466,0.31829262,9.7986145,0.086135864,-0.17468262,9.805925,-0.15329279
-0.002871889,-0.005503987,17.3172,0.4715349,-0.12449482,-39.35089,-0.0582363,0.0,0.0038386784,-1.5258789e-05,0.00010681152,18.222046,0.07845497,9.808182,0.095718384,-0.18424988,9.80586,0.094544634
-0.0033976727,-0.0055173524,17.120361,0.46324214,-0.12676993,-38.87787,-0.05435203,-0.00018310547,0.008927479,4.5776367e-05,0.00010681152,18.6203,0.070996284,9.810577,0.098098755,-0.17706299,9.805827,0.08708642
-0.0036300407,-0.0055374075,16.76178,0.46020645,-0.12918513,-39.253235,-0.04809369,-0.00018310547,0.013226291,-1.5258789e-05,0.00022888184,18.681335,0.0663147,9.800995,0.093322754,-0.18424988,9.805791,0.08281493
-0.0052435105,-0.0055906074,16.905212,0.45898002,-0.14461745,-40.122986,-0.032191858,0.00010681152,0.041039426,-7.6293945e-05,0.00022888184,18.519592,0.044836998,9.8033905,0.095718384,-0.17706299,9.805498,0.0555926
-0.006250221,-0.0056795846,16.923523,0.454548,-0.15493979,-39.756775,-0.021194354,4.5776367e-05,0.05855191,-7.6293945e-05,0.00010681152,18.844604,0.029411316,9.796219,0.088531494,-0.16749573,9.805251,0.03567903
-0.0069637406,-0.0058091744,16.14685,0.44966474,-0.16317914,-38.11035,-0.016902521,4.5776367e-05,0.070754856,0.00022888184,4.5776367e-05,17.214966,0.018008232,9.800995,0.090927124,-0.18185425,9.8050375,0.024883687
-0.0074012657,-0.0058741327,18.177795,0.44255826,-0.16755186,-38.04016,-0.009571746,4.5776367e-05,0.079178795,-1.5258789e-05,0.00016784668,18.188477,0.01137352,9.8033905,0.105285645,-0.18664551,9.804899,0.015959233
-0.0076920534,-0.0059650852,17.849731,0.43615612,-0.17107564,-38.308716,-0.0073981583,-6.1035156e-05,0.08472441,-0.00019836426,4.5776367e-05,17.610168,0.010124207,9.800995,0.093322754,-0.17228699,9.804792,0.011324562
-0.0079017775,-0.005961171,15.6814575,0.43675128,-0.17285891,-39.10675,-0.0034020543,0.00010681152,0.08834459,-0.0001373291,-1.5258789e-05,18.878174,0.007074356,9.805786,0.112457275,-0.17706299,9.804729,0.008164555
-0.008067272,-0.006046276,17.35382,0.43238583,-0.17533685,-38.19275,-0.005194217,0.00012207031,0.091385975,-0.0001373291,-0.0001373291,17.82837,0.0037584305,9.7986145,0.093322754,-0.17228699,9.804656,0.0062976778
-0.008151581,-0.006043187,17.565918,0.4295251,-0.1757017,-39.24408,-0.001449272,0.0,0.09346051,0.00022888184,0.00022888184,18.71643,0.004252434,9.7986145,0.100494385,-0.17945862,9.80463,0.0039597675
-0.008210836,-0.006067769,17.340088,0.4289959,-0.17658089,-39.479065,-0.0019749552,4.5776367e-05,0.094406255,-0.00019836426,0.00010681152,19.670105,0.0015611649,9.7986145,0.098098755,-0.18185425,9.8046055,0.0020605773
-0.008238283,-0.006062205,16.912842,0.4278887,-0.17659675,-38.923645,0.00021624565,0.0,0.09515575,-0.00019836426,-0.0001373291,18.769836,0.0026397705,9.7986145,0.100494385,-0.17228699,9.804598,0.0015273616
-0.008278212,-0.006062729,16.993713,0.42715266,-0.17686298,-38.012695,-0.00071693957,4.5776367e-05,0.09600312,0.00022888184,4.5776367e-05,19.023132,0.0006380081,9.805786,0.102890015,-0.17945862,9.804585,0.0023553297
-0.008219314,-0.0061321473,17.289734,0.42409202,-0.1772803,-39.564514,-0.000542894,0.00022888184,0.094977334,-0.00019836426,-1.5258789e-05,17.816162,0.00011062622,9.810577,0.093322754,-0.17468262,9.804588,-0.0016396865
-0.0082186265,-0.0061483257,17.341614,0.42075908,-0.17721197,-39.990234,-9.767711e-05,0.00022888184,0.09548284,-7.6293945e-05,0.00016784668,17.41333,0.002776146,9.805786,0.105285645,-0.17468262,9.804584,0.0016712248
-0.008190772,-0.006152799,18.051147,0.4207258,-0.17705823,-38.450623,-4.7668815e-05,0.00016784668,0.09495689,0.00016784668,-1.5258789e-05,18.42041,-0.0027828217,9.796219,0.086135864,-0.17228699,9.804592,-0.00018497556
-0.008194023,-0.0061169616,17.166138,0.42070815,-0.17644562,-38.85193,0.0015113205,0.00016784668,0.095313914,4.5776367e-05,-7.6293945e-05,18.218994,0.0005464554,9.808182,0.100494385,-0.17468262,9.804599,0.001133956
-0.008224866,-0.006142854,16.860962,0.42076382,-0.17716661,-39.100647,-0.00089141726,4.5776367e-05,0.095638074,-1.5258789e-05,-0.0001373291,19.088745,-0.0012331009,9.800995,0.100494385,-0.17468262,9.804583,0.0015175864
-0.008276975,-0.006096062,16.778564,0.4208027,-0.17676829,-38.163757,0.000617519,-0.00012207031,0.09694373,-0.00019836426,0.00016784668,17.967224,-2.7656555e-05,9.800995,0.100494385,-0.17706299,9.804578,0.002134882
-0.008252541,-0.0060834466,17.126465,0.42076343,-0.17633805,-38.53302,0.00043545663,4.5776367e-05,0.09662083,-0.0001373291,-7.6293945e-05,17.65747,0.00045776367,9.7986145,0.095718384,-0.17468262,9.804589,-0.0008861199
-0.0082475245,-0.006084517,17.001343,0.42075762,-0.17631505,-38.16681,0.00038658082,0.00010681152,0.096523866,-0.00019836426,-1.5258789e-05,19.102478,-0.0028791428,9.8033905,0.095718384,-0.17228699,9.804589,0.0004151836
-0.008261753,-0.0060680043,17.26532,0.42076597,-0.1761396,-38.24463,0.00045523047,-1.5258789e-05,0.09691167,-0.00016784668,0.00015258789,18.710327,-5.722046e-06,9.7986145,0.095718384,-0.17706299,9.804589,0.00051582605
-0.008261532,-0.006066678,16.48407,0.42076486,-0.17611405,-39.692688,-0.00077436864,-0.00018310547,0.09691889,-0.00010681152,-3.0517578e-05,18.82782,0.00014591217,9.8033905,0.098098755,-0.17706299,9.804589,-0.0004534498
-0.008260566,-0.0060612457,16.557312,0.4207603,-0.17600897,-39.408875,0.0005571991,0.00010681152,0.09694745,-0.00010681152,3.0517578e-05,17.785645,0.00026130676,9.7986145,0.088531494,-0.18185425,9.804592,0.00023390353
-0.008277783,-0.006066647,16.514587,0.42078584,-0.17624983,-39.738464,-0.0006274283,0.00010681152,0.09720417,-0.0002746582,-3.0517578e-05,18.183899,0.0009775162,9.800995,0.095718384,-0.17468262,9.804584,0.00044535846
-0.008246351,-0.0061221393,17.066956,0.420779,-0.17697696,-38.180542,-0.0010962635,0.00016784668,0.0961883,-4.5776367e-05,3.0517578e-05,17.900085,-0.0006313324,9.800995,0.098098755,-0.17945862,9.804581,-0.0009316057
-0.008270788,-0.006115564,17.4469,0.42080662,-0.1770646,-38.711548,-0.00053215027,-0.00018310547,0.09667193,1.5258789e-05,3.0517578e-05,18.074036,0.00037193298,9.805786,0.093322754,-0.17468262,9.804575,0.0005056113
-0.008242017,-0.0061195586,17.642212,0.42077184,-0.17689455,-38.627625,0.000477314,6.1035156e-05,0.09613391,1.5258789e-05,-3.0517578e-05,18.804932,-0.0011777878,9.805786,0.100494385,-0.17706299,9.804584,-0.00038500875
-0.008210204,-0.006087467,17.350769,0.42071113,-0.17605469,-39.24408,0.0018013269,4.5776367e-05,0.095844604,1.5258789e-05,-9.1552734e-05,17.660522,-0.0003042221,9.808182,0.095718384,-0.17706299,9.804601,-0.0010553896
-0.008251475,-0.006103016,16.885376,0.42077398,-0.17667851,-38.83667,-0.0011494905,-6.1035156e-05,0.09643828,7.6293945e-05,-3.0517578e-05,18.367004,0.0012331009,9.7986145,0.100494385,-0.17706299,9.804584,0.0009694323
-0.008289219,-0.006076951,16.729736,0.4208069,-0.1765298,-38.7146,0.00014933944,-0.00012207031,0.09731847,-0.00010681152,9.1552734e-05,18.281555,0.001452446,9.796219,0.090927124,-0.17945862,9.804579,0.0015317947
-0.008304035,-0.0060740435,17.184448,0.42082432,-0.17660218,-39.083862,-0.00026340783,0.00010681152,0.09760265,0.0001373291,-3.0517578e-05,18.460083,0.00033664703,9.808182,0.095718384,-0.18185425,9.804573,0.00075764954
-0.008376631,-0.00616543,16.467285,0.42097387,-0.17884327,-39.538574,-0.0032969266,-1.5258789e-05,0.098110236,1.5258789e-05,-3.0517578e-05,18.586731,-0.0017147064,9.796219,0.102890015,-0.18424988,9.804529,0.00025559962
-0.008231819,-0.006127543,16.064453,0.4207635,-0.17695156,-40.167236,0.0034289807,-0.00018310547,0.095888205,-0.00022888184,9.1552734e-05,19.04602,-0.0003414154,9.812973,0.088531494,-0.16749573,9.8045845,-0.0044634566
-0.008281206,-0.0061584953,16.796875,0.42084622,-0.17791852,-39.222717,-0.0015830696,6.1035156e-05,0.09649509,1.5258789e-05,9.1552734e-05,18.119812,0.00025177002,9.789032,0.122039795,-0.21534729,9.804561,0.001398094
-0.008274537,-0.006171245,16.105652,0.42084536,-0.17809023,-38.711548,-0.00045582652,4.5776367e-05,0.09627138,-0.00016784668,-9.1552734e-05,18.736267,-0.0006380081,9.796219,0.088531494,-0.17706299,9.804561,-5.362928e-05
-0.008277686,-0.0061046453,15.690613,0.42080888,-0.1769275,-40.46173,0.001969263,-1.5258789e-05,0.096884325,1.5258789e-05,-3.0517578e-05,18.86444,0.0002155304,9.8033905,0.112457275,-0.16749573,9.804575,0.00052286685
-0.008221216,-0.006078688,16.722107,0.42072004,-0.1759903,-39.356995,0.0012649447,-0.00018310547,0.09611124,-0.00022888184,0.00021362305,19.161987,0.00045490265,9.791428,0.090927124,-0.17706299,9.8046,-0.0013308153
-0.008260492,-0.0060514263,16.955566,0.42075422,-0.175833,-38.17749,-0.0003079921,0.00010681152,0.097028345,-4.5776367e-05,0.00015258789,17.330933,0.0020599365,9.805786,0.088531494,-0.18185425,9.804594,0.0018008351
-0.008286382,-0.006051032,17.044067,0.42078745,-0.17604318,-38.51471,-0.00031852722,-6.1035156e-05,0.097485736,-4.5776367e-05,9.1552734e-05,18.6203,0.0008955002,9.800995,0.100494385,-0.17945862,9.804585,0.00086595863
-0.008274522,-0.0060348106,16.946411,0.42076224,-0.17565401,-38.89618,0.0007032901,0.00010681152,0.09741351,-4.5776367e-05,3.0517578e-05,18.208313,-0.0025987625,9.808182,0.100494385,-0.17706299,9.804592,0.00023397058
-0.0082351,-0.00603785,17.59491,0.42071313,-0.17537758,-37.73651,0.00042828918,-1.5258789e-05,0.096696615,1.5258789e-05,-3.0517578e-05,17.120361,0.00018024445,9.800995,0.093322754,-0.16989136,9.8046055,-0.0016745701
-0.008256461,-0.006070947,15.795898,0.4207609,-0.17614773,-39.58893,-0.0011945367,4.5776367e-05,0.09679422,-0.000289917,-3.0517578e-05,18.39447,0.00028324127,9.800995,0.102890015,-0.18185425,9.80459,0.0006066859
-0.008238986,-0.006036309,17.0578,0.4207172,-0.17538266,-39.72168,0.0011591017,4.5776367e-05,0.096777685,1.5258789e-05,3.0517578e-05,18.69049,0.000664711,9.808182,0.090927124,-0.16989136,9.804605,-9.712577e-05
-0.008240611,-0.0060513844,17.26532,0.4207285,-0.17566547,-39.372253,-0.0004696101,4.5776367e-05,0.09667999,-0.00010681152,-3.0517578e-05,18.54248,0.0012369156,9.7986145,0.098098755,-0.17468262,9.8046,-5.5879354e-06
-0.008234488,-0.0060648154,17.17987,0.42072874,-0.17585392,-39.231873,-0.0005054474,4.5776367e-05,0.096460156,-0.00022888184,3.0517578e-05,18.37616,0.0005083084,9.805786,0.098098755,-0.17945862,9.804599,-0.00026132166
-0.008239711,-0.006082853,17.303467,0.42074648,-0.1762198,-39.04419,-0.0006261617,0.00022888184,0.09640077,1.5258789e-05,-3.0517578e-05,18.063354,0.0001745224,9.808182,0.095718384,-0.18424988,9.804593,0.0005142912
-0.008265,-0.0060934965,16.673279,0.42078567,-0.17662202,-38.841248,1.9952655e-05,-6.1035156e-05,0.09675519,-0.00010681152,-0.00015258789,17.393494,-3.2424927e-05,9.805786,0.102890015,-0.17706299,9.804583,0.0011213049
-0.008255518,-0.006047261,16.275024,0.42074525,-0.1757169,-39.666748,0.0012502074,-0.00012207031,0.09697598,-0.00010681152,9.1552734e-05,18.978882,-0.0017824173,9.8033905,0.095718384,-0.17228699,9.804597,-0.00052485615
-0.00823949,-0.00604209,17.11731,0.42072138,-0.17549008,-39.175415,0.0003155768,4.5776367e-05,0.09673811,-0.00010681152,3.0517578e-05,18.536377,0.0010480881,9.805786,0.088531494,-0.17228699,9.804602,-0.00029215217
-0.008223065,-0.006054631,16.63208,0.42070776,-0.17557627,-39.953613,0.00064627826,4.5776367e-05,0.09634505,1.5258789e-05,-0.00015258789,16.65802,6.198883e-05,9.8033905,0.105285645,-0.18424988,9.8046055,-0.00061652064
-0.008251873,-0.0060710865,16.087341,0.42075506,-0.17611173,-38.327026,-0.00073461235,-7.6293945e-05,0.09671258,-0.00010681152,-0.0002746582,18.49823,0.00068473816,9.810577,0.107681274,-0.16270447,9.804591,0.00067572296
-0.008271831,-0.0060771075,17.225647,0.42078453,-0.17638667,-38.72528,3.2782555e-05,-6.1035156e-05,0.0970122,0.00019836426,-3.0517578e-05,19.108582,0.0004606247,9.7986145,0.102890015,-0.19142151,9.804583,0.00037382543
-0.008298636,-0.0061078044,16.421509,0.42083788,-0.17715973,-39.141846,-0.0013824552,0.00010681152,0.09722528,1.5258789e-05,0.00021362305,17.94281,-0.0024080276,9.796219,0.105285645,-0.17706299,9.804568,0.00017255545
-0.008279302,-0.0061142407,17.022705,0.4208168,-0.1771124,-38.65509,-0.0011884272,0.00016784668,0.09683231,7.6293945e-05,0.00021362305,18.295288,-0.00033473969,9.805786,0.071777344,-0.15074158,9.804572,0.0003381148
-0.008198362,-0.006064949,17.45758,0.4206821,-0.17555332,-38.22174,0.0022912472,0.0,0.0958254,0.0001373291,3.0517578e-05,17.192078,0.0004014969,9.812973,0.105285645,-0.16749573,9.804611,-0.0017696321
-0.008230831,-0.006003087,16.490173,0.42068642,-0.17472102,-39.546204,0.0017187148,-1.5258789e-05,0.09691268,-4.5776367e-05,9.1552734e-05,18.907166,0.0034627914,9.817749,0.13877869,-0.16270447,9.804615,0.0021463484
-0.008423506,-0.006062718,16.931152,0.42097187,-0.17740291,-39.382935,-0.0049507916,-0.0001373291,0.09979261,3.0517578e-05,-3.0517578e-05,19.007874,-0.0032720566,9.810577,0.07896423,-0.14356995,9.804538,0.0052637607
-0.008073081,-0.0059342454,17.930603,0.4204405,-0.17216913,-39.16931,0.009185955,0.00022888184,0.09472097,-0.00010681152,0.00015258789,18.733215,-0.0007572174,9.820145,0.088531494,-0.1483612,9.804682,-0.009512141
-0.008235512,-0.005955946,17.730713,0.4206638,-0.17391852,-39.02588,-0.0026971847,6.1035156e-05,0.097389325,-4.5776367e-05,-0.00015258789,17.919922,0.00093364716,9.796219,0.107681274,-0.22732544,9.804625,0.005515091
-0.008184369,-0.0060404083,16.430664,0.42064905,-0.17499776,-38.99536,-0.0016011,-6.1035156e-05,0.09578532,1.5258789e-05,-3.0517578e-05,18.104553,0.0019083023,9.805786,0.06700134,-0.1603241,9.804621,-0.003418997
-0.008224348,-0.0060672765,17.222595,0.42071712,-0.17581281,-38.754272,-0.0019773394,0.00016784668,0.096261695,7.6293945e-05,3.0517578e-05,17.982483,-0.00016498566,9.805786,0.100494385,-0.17706299,9.804602,0.0013695136
-0.008193099,-0.0060672928,16.931152,0.42067674,-0.1757014,-37.61139,0.0006297678,0.00016784668,0.09629421,-0.00033569336,-3.0517578e-05,18.138123,4.1007996e-05,9.805786,0.098098755,-0.18185425,9.804604,-0.00023389608
-0.008294799,-0.0060910606,16.635132,0.42082274,-0.17682855,-38.990784,-0.0023888499,-6.1035156e-05,0.09729819,-0.00022888184,3.0517578e-05,18.998718,0.0006580353,9.817749,0.07417297,-0.15074158,9.804573,0.0020076185
-0.008219521,-0.006079525,18.354797,0.42071834,-0.17599103,-39.149475,0.001551643,-6.1035156e-05,0.09607451,1.5258789e-05,3.0517578e-05,18.510437,0.00027561188,9.808182,0.088531494,-0.17228699,9.8046,-0.0025071204
-0.008330656,-0.0061169863,17.036438,0.42088488,-0.17759238,-40.133667,-0.003550306,6.1035156e-05,0.09770989,1.5258789e-05,-3.0517578e-05,19.410706,-0.00061035156,9.7986145,0.112457275,-0.18664551,9.804555,0.00278759
-0.00827388,-0.0061231037,17.36908,0.4208152,-0.17722516,-38.47046,0.00062708557,-6.1035156e-05,0.096663006,-0.00010681152,9.1552734e-05,19.11621,-0.0002450943,9.800995,0.090927124,-0.17945862,9.804572,-0.002145648
-0.008324133,-0.0060674017,16.337585,0.42084625,-0.17665228,-39.227295,0.0017340034,-0.00012207031,0.098010756,7.6293945e-05,-3.0517578e-05,17.77649,0.00015926361,9.805786,0.098098755,-0.17228699,9.804569,0.0015260875
-0.00827476,-0.006025679,16.189575,0.420757,-0.17549296,-40.052795,0.0019924194,-0.00036621094,0.09749413,1.5258789e-05,-9.1552734e-05,18.728638,-0.0018072128,9.793823,0.095718384,-0.17945862,9.804595,-0.0015338883
-0.008246127,-0.0060041063,16.297913,0.42070684,-0.17486751,-40.42816,0.0015947968,4.5776367e-05,0.09717246,-0.000289917,0.00015258789,19.215393,-9.346008e-05,9.7986145,0.090927124,-0.16989136,9.804608,-0.00072334707
-0.008249275,-0.0059925877,16.984558,0.4207039,-0.17468826,-40.41443,0.0007021278,-0.00012207031,0.09732411,-4.5776367e-05,-0.00015258789,18.60199,0.00042915344,9.810577,0.100494385,-0.17706299,9.804611,6.900728e-05
-0.008192613,-0.0059722327,16.441345,0.42061824,-0.17384952,-39.753723,0.0022582859,4.5776367e-05,0.09650044,-0.00010681152,-9.1552734e-05,18.180847,-3.6239624e-05,9.800995,0.095718384,-0.1651001,9.804634,-0.0014873445
-0.008229839,-0.005958399,16.27655,0.42065793,-0.17391472,-40.301514,0.00018747151,-0.00012207031,0.09726928,-0.000289917,-0.00021362305,17.848206,0.001739502,9.810577,0.110076904,-0.18185425,9.8046255,0.0010769367
-0.008220178,-0.005978435,15.951538,0.42065766,-0.17419146,-37.86316,-0.00071138144,4.5776367e-05,0.09693213,-0.00016784668,-3.0517578e-05,17.610168,0.0016365051,9.812973,0.088531494,-0.17228699,9.804624,-0.0005014017
-0.008198462,-0.0059817648,17.259216,0.4206316,-0.1740688,-38.43994,0.00011587143,-1.5258789e-05,0.09652331,-0.00010681152,3.0517578e-05,19.674683,0.00045013428,9.805786,0.095718384,-0.16989136,9.80463,-0.001056008
-0.008188982,-0.006009637,17.515564,0.4206363,-0.17448698,-38.92212,-0.0009187609,-6.1035156e-05,0.09612375,-0.00016784668,9.1552734e-05,17.993164,-0.0020914078,9.791428,0.098098755,-0.17706299,9.804626,-0.0006462261
-0.008114838,-0.005991962,16.326904,0.42052963,-0.17354973,-38.3667,0.0022236705,0.00010681152,0.09497089,-0.00010681152,-9.1552734e-05,18.830872,0.0006799698,9.800995,0.100494385,-0.17468262,9.804654,-0.0014037862
-0.008151215,-0.006007226,15.98053,0.420586,-0.17412725,-38.523865,-0.0010329634,0.00016784668,0.09548137,1.5258789e-05,0.00015258789,19.055176,-0.00050258636,9.808182,0.090927124,-0.17228699,9.804639,0.0011855587
-0.008156605,-0.0059860623,17.300415,0.42058006,-0.17379454,-39.31427,0.00055254996,0.00022888184,0.09575302,-0.00010681152,-9.1552734e-05,19.107056,-0.00050258636,9.8033905,0.093322754,-0.17945862,9.804643,0.0016487613
-0.008199531,-0.0060259635,17.156982,0.42065987,-0.17486697,-38.92212,-0.0019929558,0.00016784668,0.09617217,-0.00016784668,3.0517578e-05,18.058777,-0.0019330978,9.800995,0.095718384,-0.17706299,9.804619,0.0014677569
-0.008136566,-0.005955995,17.150879,0.42053586,-0.17308962,-38.16986,0.0036492199,-1.5258789e-05,0.09565298,-0.0005187988,-0.00033569336,18.06488,0.00047302246,9.789032,0.052642822,-0.22253418,9.804656,-0.0013567284
-0.008283801,-0.0060298527,16.362,0.42077124,-0.17564335,-40.290833,-0.0038337857,0.00018310547,0.09761778,1.5258789e-05,3.0517578e-05,18.013,0.00032138824,9.796219,0.071777344,-0.19621277,9.804591,0.0043212175
-0.008190988,-0.0060719815,16.984558,0.42067686,-0.17561704,-37.48474,-0.0002811998,6.1035156e-05,0.09563719,-3.0517578e-05,3.0517578e-05,18.943787,-0.000746727,9.810577,0.07417297,-0.1603241,9.804611,-0.003017746
-0.0081966715,-0.0060863714,16.583252,0.42069295,-0.17592165,-38.594055,-0.0009480268,0.00010681152,0.09561643,-0.00010681152,3.0517578e-05,18.276978,-0.0011405945,9.805786,0.093322754,-0.16989136,9.804606,-0.00012285262
-0.008202656,-0.0060721897,16.662598,0.42069206,-0.17571859,-37.75482,0.00028212368,-0.00012207031,0.09584009,-0.00010681152,3.0517578e-05,18.44635,-0.00013065338,9.800995,0.07417297,-0.1531372,9.804606,0.00037132204
-0.008178068,-0.006080283,16.468811,0.4206652,-0.17565693,-38.66577,0.00046943128,-1.5258789e-05,0.095341094,1.5258789e-05,-0.00015258789,17.626953,0.00055503845,9.8033905,0.105285645,-0.18185425,9.804614,-0.0008108616
-0.008175745,-0.0060508335,17.10968,0.42064425,-0.17511159,-38.45215,0.0016243309,0.00022888184,0.0955468,-0.00022888184,-3.0517578e-05,17.416382,0.002448082,9.808182,0.117248535,-0.18185425,9.804621,0.00065012276
-0.0081786355,-0.0060663507,17.37976,0.42065746,-0.17541292,-38.23242,-0.00071655214,-1.5258789e-05,0.09546765,-0.00010681152,-3.0517578e-05,17.108154,-0.00028133392,9.810577,0.086135864,-0.1531372,9.804617,1.3418496e-05
-0.008192966,-0.0060535506,17.086792,0.42066818,-0.17530453,-39.88495,-0.0001193285,0.00016784668,0.09582614,-0.00016784668,0.00015258789,19.093323,-0.0013113022,9.805786,0.100494385,-0.18185425,9.804615,0.0013397336
-0.008143702,-0.006027989,16.220093,0.4205889,-0.174435,-39.494324,0.0011589378,0.00010681152,0.095175855,1.5258789e-05,9.1552734e-05,18.173218,-0.0004014969,9.812973,0.093322754,-0.17228699,9.804636,-0.0008918941
-0.008123552,-0.0060364106,17.192078,0.42056796,-0.17441647,-39.86969,0.00018057227,0.00010681152,0.09475191,1.5258789e-05,-9.1552734e-05,17.407227,-0.0015392303,9.8033905,0.093322754,-0.17706299,9.804641,-0.0006894171
-0.008160369,-0.0060532754,16.381836,0.42062587,-0.17502625,-40.296936,-0.0008800477,4.5776367e-05,0.09525663,1.5258789e-05,3.0517578e-05,18.333435,0.00088596344,9.8033905,0.090927124,-0.17706299,9.804625,0.0016701743
-0.008167773,-0.0060188207,17.00592,0.42061445,-0.1744731,-39.927673,0.00049617887,0.00016784668,0.095674835,-0.00022888184,9.1552734e-05,17.8833,0.000749588,9.805786,0.098098755,-0.17228699,9.80463,0.0010042489
-0.008173359,-0.0060353945,16.78009,0.42063177,-0.17481591,-40.31372,-0.0008293092,0.00010681152,0.09563415,-0.0002746582,9.1552734e-05,18.83545,0.0011281967,9.7986145,0.098098755,-0.17468262,9.8046255,0.00056631863
-0.008173015,-0.0060312524,15.963745,0.42062882,-0.17473906,-38.365173,-0.0004349202,-0.00018310547,0.09566277,-4.5776367e-05,9.1552734e-05,18.814087,-0.00020599365,9.805786,0.095718384,-0.17468262,9.804626,-0.00042261928
-0.00818002,-0.006057318,17.663574,0.42065373,-0.17526323,-38.441467,-0.00013783574,0.00010681152,0.095567524,-0.00016784668,-0.00015258789,18.084717,0.0012397766,9.810577,0.100494385,-0.18424988,9.804618,-9.2580914e-05
-0.008182591,-0.006043312,16.654968,0.42064855,-0.1750347,-38.806152,0.0008265227,0.00022888184,0.09572983,-4.5776367e-05,-0.00021362305,18.197632,-0.0014009476,9.805786,0.102890015,-0.17706299,9.804621,0.00094216317
-0.008172367,-0.0060388003,17.218018,0.42063257,-0.17486842,-38.45215,0.0004261285,0.00016784668,0.09558825,-0.00010681152,0.00015258789,17.984009,0.0011301041,9.800995,0.095718384,-0.17468262,9.8046255,0.00013221055
-0.008154876,-0.005974363,17.623901,0.4205707,-0.17357112,-39.144897,0.00223957,0.00010681152,0.09582055,-0.00022888184,-0.00021362305,18.478394,-0.00020599365,9.8033905,0.100494385,-0.17468262,9.804646,0.0008623749
-0.008180708,-0.0059943837,16.651917,0.4206163,-0.17414524,-39.41803,-0.0010200888,4.5776367e-05,0.096106246,-0.00010681152,0.00015258789,20.283508,-0.0004529953,9.791428,0.095718384,-0.17468262,9.804633,0.0008076653
-0.008176712,-0.005978363,17.63916,0.4206014,-0.17382564,-37.82959,0.0007921308,0.0,0.09617019,7.6293945e-05,-3.0517578e-05,17.765808,-0.0022153854,9.7986145,0.102890015,-0.18424988,9.804637,0.00051049143
-0.008141337,-0.0060051735,17.105103,0.42057195,-0.17400779,-39.19983,-0.00070753694,0.00016784668,0.09532526,-4.5776367e-05,-3.0517578e-05,17.24701,-0.0003709793,9.800995,0.098098755,-0.17945862,9.804643,-0.0015115663
-0.008123069,-0.0060155345,16.505432,0.42055464,-0.17403966,-38.4552,0.0007606596,-6.1035156e-05,0.094918095,1.5258789e-05,3.0517578e-05,18.193054,0.00024604797,9.810577,0.093322754,-0.16989136,9.8046465,-0.0008614212
-0.008190584,-0.0060115466,17.63153,0.42063954,-0.17453453,-39.601135,-0.00064589083,4.5776367e-05,0.09613589,0.00033569336,-0.00021362305,18.556213,0.0006456375,9.7986145,0.095718384,-0.17468262,9.8046255,0.0019765124
-0.008196987,-0.0060232505,16.746521,0.42065495,-0.1747972,-38.22632,-0.00014521182,-0.00024414062,0.09615026,7.6293945e-05,-3.0517578e-05,17.48352,-0.00068569183,9.7986145,0.110076904,-0.17945862,9.804621,-0.0001859814
-0.008180976,-0.0060048643,16.027832,0.42062303,-0.17433463,-39.474487,0.0008251965,-1.5258789e-05,0.09602325,0.00039672852,-9.1552734e-05,18.566895,-0.00014209747,9.808182,0.098098755,-0.17706299,9.80463,-0.00028709322
-0.008196935,-0.006028819,16.189575,0.42065826,-0.17489621,-38.6261,-0.001006797,0.00016784668,0.09610275,0.0002593994,9.1552734e-05,18.899536,0.00022029877,9.808182,0.100494385,-0.17945862,9.80462,0.0005782768
-0.008220119,-0.0060610217,16.986084,0.42070785,-0.17566566,-39.39209,-0.0011942834,0.00010681152,0.09623989,7.6293945e-05,-9.1552734e-05,17.645264,0.0004720688,9.800995,0.098098755,-0.17468262,9.804605,0.00092697144
-0.008233134,-0.0060602245,16.581726,0.4207242,-0.1757606,-38.368225,-0.0003578663,-6.1035156e-05,0.09647484,-0.00010681152,9.1552734e-05,18.278503,0.0027046204,9.815353,0.088531494,-0.16749573,9.804601,0.00043456256
-0.008242131,-0.0060337787,15.977478,0.42071974,-0.17536385,-39.04724,0.0009213537,-1.5258789e-05,0.09685402,7.6293945e-05,-0.00015258789,18.971252,-0.0002708435,9.808182,0.095718384,-0.17945862,9.804604,0.00052978843
-0.008197236,-0.006057708,16.32843,0.42067623,-0.17541456,-39.944458,-0.00046253204,-1.5258789e-05,0.09586623,-0.00022888184,3.0517578e-05,18.656921,-2.0980835e-05,9.800995,0.102890015,-0.18185425,9.804612,-0.001579836
-0.008184097,-0.006016522,16.51001,0.42063418,-0.17456897,-39.328003,0.0027584285,4.5776367e-05,0.09598045,-4.5776367e-05,-0.00021362305,19.232178,-0.00080013275,9.812973,0.090927124,-0.16270447,9.804626,-2.668053e-05
-0.008164351,-0.0060490007,16.252136,0.4206284,-0.17498334,-39.35547,-0.0011573285,0.00010681152,0.095362276,-0.00010681152,3.0517578e-05,18.658447,-0.0013399124,9.800995,0.102890015,-0.17706299,9.8046255,-0.0008364096
-0.008164253,-0.006013712,16.828918,0.4206068,-0.17435238,-39.98871,0.0022975951,-1.5258789e-05,0.09565584,0.0001373291,-0.00021362305,18.518066,0.0013513565,9.810577,0.093322754,-0.17945862,9.804633,0.0005421117
-0.008135252,-0.0059775137,16.882324,0.42054725,-0.17346287,-38.687134,0.0014158338,-6.1035156e-05,0.09544992,0.0001373291,9.1552734e-05,18.367004,0.0008983612,9.800995,0.100494385,-0.16749573,9.804651,-0.00021751225
-0.008185869,-0.0059752106,16.30249,0.42061132,-0.17384616,-38.658142,-0.0008534491,0.00010681152,0.096357234,0.00019836426,9.1552734e-05,18.424988,-0.0014772415,9.7986145,0.105285645,-0.17468262,9.804636,0.0017509386
-0.008085314,-0.0059687532,17.045593,0.4204773,-0.17288783,-38.095093,0.0017942637,0.00022888184,0.094647005,7.6293945e-05,9.1552734e-05,17.5766,0.0006084442,9.810577,0.088531494,-0.17228699,9.804668,-0.0025231168
-0.008157726,-0.0059801037,16.088867,0.42057788,-0.17369755,-38.70392,-0.0017201453,4.5776367e-05,0.09582255,7.6293945e-05,-3.0517578e-05,18.495178,-0.00071430206,9.793823,0.093322754,-0.16749573,9.804644,0.002530232
-0.008166851,-0.006010337,16.461182,0.4206081,-0.17431392,-39.279175,-0.0018207431,0.00010681152,0.09572967,1.5258789e-05,9.1552734e-05,19.633484,-2.861023e-06,9.796219,0.107681274,-0.18185425,9.804634,0.00022732466
-0.008170827,-0.005968739,17.500305,0.42058793,-0.17360444,-38.83972,0.0012996942,4.5776367e-05,0.096147485,-0.00016784668,9.1552734e-05,17.752075,-3.8146973e-06,9.800995,0.086135864,-0.16989136,9.804642,0.0012439415
-0.00819509,-0.0059216567,16.677856,0.42059064,-0.17296715,-39.533997,0.0011506528,-6.1035156e-05,0.09696706,1.5258789e-05,3.0517578e-05,19.561768,-1.9073486e-06,9.7986145,0.08375549,-0.17706299,9.804645,0.0011569336
-0.008202658,-0.005956746,16.474915,0.42062178,-0.17365724,-38.41095,-0.0017502755,0.00016784668,0.09680626,0.0001373291,-3.0517578e-05,18.83545,0.0011148453,9.812973,0.086135864,-0.16270447,9.804635,0.00010662526
-0.008188267,-0.0060247392,16.816711,0.42064458,-0.17475066,-38.931274,-0.0023146719,0.00022888184,0.09598483,-0.00010681152,3.0517578e-05,18.444824,0.00057697296,9.805786,0.102890015,-0.17945862,9.804623,-0.0007534474
-0.00817503,-0.006041275,17.025757,0.42063752,-0.17493492,-38.279724,-0.00023521483,0.00022888184,0.09561426,-0.00045776367,-3.0517578e-05,18.377686,-0.0013666153,9.800995,0.090927124,-0.1651001,9.804624,0.00011204928
-0.008164626,-0.0060026143,16.934204,0.42060053,-0.17415735,-39.56604,0.0018688589,0.00010681152,0.09575524,-0.00010681152,-3.0517578e-05,17.962646,0.0014791489,9.800995,0.090927124,-0.1651001,9.804636,0.0011541545
-0.0082022045,-0.0060062944,16.941833,0.42065138,-0.1745382,-39.645386,-0.00086830556,-6.1035156e-05,0.09638368,7.6293945e-05,3.0517578e-05,18.043518,-0.00061130524,9.810577,0.098098755,-0.17945862,9.804624,0.0010168776
-0.008221961,-0.0060373642,16.513062,0.42069584,-0.17525868,-39.09149,-0.000859946,-0.00012207031,0.09647021,0.00019836426,-0.00021362305,17.14325,0.0005540848,9.808182,0.093322754,-0.18185425,9.804609,-0.00052201
-0.008254941,-0.0060133273,17.712402,0.42072386,-0.17510612,-38.11798,0.00042787194,4.5776367e-05,0.097249895,-4.5776367e-05,-9.1552734e-05,17.765808,0.00093746185,9.808182,0.093322754,-0.1651001,9.804605,0.00157886
-0.008220863,-0.0060287304,16.645813,0.42068917,-0.1750953,-39.02588,-6.7576766e-05,0.00010681152,0.09652321,0.0001373291,9.1552734e-05,18.035889,-0.0012893677,9.8033905,0.100494385,-0.17945862,9.804612,-0.0010449737
-0.008172456,-0.00600545,16.40625,0.42061237,-0.17427365,-39.67743,0.0012741536,4.5776367e-05,0.095868886,0.0001373291,3.0517578e-05,19.86847,0.001364708,9.805786,0.093322754,-0.17468262,9.804633,-0.00087022036
-0.008210604,-0.006024629,16.648865,0.4206734,-0.17493603,-39.897156,-0.00094361603,-1.5258789e-05,0.096377596,0.00019836426,9.1552734e-05,19.075012,-0.0013151169,9.808182,0.098098755,-0.16749573,9.804616,0.0007788837
-0.008213762,-0.006029835,16.941833,0.42068064,-0.17505547,-39.645386,-0.0003504306,-6.1035156e-05,0.09638942,0.0002593994,-9.1552734e-05,18.043518,8.106232e-05,9.8033905,0.095718384,-0.18185425,9.804614,-0.0006676614
-0.008191378,-0.0060306718,16.726685,0.4206522,-0.17488268,-39.767456,0.0009213388,-0.00012207031,0.095989764,0.0001373291,-0.00015258789,18.112183,0.0011787415,9.805786,0.090927124,-0.17468262,9.804621,-0.0014790818
-0.008214797,-0.0060408926,16.860962,0.42068872,-0.1752616,-40.03296,-0.0006156266,-0.00018310547,0.09631503,0.0001373291,3.0517578e-05,17.874146,-0.0009737015,9.7986145,0.095718384,-0.17468262,9.804611,0.00059597194
-0.008254692,-0.00602663,16.482544,0.42073163,-0.17534158,-39.315796,-5.2571297e-05,-1.5258789e-05,0.09713419,0.0002593994,-3.0517578e-05,18.829346,0.0011138916,9.800995,0.098098755,-0.17945862,9.804602,0.0009614453
-0.008228876,-0.005997785,16.699219,0.42068067,-0.17460993,-39.604187,0.001843378,-0.00012207031,0.096922755,0.00019836426,-0.00015258789,17.710876,-0.0013313293,9.805786,0.090927124,-0.17228699,9.804616,-0.0002546981
-0.008261786,-0.006026191,16.854858,0.42074054,-0.17539327,-39.097595,-0.0012080967,4.5776367e-05,0.09726229,-4.5776367e-05,-3.0517578e-05,19.007874,-0.0005712509,9.8033905,0.098098755,-0.17468262,9.8046,0.0008427948
-0.008256555,-0.0060084574,17.176819,0.42072296,-0.17503272,-40.28473,0.00034950674,0.00010681152,0.09731898,7.6293945e-05,3.0517578e-05,18.208313,0.0012140274,9.810577,0.100494385,-0.17228699,9.8046055,0.00030709058
-0.008182599,-0.0060294922,16.381836,0.42064014,-0.174788,-40.64331,0.00059714913,-6.1035156e-05,0.09584563,-4.5776367e-05,3.0517578e-05,19.377136,0.0004940033,9.805786,0.095718384,-0.17706299,9.804624,-0.0027689263
-0.008191943,-0.0060242712,16.369629,0.42064902,-0.17477314,-38.337708,0.00082688034,0.00010681152,0.09605324,7.6293945e-05,-3.0517578e-05,18.348694,0.0017662048,9.8033905,0.093322754,-0.17706299,9.804623,0.0010889173
-0.008214327,-0.0060092495,16.633606,0.42066884,-0.17469262,-38.79547,0.00027531385,-0.00012207031,0.0965716,0.0001373291,-3.0517578e-05,17.874146,0.00022411346,9.7986145,0.090927124,-0.17706299,9.804618,0.0005694106
-0.008203475,-0.0059984685,17.366028,0.42064825,-0.1744091,-38.919067,0.00022573769,4.5776367e-05,0.09647146,-0.000289917,9.1552734e-05,19.032288,-0.0011339188,9.810577,0.088531494,-0.17468262,9.804625,-0.0002861172
-0.00821095,-0.0060026334,16.583252,0.42066044,-0.17454615,-38.864136,-0.0006093681,0.00010681152,0.09656772,-4.5776367e-05,-3.0517578e-05,19.319153,-0.0012369156,9.805786,0.093322754,-0.17468262,9.804621,0.00058492273
-0.008186971,-0.0059832116,15.916443,0.4206176,-0.17399825,-38.571167,0.0017024577,0.00010681152,0.096309595,1.5258789e-05,-3.0517578e-05,18.086243,-0.0009756088,9.8033905,0.093322754,-0.16749573,9.804633,-0.00011331588
-0.008184719,-0.0059804833,17.111206,0.42061305,-0.17393066,-38.94806,0.00021450222,4.5776367e-05,0.09629293,-0.00035095215,-0.00015258789,18.458557,0.0015773773,9.796219,0.095718384,-0.17468262,9.804635,0.00013976544
-0.008210433,-0.0060162037,17.633057,0.42066804,-0.17478414,-38.848877,-0.0010966212,-0.00012207031,0.09644509,1.5258789e-05,-0.00021362305,18.643188,-0.0014982224,9.800995,0.100494385,-0.18664551,9.804618,0.00022372603
-0.008236131,-0.006048787,17.016602,0.4207211,-0.1755815,-38.008118,-0.0010136962,0.00010681152,0.096623145,-4.5776367e-05,3.0517578e-05,17.173767,0.0002861023,9.800995,0.098098755,-0.18664551,9.804602,0.00053244084
-0.008227007,-0.006047179,16.799927,0.42070833,-0.17547627,-39.75067,0.00031982362,-0.00012207031,0.096476585,-4.5776367e-05,-0.00015258789,18.115234,0.0005083084,9.800995,0.095718384,-0.16749573,9.8046055,-0.0007577613
-0.008255126,-0.0060570673,15.9713745,0.4207507,-0.1758887,-39.916992,-0.00023297966,-7.6293945e-05,0.09688699,-0.00010681152,-0.00015258789,19.848633,-0.00045108795,9.800995,0.093322754,-0.18424988,9.804594,0.0009854957
-0.00824043,-0.006061365,16.05072,0.42073435,-0.17584215,-40.460205,0.0013959855,-0.00012207031,0.09659325,0.00019836426,-0.00021362305,18.80188,-0.00029087067,9.812973,0.06939697,-0.1651001,9.804598,-0.0011147931
-0.008263322,-0.0060493206,16.555786,0.4207566,-0.17581914,-38.702393,-6.303191e-05,-0.00012207031,0.0970956,1.5258789e-05,3.0517578e-05,18.919373,-0.00019168854,9.7986145,0.06700134,-0.17945862,9.804593,0.00030642003
-0.008222577,-0.0060360027,16.65039,0.4206958,-0.17523953,-38.2782,0.0012689382,-1.5258789e-05,0.09649241,7.6293945e-05,-3.0517578e-05,18.20221,0.00050354004,9.808182,0.107681274,-0.17945862,9.804609,-0.001259476
-0.00823338,-0.0060313838,16.28418,0.42070696,-0.17524768,-38.61847,-0.00014850497,-1.5258789e-05,0.09672057,-4.5776367e-05,3.0517578e-05,19.2276,0.0009775162,9.808182,0.093322754,-0.16989136,9.804607,-5.812198e-05
-0.008240612,-0.0060458034,17.037964,0.4207251,-0.17556582,-38.511658,-5.763769e-05,-6.1035156e-05,0.09672672,1.5258789e-05,-0.0002746582,18.539429,0.00017642975,9.8033905,0.102890015,-0.17468262,9.804602,0.00017897785
-0.008247345,-0.006022765,16.783142,0.42071977,-0.17521092,-38.58795,0.0012658536,-6.1035156e-05,0.097037666,-0.00016784668,3.0517578e-05,19.090271,0.0017185211,9.810577,0.095718384,-0.17468262,9.804605,0.0005767718
-0.008244712,-0.0060029672,17.68341,0.4207043,-0.17483534,-39.12506,0.00065150857,4.5776367e-05,0.097157195,7.6293945e-05,-9.1552734e-05,18.319702,-0.0010919571,9.800995,0.095718384,-0.17468262,9.804611,-1.0326505e-05
-0.008208711,-0.0059922775,17.526245,0.42065126,-0.17434247,-38.850403,0.0015875846,-1.5258789e-05,0.09661511,-4.5776367e-05,-0.00021362305,18.154907,-0.0005617142,9.7986145,0.086135864,-0.19621277,9.804625,-0.0011437163
-0.008199056,-0.00602355,16.906738,0.42065778,-0.1748199,-37.675476,-0.0005851537,0.00016784668,0.096184045,-0.00010681152,9.1552734e-05,17.733765,-0.0011777878,9.808182,0.098098755,-0.1651001,9.80462,-0.00023388118
-0.008154158,-0.006021472,15.643311,0.42059845,-0.17440632,-38.594055,0.00092948973,0.00010681152,0.09541382,-0.00022888184,-9.1552734e-05,17.268372,0.00065898895,9.800995,0.095718384,-0.16749573,9.804635,-0.0011299476
-0.008137572,-0.005999995,17.848206,0.42056394,-0.17388375,-37.931824,0.0006455928,0.00010681152,0.09530254,-0.00021362305,0.00015258789,17.61322,0.0007123947,9.805786,0.100494385,-0.18185425,9.804646,-0.00054264814
-0.008112947,-0.006006167,17.048645,0.42053583,-0.17378755,-38.62152,-0.00017608702,0.00010681152,0.094818905,7.6293945e-05,3.0517578e-05,17.572021,0.0007867813,9.808182,0.095718384,-0.16270447,9.804652,-0.00055110455
-0.008141769,-0.0060077086,17.562866,0.42057407,-0.1740567,-38.294983,-0.00015364587,-1.5258789e-05,0.09531164,-0.00022888184,3.0517578e-05,17.677307,-0.0020284653,9.8033905,0.093322754,-0.16749573,9.804643,0.001605697
-0.00819053,-0.0060157706,17.939758,0.42064205,-0.1746095,-37.626648,-0.0012611896,0.00016784668,0.0960996,1.5258789e-05,3.0517578e-05,17.939758,0.0020036697,9.810577,0.100494385,-0.18185425,9.804625,0.0017691031
-0.008216386,-0.0060069617,16.23993,0.42067012,-0.17466906,-38.105774,0.00023324788,-6.1035156e-05,0.09662687,1.5258789e-05,-3.0517578e-05,17.541504,5.6266785e-05,9.805786,0.093322754,-0.18185425,9.804619,0.0009973869
-0.0082206465,-0.006057809,18.791199,0.42070657,-0.17561273,-38.069153,-0.0012453347,0.00010681152,0.09627604,1.5258789e-05,-0.00021362305,16.445923,-0.002989769,9.7986145,0.090927124,-0.17706299,9.8046055,-0.00078865886
-0.008258929,-0.006033528,17.1875,0.42074132,-0.17550029,-38.03253,0.0003258437,-6.1035156e-05,0.09715074,-0.00010681152,-0.00015258789,18.629456,0.0005598068,9.796219,0.100494385,-0.1651001,9.804598,0.001919724
-0.008246464,-0.00603632,17.1875,0.4207269,-0.17544557,-38.03253,-0.00045262277,6.1035156e-05,0.09690875,1.5258789e-05,0.00021362305,18.629456,-0.0007381439,9.805786,0.088531494,-0.17706299,9.804602,-0.0007033199
-0.008266603,-0.006055614,16.845703,0.42076468,-0.17595905,-39.349365,-0.0011474937,-1.5258789e-05,0.09710046,9.1552734e-05,3.0517578e-05,17.718506,-0.00034046173,9.8033905,0.100494385,-0.1651001,9.804591,0.0005408898
-0.008272625,-0.006092726,16.404724,0.42079505,-0.17667222,-38.383484,-0.0013578385,0.00010681152,0.09689536,-0.00010681152,3.0517578e-05,17.788696,0.0024871826,9.810577,0.090927124,-0.17468262,9.80458,0.0004893914
-0.00829389,-0.006038434,16.99524,0.4207895,-0.17588125,-39.741516,0.0012004822,0.00010681152,0.0977229,-0.00022888184,3.0517578e-05,18.847656,0.00085258484,9.805786,0.098098755,-0.17706299,9.804586,0.0015802681
-0.008236659,-0.006022894,16.719055,0.42070603,-0.17512359,-41.011047,0.0016386807,-1.5258789e-05,0.09684915,-0.00035095215,-9.1552734e-05,18.90564,-0.0010290146,9.800995,0.100494385,-0.17706299,9.804608,-0.0013706312
-0.008229936,-0.0060147387,16.854858,0.42069238,-0.17492157,-38.676453,0.00025077164,0.00022888184,0.09679947,-0.00015258789,9.1552734e-05,17.965698,0.00219059,9.805786,0.100494385,-0.16989136,9.804612,0.00057558715
-0.0082208365,-0.0060070874,16.766357,0.42067593,-0.17470862,-39.18152,0.00075790286,0.00016784668,0.09670389,-0.000289917,-3.0517578e-05,18.762207,0.00034236908,9.808182,0.095718384,-0.17228699,9.804617,0.00019652396
-0.008224625,-0.0060512065,16.693115,0.4207077,-0.1755282,-38.69934,-0.0015234351,0.00016784668,0.09640108,-0.00010681152,-0.0002746582,17.71698,-0.00041484833,9.805786,0.100494385,-0.18424988,9.8046055,0.0002571121
-0.008269739,-0.006086493,17.120361,0.42078754,-0.17653671,-38.276672,-0.0005040616,4.5776367e-05,0.09689694,9.1552734e-05,-0.00015258789,18.704224,0.0011758804,9.812973,0.105285645,-0.15792847,9.804582,0.0011896193
-0.008211579,-0.006036787,17.034912,0.42068204,-0.1751613,-39.48822,0.0033682287,-1.5258789e-05,0.09629294,-0.00010681152,-0.00015258789,18.371582,-0.0017671585,9.805786,0.100494385,-0.17706299,9.804613,-0.00082179904
-0.008249002,-0.0060802423,16.75415,0.4207569,-0.17625113,-38.349915,-0.0015560687,0.00018310547,0.09658557,1.5258789e-05,-0.00015258789,18.687439,-0.0019788742,9.8033905,0.102890015,-0.18424988,9.80459,0.00080247223
-0.008260691,-0.0060515897,17.304993,0.42075458,-0.17583758,-38.487244,0.0006826818,4.5776367e-05,0.09703046,1.5258789e-05,9.1552734e-05,19.273376,0.0013952255,9.800995,0.105285645,-0.17706299,9.804593,0.0013120174
-0.00828606,-0.006038931,17.202759,0.42077968,-0.1758244,-38.565063,-0.00030474365,0.00016784668,0.09758139,-0.00022888184,3.0517578e-05,18.786621,-0.0014629364,9.796219,0.093322754,-0.17468262,9.804588,0.0012565628
-0.00827538,-0.0060114013,17.364502,0.4207491,-0.17524321,-38.1958,0.001982361,0.00010681152,0.09762453,-0.00016784668,-0.00021362305,17.990112,-1.6212463e-05,9.805786,0.102890015,-0.17945862,9.804598,0.0007253587
-0.008257779,-0.0060382206,16.899109,0.4207427,-0.17557445,-39.21814,-0.00055380166,0.00016784668,0.09709132,-0.00016784668,-3.0517578e-05,18.527222,0.0001411438,9.805786,0.086135864,-0.1531372,9.804598,-0.00066477805
-0.00822278,-0.006044405,17.45758,0.42070118,-0.17539127,-39.648438,0.00046917796,0.00010681152,0.096425645,-0.00022888184,3.0517578e-05,17.019653,9.250641e-05,9.7986145,0.117248535,-0.17706299,9.804607,-0.00047255307
-0.008188554,-0.005987233,16.442871,0.4206221,-0.17408335,-39.151,0.0029815882,0.00035095215,0.09630373,-0.00016784668,-0.00015258789,18.26477,-0.0010480881,9.800995,0.08135986,-0.16749573,9.804632,0.0006160289
-0.008212537,-0.0060176384,17.485046,0.42067164,-0.17482743,-38.726807,-0.001090154,0.00016784668,0.096470006,-0.00010681152,-9.1552734e-05,18.63861,-0.0027742386,9.796219,0.100494385,-0.17468262,9.804618,0.0011804402
-0.008203735,-0.0059985886,17.118835,0.42064866,-0.17441341,-39.057922,0.00091047585,4.5776367e-05,0.096475,0.0001373291,3.0517578e-05,17.492676,0.0021371841,9.810577,0.098098755,-0.18424988,9.804624,0.00044781715
-0.008205756,-0.005986263,16.392517,0.42064378,-0.17421028,-39.09912,0.00048284233,-1.5258789e-05,0.09661361,-0.00010681152,-9.1552734e-05,18.586731,0.0022211075,9.815353,0.090927124,-0.16270447,9.804626,-0.00017466396
-0.008221964,-0.0060339714,15.994263,0.42069378,-0.17519814,-38.55896,-0.0013958514,0.00016784668,0.096498676,-0.00010681152,-0.00021362305,18.170166,0.00021076202,9.805786,0.090927124,-0.17468262,9.80461,0.00041211396
-0.008184846,-0.006070523,15.995789,0.420668,-0.1755395,-39.05487,0.00037799776,-6.1035156e-05,0.09554165,7.6293945e-05,-0.00033569336,19.212341,-0.00017929077,9.7986145,0.102890015,-0.17468262,9.804614,-0.0017426834
-0.008128435,-0.006029874,16.91742,0.42057028,-0.17434068,-39.527893,0.002522245,0.00010681152,0.094892256,0.0002593994,0.00015258789,18.765259,0.00020694733,9.805786,0.095718384,-0.18424988,9.804641,-0.0013381839
-0.008103051,-0.0060459715,17.070007,0.42054725,-0.17441535,-39.126587,-0.00074216723,4.5776367e-05,0.094312266,-0.000289917,0.00015258789,18.939209,0.00028514862,9.808182,0.093322754,-0.17228699,9.804646,-0.00074435025
-0.008109071,-0.006021378,17.28363,0.42054006,-0.17402667,-39.004517,0.0005618185,-6.1035156e-05,0.09462363,-0.00016784668,3.0517578e-05,18.867493,-3.0517578e-05,9.796219,0.093322754,-0.17706299,9.804649,0.00084391236
-0.008099539,-0.006021904,17.329407,0.42052805,-0.17395616,-38.87329,-0.00022177398,0.00016784668,0.094452,1.5258789e-05,3.0517578e-05,19.593811,0.0004529953,9.8033905,0.093322754,-0.17945862,9.804652,0.00054030865
-0.008119076,-0.0060467185,17.730713,0.42056844,-0.17456302,-39.445496,-0.00059469044,0.00010681152,0.09458714,-0.00010681152,3.0517578e-05,18.962097,-0.0020952225,9.805786,0.095718384,-0.16989136,9.804641,0.00041520596
-0.008125739,-0.006021462,16.537476,0.4205617,-0.17416787,-39.971924,0.00043778121,0.00016784668,0.09491534,-0.000289917,-9.1552734e-05,18.502808,-0.00075912476,9.808182,0.095718384,-0.17706299,9.804644,0.001036711
-0.008205691,-0.006058775,16.557312,0.42068782,-0.17550452,-39.257812,-0.0022969842,4.5776367e-05,0.09600562,-0.00010681152,3.0517578e-05,17.78717,-0.0014600754,9.8033905,0.100494385,-0.17468262,9.804609,0.0021048188
-0.008166759,-0.006032791,16.903687,0.42062166,-0.17471409,-39.29901,0.001930967,4.5776367e-05,0.095540166,-0.00010681152,-0.00015258789,18.606567,-0.00016975403,9.8033905,0.098098755,-0.18424988,9.804628,-0.00029742718
-0.008173954,-0.0060273507,16.445923,0.42062765,-0.17467727,-39.75525,0.0006791651,0.00010681152,0.0957119,-0.00016784668,-0.00015258789,18.261719,-0.0010671616,9.7986145,0.102890015,-0.16989136,9.804627,0.00074153394
-0.008180504,-0.006009029,16.967773,0.42062497,-0.17440505,-38.82904,0.0011247844,0.00016784668,0.09598012,-0.00010681152,-3.0517578e-05,18.533325,8.4877014e-05,9.808182,0.100494385,-0.17228699,9.80463,0.0007019043
-0.008181339,-0.0060077864,16.409302,0.4206253,-0.17438987,-38.656616,0.00038725138,4.5776367e-05,0.09600518,-0.00016784668,-0.00021362305,18.910217,-0.00058460236,9.796219,0.107681274,-0.18185425,9.80463,0.000679709
-0.00815376,-0.0060152183,16.288757,0.42059413,-0.17429131,-38.427734,0.0007776171,4.5776367e-05,0.09545916,-0.00016784668,-0.00015258789,18.26477,9.1552734e-05,9.796219,0.090927124,-0.17945862,9.804637,-0.0009262189
-0.0081381025,-0.006036286,17.149353,0.4205867,-0.17453621,-39.445496,-0.00039993227,-1.5258789e-05,0.0950082,-0.00022888184,3.0517578e-05,17.892456,0.0013437271,9.8033905,0.098098755,-0.17945862,9.804636,-0.0009548664
-0.008195407,-0.006023019,17.430115,0.42065275,-0.17477982,-38.975525,8.068979e-05,0.00016784668,0.09612447,1.5258789e-05,-0.00021362305,18.87207,0.00090026855,9.800995,0.088531494,-0.16989136,9.804621,0.0019986182
-0.008201671,-0.006020549,17.308044,0.42065936,-0.17478825,-38.24768,-0.0001385808,-6.1035156e-05,0.09625503,1.5258789e-05,-3.0517578e-05,17.103577,0.00011920929,9.7986145,0.088531494,-0.16989136,9.80462,0.0009061247
-0.008239527,-0.005994285,16.656494,0.42069232,-0.17463678,-39.18152,-6.0305e-05,4.5776367e-05,0.09713889,-0.00010681152,-3.0517578e-05,18.19458,7.724762e-05,9.796219,0.100494385,-0.17945862,9.804613,0.0019292161
-0.008218322,-0.0059848954,17.175293,0.42065918,-0.17429125,-39.530945,0.0012742579,-0.00012207031,0.09684549,-0.00016784668,-0.00015258789,18.295288,0.000207901,9.8033905,0.107681274,-0.17945862,9.804623,-0.0006469488
-0.008233802,-0.0059827236,15.846252,0.42067787,-0.17438233,-38.438416,0.00017078221,0.00016784668,0.09713524,1.5258789e-05,3.0517578e-05,18.165588,-0.0004892349,9.7986145,0.098098755,-0.18424988,9.804619,0.00050008297
-0.0081855,-0.005991618,16.847229,0.42062083,-0.17413604,-38.642883,-8.276105e-05,0.00010681152,0.09621347,-0.00010681152,9.1552734e-05,18.930054,-0.0008096695,9.7986145,0.093322754,-0.17468262,9.804632,-0.001442872
-0.00820304,-0.0060454574,17.094421,0.4206763,-0.17524451,-38.339233,-0.0013761073,-1.5258789e-05,0.09607059,1.5258789e-05,-0.00015258789,18.301392,-0.0006980896,9.8033905,0.088531494,-0.17706299,9.804614,-0.0001065135
-0.0081694275,-0.006062323,16.352844,0.4206431,-0.17526379,-39.00757,-0.00039550662,-1.5258789e-05,0.095339835,1.5258789e-05,3.0517578e-05,18.022156,1.04904175e-05,9.805786,0.090927124,-0.17945862,9.804621,-0.0015273914
-0.008169077,-0.006072112,16.699219,0.42064857,-0.17543563,-39.72473,-0.00022503734,-0.00012207031,0.09525177,-0.00010681152,-3.0517578e-05,18.756104,-0.00015544891,9.805786,0.100494385,-0.17706299,9.804618,-4.284084e-06
-0.00817303,-0.0060138903,16.23993,0.42061827,-0.17442916,-40.600586,0.0021148622,0.00016784668,0.09580833,-0.00022888184,-9.1552734e-05,19.450378,0.000538826,9.805786,0.100494385,-0.17706299,9.80463,0.00087109953
-0.008142106,-0.0059812525,16.882324,0.4205584,-0.1735871,-39.212036,0.0017725229,-6.1035156e-05,0.09553889,-4.5776367e-05,3.0517578e-05,18.284607,0.0013170242,9.808182,0.08375549,-0.16749573,9.804648,-0.0007730797
-0.008178619,-0.0060278755,16.879272,0.420634,-0.17472576,-39.587402,-0.0021373779,-6.1035156e-05,0.09578934,-0.00016784668,-0.00015258789,18.200684,-0.0015134811,9.800995,0.088531494,-0.17706299,9.8046255,0.0008909926
-0.008190104,-0.006045738,16.836548,0.42065972,-0.17514102,-38.638306,-0.0005057901,-1.5258789e-05,0.095841326,-0.00022888184,-3.0517578e-05,18.769836,0.0012235641,9.8033905,0.088531494,-0.17228699,9.804618,-0.00060129166
-0.008159203,-0.006030969,16.195679,0.42061076,-0.1746182,-39.453125,0.0011342317,0.00010681152,0.095422864,-0.0002746582,9.1552734e-05,18.896484,0.0012922287,9.808182,0.098098755,-0.18185425,9.804631,-0.00018905103
-0.0081293695,-0.0060395305,17.37976,0.42057738,-0.17452095,-38.72986,-0.00016795099,4.5776367e-05,0.09482786,1.5258789e-05,-9.1552734e-05,18.148804,6.580353e-05,9.7986145,0.08375549,-0.17706299,9.804639,-0.0010286719
-0.008146825,-0.006037315,17.636108,0.42059863,-0.17462774,-40.45868,0.00016784668,0.00010681152,0.095152624,-0.00016784668,3.0517578e-05,17.422485,-0.001704216,9.796219,0.100494385,-0.17468262,9.804634,0.0008063093
-0.008166498,-0.006071748,17.196655,0.42064503,-0.1754075,-38.742065,-0.001448065,0.00016784668,0.095209554,1.5258789e-05,-0.00021362305,17.578125,-2.861023e-05,9.805786,0.093322754,-0.17468262,9.804619,0.00074935704
-0.008161148,-0.0060759564,16.151428,0.42064068,-0.1754378,-39.434814,0.0014577508,4.5776367e-05,0.09508051,-0.00016784668,-0.00021362305,18.249512,0.0007915497,9.7986145,0.098098755,-0.17228699,9.80462,0.00040163845
-0.00816725,-0.006012129,17.871094,0.4206097,-0.17434926,-39.6698,0.0020480007,0.00016784668,0.09572167,-0.00022888184,9.1552734e-05,17.76123,4.863739e-05,9.810577,0.102890015,-0.18424988,9.804633,0.0014388785
-0.0081473,-0.0060155885,16.073608,0.42058602,-0.17424376,-38.020325,5.093217e-05,0.00016784668,0.09534275,-0.00039672852,-3.0517578e-05,18.336487,0.0017795563,9.808182,0.093322754,-0.16989136,9.804639,-0.00011347234
-0.008114331,-0.0060234168,17.178345,0.4205481,-0.17410716,-39.08081,0.0001437068,0.00016784668,0.09469887,-0.00010681152,-3.0517578e-05,18.377686,6.484985e-05,9.800995,0.095718384,-0.17228699,9.804647,-0.0006600395
-0.008153814,-0.006046221,16.526794,0.42061308,-0.17484535,-38.615417,-0.001284346,-1.5258789e-05,0.09520069,-0.00010681152,-0.00033569336,18.515015,-0.00027942657,9.8033905,0.095718384,-0.17228699,9.804629,0.0007535219
-0.008154676,-0.0060762707,17.430115,0.42063248,-0.17538914,-38.62915,-0.0012065917,-0.00018310547,0.094964355,0.00038146973,3.0517578e-05,17.829895,0.0007696152,9.810577,0.090927124,-0.16989136,9.804622,-0.0006771758
-0.00816694,-0.0060503976,17.738342,0.4206326,-0.17503,-39.149475,0.0005903393,0.00010681152,0.095396005,0.00019836426,3.0517578e-05,19.126892,0.00051021576,9.810577,0.107681274,-0.18185425,9.804625,0.0015132055
-0.008167196,-0.0060640643,16.25061,0.42064124,-0.17527616,-38.380432,-0.00013025105,0.00010681152,0.095286116,-0.00010681152,3.0517578e-05,18.746948,-0.00061511993,9.8033905,0.107681274,-0.18902588,9.804621,-5.2414834e-05
-0.0081970375,-0.0060493876,17.36145,0.42067093,-0.17526433,-38.269043,0.0008241534,0.00016784668,0.095932394,-0.00022888184,-0.0002746582,17.90924,0.0005502701,9.8033905,0.093322754,-0.16989136,9.804614,0.0014501289
-0.008233029,-0.0060636834,16.37268,0.42072618,-0.17582148,-39.84375,-0.0005296916,-6.1035156e-05,0.09644405,-0.00035095215,-0.00015258789,18.257141,-0.00042247772,9.7986145,0.093322754,-0.16989136,9.8046,0.00094047934
-0.008212785,-0.0060853437,16.42456,0.4207132,-0.17603843,-39.263916,-8.505583e-05,4.5776367e-05,0.095907666,-0.00016784668,3.0517578e-05,19.068909,-0.00012874603,9.8033905,0.098098755,-0.17228699,9.804601,-0.0006740019
-0.008217756,-0.006015287,16.63971,0.42067695,-0.17482919,-38.27362,0.0022948235,0.00016784668,0.09658122,-0.00010681152,-0.00015258789,18.041992,0.0003900528,9.810577,0.086135864,-0.15792847,9.804616,0.001763463
-0.008252752,-0.00606423,16.230774,0.42075202,-0.17599669,-40.249634,-0.0013009906,0.00010681152,0.096785404,1.5258789e-05,-3.0517578e-05,18.247986,0.0013837814,9.812973,0.093322754,-0.17706299,9.804593,0.0008351356
-0.008232277,-0.0060421363,17.115784,0.42071208,-0.17543042,-39.02588,0.0014876872,4.5776367e-05,0.09661121,1.5258789e-05,-0.0002746582,18.537903,-0.00019645691,9.815353,0.105285645,-0.17706299,9.804605,0.00029325485
-0.008234212,-0.0059933164,16.920471,0.42068484,-0.17457491,-38.208008,0.0020650625,0.00010681152,0.09705377,-0.00016784668,-0.00015258789,17.892456,-0.0001296997,9.8033905,0.114852905,-0.18185425,9.804616,0.0010568947
-0.008197889,-0.00600554,16.578674,0.42064533,-0.17448853,-38.33618,-0.00018893182,4.5776367e-05,0.096314296,-0.00010681152,9.1552734e-05,19.32373,-8.9645386e-05,9.8033905,0.102890015,-0.16989136,9.804625,-0.0010870397
-0.008140338,-0.0060569076,17.13562,0.42060214,-0.17492318,-39.48517,-0.0014321655,0.00022888184,0.09487487,-0.00021362305,9.1552734e-05,18.77594,-0.0016527176,9.8033905,0.095718384,-0.17468262,9.804631,-0.0020199642
-0.008141634,-0.006062455,17.204285,0.4206072,-0.1750331,-37.919617,0.00034953654,-1.5258789e-05,0.094851196,7.6293945e-05,-0.00015258789,17.825317,0.0009660721,9.7986145,0.090927124,-0.1651001,9.804629,0.00013528019
-0.008170811,-0.006038895,17.48352,0.4206306,-0.17485705,-39.328003,0.00067181885,0.00010681152,0.09556016,-0.00033569336,-0.00021362305,18.553162,0.0011224747,9.812973,0.093322754,-0.17945862,9.8046255,0.0018164515
-0.008173457,-0.0060279733,17.138672,0.4206274,-0.17468423,-39.33716,0.0009587407,-6.1035156e-05,0.09569799,7.6293945e-05,-0.00015258789,18.858337,-0.0014753342,9.8033905,0.090927124,-0.17228699,9.804627,2.2679567e-05
-0.008179688,-0.0060224407,16.864014,0.42063206,-0.17463768,-38.754272,0.0009161085,4.5776367e-05,0.09585357,0.00033569336,-9.1552734e-05,18.04657,0.00045681,9.805786,0.086135864,-0.16989136,9.804626,9.384006e-05
-0.008160915,-0.006034586,17.51709,0.4206152,-0.17469713,-39.749146,-0.00021618605,-6.1035156e-05,0.09542262,0.00033569336,-9.1552734e-05,17.904663,-0.00017547607,9.805786,0.095718384,-0.17468262,9.804629,-0.00042040646
-0.008151963,-0.0059917867,16.435242,0.42057756,-0.17385784,-39.942932,0.0020379722,0.00010681152,0.095623694,-0.00022888184,-3.0517578e-05,19.145203,-0.0004310608,9.793823,0.102890015,-0.17228699,9.804643,0.0005709529
-0.0081568435,-0.0059943856,16.467285,0.42058545,-0.17394516,-39.538574,-2.7641654e-05,-6.1035156e-05,0.09568757,-4.5776367e-05,-3.0517578e-05,18.586731,-0.0018835068,9.808182,0.095718384,-0.1651001,9.80464,4.325062e-05
-0.008188799,-0.00597365,15.492249,0.42061415,-0.17384285,-40.438843,9.3609095e-05,4.5776367e-05,0.096421674,-0.00016784668,0.00015258789,19.178772,-0.00061511993,9.805786,0.098098755,-0.17706299,9.804635,0.0012195483
-0.008176001,-0.006001147,16.487122,0.42061433,-0.17422654,-39.918518,-0.00046218932,0.00010681152,0.09596708,-0.00016784668,-0.00021362305,18.824768,0.0024585724,9.8033905,0.095718384,-0.16989136,9.804633,-0.00024531782
-0.00820472,-0.0060245655,16.744995,0.42066574,-0.17488554,-39.3219,-0.0007416308,-6.1035156e-05,0.0962749,0.0002746582,-3.0517578e-05,18.437195,0.0008401871,9.805786,0.102890015,-0.17945862,9.804618,0.0001598224
-0.008206065,-0.0060183736,16.94336,0.4206637,-0.17478625,-38.710022,-0.00037415326,0.00016784668,0.09635032,1.5258789e-05,0.00021362305,19.255066,-0.0007162094,9.808182,0.098098755,-0.17706299,9.804619,0.0005608797
-0.008161578,-0.0060319267,16.790771,0.42061442,-0.17465521,-37.98828,-0.000523746,0.00016784668,0.09545652,1.5258789e-05,-3.0517578e-05,19.255066,-0.002081871,9.796219,0.086135864,-0.17228699,9.80463,-0.0011597201
-0.0081536295,-0.0060479254,16.082764,0.42061388,-0.17487425,-39.227295,-7.0124865e-05,0.00022888184,0.09518321,-0.00016784668,3.0517578e-05,18.327332,-0.0010738373,9.8033905,0.093322754,-0.16270447,9.804629,0.00055306405
-0.008210649,-0.0060657314,16.503906,0.42069846,-0.17567033,-38.560486,-0.0016843826,0.00016784668,0.09603436,-4.5776367e-05,9.1552734e-05,17.066956,-0.0016736984,9.805786,0.088531494,-0.17468262,9.804606,0.002090402
-0.008187424,-0.0060373563,17.214966,0.42065117,-0.1749689,-38.87024,0.0012270659,-1.5258789e-05,0.095864475,1.5258789e-05,-3.0517578e-05,18.943787,0.0030326843,9.796219,0.100494385,-0.16989136,9.804621,9.403378e-05
-0.008173898,-0.006041026,15.960693,0.4206359,-0.174921,-39.642334,0.00021733344,-1.5258789e-05,0.095596485,-4.5776367e-05,-9.1552734e-05,18.643188,-5.340576e-05,9.800995,0.095718384,-0.17945862,9.804625,-0.00035487115
-0.0081875045,-0.0060237236,16.085815,0.42064297,-0.17472614,-40.174866,0.00026632845,0.00022888184,0.095979966,-0.00016784668,0.00021362305,19.367981,-3.6239624e-05,9.7986145,0.095718384,-0.17945862,9.804625,0.00069618225
-0.008187592,-0.0059931464,16.86554,0.42062446,-0.17418088,-39.881897,0.0011693388,4.5776367e-05,0.09623738,-0.00022888184,-0.00015258789,17.956543,0.0015707016,9.805786,0.095718384,-0.17468262,9.804631,0.0013924316
-0.008174387,-0.005974998,17.384338,0.42059633,-0.17374608,-38.580322,-0.00021328032,-1.5258789e-05,0.09615756,0.0001373291,-3.0517578e-05,18.229675,0.0027246475,9.805786,0.090927124,-0.17228699,9.80464,-0.0006866902
-0.008164168,-0.0059681293,17.036438,0.42057893,-0.17353773,-39.21814,0.000537321,-1.5258789e-05,0.09603575,0.0001373291,3.0517578e-05,17.326355,-0.0002603531,9.808182,0.098098755,-0.17228699,9.804645,0.0003977269
-0.008183801,-0.0059912475,16.29486,0.4206184,-0.17411517,-39.18152,-0.0012778938,0.00016784668,0.09618675,-0.00010681152,-9.1552734e-05,18.258667,0.00030231476,9.8033905,0.105285645,-0.17706299,9.804632,0.0007181093
-0.008198088,-0.0059707216,17.492676,0.42062438,-0.17386846,-38.612366,0.0011041611,4.5776367e-05,0.096609145,1.5258789e-05,-9.1552734e-05,17.67273,-0.0012292862,9.800995,0.090927124,-0.16989136,9.804633,0.0007748306
-0.00819426,-0.005985284,16.851807,0.4206283,-0.17409639,-37.92267,-0.0003465563,-1.5258789e-05,0.09642013,-0.00010681152,9.1552734e-05,17.971802,-2.670288e-05,9.808182,0.095718384,-0.17468262,9.80463,1.7888844e-05
-0.008186834,-0.0059793196,16.703796,0.42061508,-0.1739276,-38.70392,0.00020729005,-1.5258789e-05,0.09633977,-4.5776367e-05,-9.1552734e-05,17.877197,0.0006227493,9.8033905,0.093322754,-0.18185425,9.804634,-0.00039305538
-0.008218418,-0.0060203243,16.651917,0.42068088,-0.1749247,-38.427734,-0.0009445995,0.00010681152,0.09655068,-0.00010681152,-0.00015258789,18.200684,0.00025749207,9.805786,0.095718384,-0.17468262,9.804615,0.00082897395
-0.008231367,-0.006033377,17.054749,0.42070556,-0.17526639,-39.193726,0.00036273897,-1.5258789e-05,0.09666858,-4.5776367e-05,-0.00021362305,18.695068,0.00049495697,9.805786,0.095718384,-0.17228699,9.804607,-0.00023736805
-0.008249754,-0.0060206787,16.456604,0.42072162,-0.17519389,-39.682007,0.00028045475,-1.5258789e-05,0.09709739,-0.00022888184,-9.1552734e-05,18.421936,-0.0011053085,9.810577,0.100494385,-0.17945862,9.804605,0.0014907271
-0.008217319,-0.0060370127,17.596436,0.4206896,-0.17521347,-39.135742,0.0007777065,0.00016784668,0.09639173,1.5258789e-05,-0.0002746582,18.075562,0.0005502701,9.8033905,0.095718384,-0.17706299,9.804611,-0.00163614
-0.008221366,-0.00605444,16.999817,0.42070547,-0.1755586,-38.345337,-0.0005580038,-0.00024414062,0.09631686,0.00019836426,-9.1552734e-05,17.97638,-0.00027275085,9.7986145,0.095718384,-0.17945862,9.8046055,-0.00036977977
-0.0082364185,-0.0060687796,16.635132,0.42073366,-0.17594092,-38.916016,-0.00040751696,-1.5258789e-05,0.09646084,0.0001373291,9.1552734e-05,19.000244,-0.00034427643,9.808182,0.098098755,-0.18185425,9.804598,0.0006933063
-0.008243315,-0.006034506,17.492676,0.4207217,-0.17538676,-37.602234,0.0014322847,0.00010681152,0.096868694,-4.5776367e-05,-0.0002746582,18.88733,0.0015306473,9.817749,0.105285645,-0.18185425,9.804603,0.0012392476
-0.00824429,-0.00603199,16.918945,0.42072144,-0.17535003,-38.80768,0.0002002269,0.00022888184,0.09690686,0.0001373291,3.0517578e-05,17.805481,-0.00057792664,9.805786,0.093322754,-0.16270447,9.804604,0.00071564317
-0.008213069,-0.006019549,16.81366,0.4206735,-0.174866,-37.309265,0.00065536797,0.00016784668,0.09646336,-0.00035095215,-3.0517578e-05,17.492676,-0.0024633408,9.7986145,0.102890015,-0.18664551,9.804617,-0.00050709397
-0.008227439,-0.006038099,16.397095,0.42070335,-0.17531775,-38.500977,0.00038956106,0.00010681152,0.09656015,-0.00010681152,-0.00021362305,18.751526,-3.9100647e-05,9.800995,0.105285645,-0.17945862,9.804607,0.0006017536
-0.008205674,-0.0060034744,16.73584,0.42065415,-0.17451693,-39.73999,0.0017326623,0.00016784668,0.09646815,1.5258789e-05,3.0517578e-05,19.320679,-0.00082969666,9.8033905,0.090927124,-0.16989136,9.804623,-1.9185245e-05
-0.008209806,-0.006010711,17.20581,0.4206639,-0.17468081,-40.023804,-0.00024135411,4.5776367e-05,0.09648007,-0.00016784668,-3.0517578e-05,17.567444,0.0015211105,9.810577,0.098098755,-0.16749573,9.80462,0.0006785318
-0.008189122,-0.005978235,16.748047,0.42061737,-0.17392744,-39.21814,0.0018685758,-6.1035156e-05,0.096388996,-4.5776367e-05,-9.1552734e-05,19.566345,-0.00056934357,9.8033905,0.105285645,-0.18185425,9.804634,-0.0006617382
-0.00822193,-0.005965897,16.874695,0.42065227,-0.17398228,-40.56549,-0.00022993982,6.1035156e-05,0.09706779,-0.00010681152,3.0517578e-05,18.032837,-0.00022792816,9.808182,0.093322754,-0.17228699,9.804626,0.0012850836
-0.008212389,-0.0059716892,17.63916,0.42064348,-0.17400569,-41.18042,-0.0004350394,4.5776367e-05,0.096851945,-0.00010681152,-3.0517578e-05,18.463135,0.0017576218,9.800995,0.098098755,-0.17945862,9.804628,-0.00018626451
-0.008216357,-0.00598455,16.482544,0.42065644,-0.1742686,-41.46576,-0.00017295778,-1.5258789e-05,0.096813925,-0.00010681152,-3.0517578e-05,19.69757,-9.8228455e-05,9.812973,0.100494385,-0.17945862,9.804624,9.635836e-05
-0.008263935,-0.0059725675,16.252136,0.42071065,-0.17445377,-39.35547,3.2931566e-06,0.00010681152,0.09774884,0.00019836426,3.0517578e-05,18.658447,-0.0010194778,9.805786,0.095718384,-0.16989136,9.804611,0.0018062219
-0.008221187,-0.006008044,16.932678,0.42067698,-0.17472865,-37.83722,-0.0009110272,0.00016784668,0.09670204,-0.00039672852,3.0517578e-05,18.13507,0.00010871887,9.8033905,0.098098755,-0.17468262,9.804617,-0.0012217015
-0.00819566,-0.005999444,16.18042,0.42063874,-0.17436099,-39.17694,0.0006221086,-0.00012207031,0.09632621,7.6293945e-05,-3.0517578e-05,17.610168,-0.00072193146,9.8033905,0.105285645,-0.18902588,9.804627,-0.00059812516
-0.0082509965,-0.0060078423,17.634583,0.42071542,-0.1749751,-38.653564,-0.0008994639,-6.1035156e-05,0.09722662,-4.5776367e-05,3.0517578e-05,17.597961,0.0017499924,9.815353,0.105285645,-0.1603241,9.804607,0.0013613924
-0.008267927,-0.005996104,16.706848,0.42073014,-0.17490754,-37.773132,0.00022934377,4.5776367e-05,0.09762185,-3.0517578e-05,-0.00015258789,19.093323,0.00068950653,9.808182,0.088531494,-0.16749573,9.804605,0.0007185787
-0.008261762,-0.005992576,17.60559,0.42072004,-0.17479281,-39.318848,0.0010699928,-0.00012207031,0.09754323,-4.5776367e-05,-0.00021362305,17.108154,-0.00064373016,9.800995,0.090927124,-0.16989136,9.804607,-0.00038968027
-0.008221358,-0.0059586624,16.275024,0.42064714,-0.17384829,-38.64746,0.0015513301,4.5776367e-05,0.09711829,7.6293945e-05,9.1552734e-05,18.022156,-0.00091934204,9.800995,0.08135986,-0.17706299,9.804628,-0.000921309
-0.008200277,-0.005968096,17.089844,0.42062563,-0.17383993,-37.99286,0.00035859644,-1.5258789e-05,0.09666951,-4.5776367e-05,-3.0517578e-05,17.176819,0.0006713867,9.800995,0.093322754,-0.17468262,9.804632,-0.0009488091
-0.008238725,-0.0059816833,17.996216,0.42068362,-0.17440504,-38.700867,-0.00076052547,-1.5258789e-05,0.0972303,0.00019836426,-9.1552734e-05,18.659973,-0.0006685257,9.800995,0.100494385,-0.18902588,9.804617,0.0008892417
-0.008251124,-0.005951693,17.260742,0.4206814,-0.17397352,-38.35144,0.00072553754,-1.5258789e-05,0.09769879,-0.00010681152,-9.1552734e-05,17.503357,0.0011491776,9.805786,0.090927124,-0.17945862,9.80462,0.0013610944
-0.008230387,-0.0059864363,17.855835,0.42067572,-0.17441998,-37.96692,-0.0005071312,-6.1035156e-05,0.09704427,1.5258789e-05,-3.0517578e-05,16.648865,-0.0017843246,9.805786,0.07896423,-0.15553284,9.804619,-0.0015613288
-0.008276294,-0.0059988606,16.468811,0.42074266,-0.17502697,-37.916565,-0.00061923265,-7.6293945e-05,0.097745545,-0.00010681152,-3.0517578e-05,17.712402,-0.00022888184,9.793823,0.095718384,-0.17468262,9.804602,0.0010954216
-0.008275109,-0.0060633305,15.9713745,0.4207804,-0.1761682,-38.398743,-0.0026076734,0.00010681152,0.09718505,-0.00022888184,-3.0517578e-05,17.848206,-0.0019044876,9.7986145,0.100494385,-0.17945862,9.804586,-0.00097465515
-0.0083013885,-0.0060300175,16.090393,0.42079407,-0.17579387,-38.853455,0.0010811985,-1.5258789e-05,0.09792486,-0.00016784668,-3.0517578e-05,18.493652,0.00048160553,9.810577,0.100494385,-0.17228699,9.804585,0.001640223
-0.008271384,-0.006016753,17.45758,0.4207472,-0.17530526,-38.04016,0.00084371865,-6.1035156e-05,0.097509645,-0.00010681152,-9.1552734e-05,18.319702,0.0007991791,9.793823,0.100494385,-0.17468262,9.804599,-0.0010612682
-0.0082979705,-0.006018281,16.200256,0.4207825,-0.17555562,-39.530945,0.000116184354,0.00010681152,0.09796317,1.5258789e-05,3.0517578e-05,18.97583,-0.0018529892,9.810577,0.100494385,-0.17706299,9.804589,0.0006459877
-0.0082792295,-0.0060178055,17.515564,0.42075798,-0.17538989,-38.92212,0.00020210445,0.00016784668,0.09763845,7.6293945e-05,-3.0517578e-05,17.991638,0.0008354187,9.810577,0.093322754,-0.17945862,9.804596,0.00047819316
-0.0082638515,-0.006040652,17.424011,0.42075202,-0.17566879,-39.378357,1.7166138e-05,4.5776367e-05,0.09717746,1.5258789e-05,-9.1552734e-05,17.663574,0.0010385513,9.805786,0.093322754,-0.16749573,9.804595,-0.0007292107
-0.00825731,-0.0060451166,16.815186,0.42074627,-0.17569363,-38.856506,-0.00043295324,4.5776367e-05,0.09702534,-0.00010681152,9.1552734e-05,18.444824,0.0014839172,9.8033905,0.102890015,-0.17706299,9.804596,-0.00035559386
-0.008265347,-0.0060528032,16.889954,0.42076135,-0.17589833,-39.59198,-0.00025078654,-0.00018310547,0.09710197,-4.5776367e-05,-0.00015258789,18.363953,-0.0025205612,9.8033905,0.100494385,-0.17468262,9.804592,0.00029738247
-0.008269775,-0.0060126493,16.934204,0.42074263,-0.17521848,-38.934326,0.0017112345,0.00010681152,0.09751577,0.0001373291,-3.0517578e-05,19.093323,0.0002450943,9.793823,0.093322754,-0.17228699,9.8046,0.0005997196
-0.008247349,-0.006043287,16.59851,0.42073226,-0.1755774,-39.80255,-9.573996e-05,4.5776367e-05,0.09686596,7.6293945e-05,-0.00021362305,18.35022,-0.0015945435,9.7986145,0.090927124,-0.17228699,9.8046,-0.0008941516
-0.008214305,-0.006067567,17.22107,0.42070433,-0.17573376,-39.62555,0.00052534044,-0.00018310547,0.09608312,0.0001373291,-0.00033569336,18.939209,-0.00089359283,9.8033905,0.100494385,-0.18185425,9.804605,-0.0022584796
-0.008211569,-0.0060072565,16.633606,0.42066407,-0.17463392,-39.442444,0.0032599717,4.5776367e-05,0.096539915,0.00033569336,-9.1552734e-05,18.914795,0.0005187988,9.805786,0.095718384,-0.17945862,9.804621,0.0011124983
-0.0082125375,-0.0060377796,16.374207,0.4206839,-0.17518708,-38.94043,-0.000983581,0.00022888184,0.09630145,-0.00016784668,-3.0517578e-05,18.344116,-0.00061130524,9.796219,0.095718384,-0.17468262,9.804613,-8.0518425e-05
-0.008226014,-0.006047557,15.692139,0.4207073,-0.17547467,-38.61389,-0.00045397878,0.00022888184,0.09645598,-0.00010681152,-3.0517578e-05,17.996216,-0.00024604797,9.810577,0.095718384,-0.17706299,9.8046055,0.0009563118
-0.008210815,-0.0060420716,16.549683,0.42068428,-0.17524925,-39.87274,0.00052930415,-1.5258789e-05,0.0962353,-0.00010681152,-9.1552734e-05,19.792175,0.0020723343,9.8033905,0.100494385,-0.16749573,9.804612,0.0002207458
-0.008196875,-0.0060009244,17.362976,0.4206412,-0.17439762,-37.895203,0.0018242747,0.00010681152,0.09633515,-0.00010681152,-3.0517578e-05,17.993164,-0.00054073334,9.808182,0.093322754,-0.17945862,9.804626,0.00012371689
-0.008186607,-0.0060670143,16.680908,0.42066815,-0.1754916,-38.545227,-0.0018523484,-1.5258789e-05,0.09560191,-0.00022888184,-3.0517578e-05,17.556763,0.0006055832,9.8033905,0.095718384,-0.18185425,9.804614,-0.0008247718
-0.008177928,-0.0060814284,15.910339,0.4206657,-0.1756762,-39.16931,-0.0004812032,-6.1035156e-05,0.09532904,-4.5776367e-05,-9.1552734e-05,17.921448,-0.00039958954,9.7986145,0.095718384,-0.16989136,9.804613,-0.0010230318
-0.008199865,-0.0060994113,15.724182,0.42070502,-0.17618126,-39.52942,-0.0004414767,0.00010681152,0.09556329,-0.00015258789,3.0517578e-05,18.389893,0.00085544586,9.8033905,0.098098755,-0.17945862,9.804602,0.0006458834
-0.008221113,-0.0061050607,16.111755,0.42073596,-0.17646033,-40.290833,-0.00041997433,-1.5258789e-05,0.09588866,-0.00010681152,-9.1552734e-05,18.643188,-0.0015048981,9.7986145,0.098098755,-0.17945862,9.804593,0.00080087036
-0.008213821,-0.0061223623,17.376709,0.42073706,-0.1767081,-39.70337,7.7202916e-05,0.00010681152,0.09561594,1.5258789e-05,-9.1552734e-05,17.980957,0.0005970001,9.808182,0.095718384,-0.16989136,9.804592,-0.0003636852
-0.008195264,-0.0060866247,15.525818,0.42069128,-0.17591435,-40.634155,0.0014470369,0.00010681152,0.095589615,0.0001373291,-0.00021362305,18.536377,0.0013532639,9.805786,0.095718384,-0.17468262,9.8046055,0.0001444444
-0.008240572,-0.006097896,16.856384,0.42075676,-0.17649564,-39.352417,-0.00011639297,-1.5258789e-05,0.09628994,-4.5776367e-05,-9.1552734e-05,17.880249,0.00074481964,9.805786,0.090927124,-0.17468262,9.804589,0.0018208548
-0.008235661,-0.006099408,16.241455,0.42075133,-0.17648144,-39.501953,0.00012521446,4.5776367e-05,0.096191145,0.0001373291,-3.0517578e-05,18.496704,0.0013008118,9.808182,0.095718384,-0.17468262,9.80459,-0.00023820996
-0.008225023,-0.006045822,17.897034,0.42070493,-0.1754354,-38.175964,0.001955375,4.5776367e-05,0.09645313,-0.00010681152,-9.1552734e-05,18.338013,0.0008659363,9.805786,0.093322754,-0.17228699,9.804606,0.00070114434
-0.008225249,-0.0060064904,17.268372,0.4206813,-0.17473496,-40.049744,0.0017329305,4.5776367e-05,0.09678629,-0.000289917,-3.0517578e-05,18.536377,0.000579834,9.8033905,0.100494385,-0.17468262,9.804615,0.00059413165
-0.008233686,-0.006026056,16.436768,0.42070413,-0.17515512,-39.22577,-0.00095897913,0.00022888184,0.096770525,1.5258789e-05,-3.0517578e-05,18.183899,5.722046e-05,9.796219,0.100494385,-0.17468262,9.804608,0.00085363537
-0.00827995,-0.006065365,16.52069,0.42078787,-0.17624515,-39.0625,-0.0017955452,4.5776367e-05,0.097252935,-0.00035095215,9.1552734e-05,18.348694,-0.0021886826,9.8033905,0.093322754,-0.17706299,9.8045845,0.0013431534
-0.008243305,-0.006046732,16.159058,0.42072913,-0.175605,-39.093018,0.0013954937,-0.00024414062,0.09676619,-0.00010681152,-3.0517578e-05,17.288208,0.0008420944,9.800995,0.100494385,-0.17945862,9.804601,-9.340793e-05
-0.008249645,-0.006032819,17.326355,0.42072886,-0.17540975,-39.172363,6.9737434e-06,0.00016784668,0.096993856,-0.00022888184,0.00015258789,19.509888,0.0013523102,9.7986145,0.098098755,-0.17706299,9.804602,0.00063353777
-0.008224999,-0.006018738,17.17987,0.42068842,-0.17495157,-40.133667,0.00050520897,0.00016784668,0.0966794,-0.00030517578,4.5776367e-05,18.29071,-0.00053691864,9.808182,0.100494385,-0.16989136,9.804613,-0.00023949891
-0.008225462,-0.0059877015,17.451477,0.42067012,-0.17440125,-39.315796,0.00091581047,0.00016784668,0.096947275,0.0,-1.5258789e-05,18.069458,-4.673004e-05,9.810577,0.095718384,-0.17468262,9.80462,0.0014002249
-0.0082170805,-0.0060161813,16.339111,0.42067662,-0.1748395,-38.52234,-0.0012872368,0.00010681152,0.096561894,-0.00018310547,4.5776367e-05,18.989563,-0.00018787384,9.800995,0.090927124,-0.16989136,9.804616,-0.00036507845
-0.008175437,-0.006016479,16.752625,0.42062294,-0.17449558,-39.55078,0.0009986609,-7.6293945e-05,0.0958289,6.1035156e-05,-1.5258789e-05,18.518066,-0.0010900497,9.8033905,0.098098755,-0.17706299,9.804629,-0.0013051108
-0.008211633,-0.0060179457,15.910339,0.42067066,-0.17482531,-39.245605,-0.00059480965,0.00016784668,0.09645157,0.00012207031,4.5776367e-05,17.919922,-8.583069e-05,9.8033905,0.100494385,-0.16749573,9.804617,0.001429528
-0.008215997,-0.006014893,17.126465,0.42067444,-0.17480741,-39.030457,0.00010116398,-7.6293945e-05,0.09655368,-0.00012207031,-1.5258789e-05,18.69812,-0.00037384033,9.800995,0.098098755,-0.17706299,9.804617,0.0006120801
-0.008207189,-0.0060178023,17.063904,0.42066482,-0.17478548,-37.72583,8.548796e-05,-1.5258789e-05,0.09637481,-0.00018310547,-1.5258789e-05,17.901611,0.00070762634,9.800995,0.098098755,-0.17945862,9.804619,-0.00041797012
-0.008241272,-0.0060405675,17.297363,0.42072275,-0.17547786,-38.861084,-0.0013577491,-7.6293945e-05,0.09678212,0.00024414062,-1.5258789e-05,19.110107,0.0017557144,9.805786,0.090927124,-0.17468262,9.804603,0.00012727827
-0.008208886,-0.0060239565,17.340088,0.42067075,-0.1749096,-38.83362,0.00095137954,-7.6293945e-05,0.09635307,0.0,0.00010681152,18.629456,0.0010080338,9.808182,0.090927124,-0.17228699,9.804617,-0.0011269525
-0.008186104,-0.006009109,15.792847,0.42063224,-0.17445342,-40.56549,0.00026498735,-0.00018310547,0.09607769,6.1035156e-05,0.00010681152,18.226624,-0.00013446808,9.805786,0.090927124,-0.17945862,9.804627,-0.0008508414
-0.008209733,-0.0060061296,16.845703,0.420661,-0.17459838,-37.84485,-0.000996545,0.00010681152,0.09651713,6.1035156e-05,0.00010681152,17.89093,0.0031013489,9.800995,0.098098755,-0.17706299,9.80462,0.0006169304
-0.008173326,-0.0060168672,17.149353,0.42062044,-0.1735364,-36.439514,0.00055386126,-0.00018310547,0.094983354,0.00024414062,-0.0001373291,18.237305,-0.0016031265,9.8033905,0.090927124,-0.16270447,9.804654,-0.0012862459
-0.008115128,-0.00599108,16.584778,0.42052948,-0.1740145,-39.241028,0.0022185594,0.00016784668,0.09597084,0.0,-0.00019836426,19.316101,-0.0012187958,9.800995,0.098098755,-0.18424988,9.804637,-0.0019090325
-0.008217322,-0.0060280217,16.685486,0.42068416,-0.17505296,-39.07318,-0.0022528917,-7.6293945e-05,0.09646703,-0.00018310547,4.5776367e-05,17.552185,-0.00033283234,9.808182,0.102890015,-0.17228699,9.804613,0.0014021322
-0.008212813,-0.0060015856,16.412354,0.42066222,-0.17454308,-39.108276,0.0005867481,-7.6293945e-05,0.0966092,-6.1035156e-05,0.00016784668,18.907166,0.00089740753,9.800995,0.102890015,-0.17706299,9.804621,-0.00042283535
-0.008190484,-0.0060065533,16.125488,0.42063636,-0.17444451,-39.424133,0.00025738776,4.5776367e-05,0.0961759,-6.1035156e-05,-7.6293945e-05,17.84668,-0.00020694733,9.805786,0.102890015,-0.17468262,9.804626,-0.0004614964
-0.008198467,-0.0059814947,16.323853,0.42063144,-0.17406401,-38.516235,0.0010614842,-1.5258789e-05,0.09652565,-6.1035156e-05,4.5776367e-05,18.748474,-0.00061416626,9.800995,0.100494385,-0.16989136,9.80463,0.0006261617
-0.008222178,-0.005993236,16.690063,0.42066926,-0.17447251,-38.24768,-0.0014190525,0.00016784668,0.096843325,-6.1035156e-05,0.00016784668,17.721558,-0.0023260117,9.800995,0.093322754,-0.17228699,9.804619,0.00079282373
-0.0082520805,-0.005993236,17.007446,0.4207079,-0.17472337,-39.82086,-0.0006903261,0.00010681152,0.0973679,-6.1035156e-05,-1.5258789e-05,19.0094,0.0005226135,9.7986145,0.093322754,-0.17468262,9.80461,0.0012268946
-0.008225336,-0.0060102693,16.459656,0.4206837,-0.17480318,-37.72888,-0.00035625696,-0.00012207031,0.09675619,0.0,-1.5258789e-05,18.67981,0.0011396408,9.808182,0.098098755,-0.17945862,9.804615,-0.0010357052
-0.00824968,-0.006009474,16.77246,0.4207147,-0.17499319,-39.439392,-0.0006123781,-0.00012207031,0.097189866,6.1035156e-05,0.00010681152,17.715454,0.002998352,9.800995,0.095718384,-0.17228699,9.804607,0.00042303652
-0.0082626855,-0.006016967,16.926575,0.42073607,-0.17523609,-39.230347,-0.00086823106,-1.5258789e-05,0.09735528,0.00012207031,0.00016784668,18.928528,-0.0011987686,9.8033905,0.100494385,-0.17228699,9.804601,0.0005075857
-0.00827023,-0.006021956,16.667175,0.42074886,-0.17538847,-39.678955,-0.00094886124,-7.6293945e-05,0.097445846,6.1035156e-05,0.00016784668,19.398499,-0.00047588348,9.800995,0.088531494,-0.16989136,9.804597,-0.0002978593
-0.00825522,-0.0060481913,16.642761,0.42074543,-0.175731,-38.61847,-0.001094535,4.5776367e-05,0.09696294,6.1035156e-05,0.00010681152,19.16504,-4.7683716e-06,9.805786,0.098098755,-0.17706299,9.804596,-0.0010204017
-0.008244714,-0.0060387817,17.134094,0.42072612,-0.17547485,-40.08484,0.00057320297,-0.00024414062,0.09685744,6.1035156e-05,-7.6293945e-05,18.69049,0.00016117096,9.805786,0.100494385,-0.17228699,9.804602,-0.0006714761
-0.008244317,-0.0060283574,16.384888,0.42071927,-0.17528538,-39.593506,0.0004016906,-7.6293945e-05,0.09693774,0.0,-1.5258789e-05,19.548035,0.0020217896,9.808182,0.100494385,-0.17706299,9.804605,-0.00028868765
-0.008236295,-0.0060579013,16.242981,0.42072687,-0.17574562,-38.633728,-0.0013029724,4.5776367e-05,0.09654972,0.00018310547,0.00016784668,17.536926,-0.0015239716,9.793823,0.100494385,-0.18185425,9.8046,-0.000610359
-0.0082606375,-0.006036238,15.312195,0.42074516,-0.17556301,-39.40277,-4.7445297e-05,-7.6293945e-05,0.09715804,0.0002593994,4.5776367e-05,18.77594,0.000415802,9.805786,0.100494385,-0.17706299,9.804597,0.0011747777
-0.008268178,-0.0059773712,16.271973,0.4207191,-0.17457515,-39.138794,0.0013430268,-7.6293945e-05,0.097783074,0.00012207031,0.000289917,18.98346,-0.00020313263,9.7986145,0.102890015,-0.17945862,9.804609,0.0007949099
-0.0082924105,-0.00600532,16.651917,0.42076743,-0.17527753,-38.427734,-0.0017844439,-1.5258789e-05,0.09797416,-0.00012207031,-7.6293945e-05,18.200684,-0.0017328262,9.817749,0.107681274,-0.17228699,9.804594,-0.00010484457
-0.00829404,-0.0060206642,16.178894,0.42077887,-0.1755652,-38.545227,-0.00029695034,-7.6293945e-05,0.0978743,0.0,-1.5258789e-05,18.740845,0.0010738373,9.8033905,0.098098755,-0.17945862,9.80459,-1.0363758e-05
-0.008321123,-0.006027911,17.149353,0.4208183,-0.17592187,-37.867737,-0.00065650046,-7.6293945e-05,0.098288625,-0.00012207031,4.5776367e-05,18.066406,8.678436e-05,9.810577,0.095718384,-0.17228699,9.80458,0.0005360693
-0.008330153,-0.006014284,17.00592,0.4208217,-0.17575434,-39.17389,0.00014354289,4.5776367e-05,0.09856111,6.1035156e-05,-1.5258789e-05,17.96875,0.0006980896,9.7986145,0.095718384,-0.17945862,9.80458,0.0004889369
-0.00835235,-0.0060384283,15.756226,0.4208651,-0.17637177,-40.142822,-0.0011672229,0.00010681152,0.09874823,-6.1035156e-05,-1.5258789e-05,18.789673,-0.0006532669,9.805786,0.093322754,-0.17945862,9.804566,0.00030495226
-0.0083117755,-0.0060624657,16.307068,0.42082727,-0.17646043,-39.335632,-0.00035963953,-1.5258789e-05,0.097835355,-0.00012207031,4.5776367e-05,18.418884,0.00020313263,9.808182,0.100494385,-0.17945862,9.804574,-0.0016517341
-0.008314788,-0.0060189473,17.955017,0.42080465,-0.17570865,-40.08026,0.0010567755,-7.6293945e-05,0.09825257,-0.00012207031,0.00016784668,18.971252,0.0018825531,9.805786,0.090927124,-0.17228699,9.804584,0.000790298
-0.008293048,-0.0060430416,16.90216,0.4207912,-0.17595644,-39.974976,-0.001106903,-7.6293945e-05,0.097669534,0.0002593994,-1.5258789e-05,18.521118,-0.00178051,9.808182,0.095718384,-0.16989136,9.804585,-0.0010133758
-0.00825171,-0.006036208,16.633606,0.4207336,-0.17548758,-38.946533,0.00058297813,4.5776367e-05,0.09700169,-0.00012207031,0.00010681152,17.87262,-0.00016021729,9.810577,0.095718384,-0.17228699,9.8046,-0.00034106523
-0.008207977,-0.006042211,17.155457,0.4206807,-0.17522794,-38.66577,0.00033216178,4.5776367e-05,0.09618436,0.00018310547,0.00016784668,19.186401,0.0010099411,9.796219,0.098098755,-0.17468262,9.804613,-0.0014359131
-0.008240648,-0.006031479,16.004944,0.4207164,-0.17531034,-40.06653,-0.001029104,4.5776367e-05,0.09684724,-6.1035156e-05,0.00016784668,18.157959,-0.0010824203,9.805786,0.095718384,-0.17468262,9.804605,0.0014921278
-0.008244635,-0.0060541085,17.033386,0.42073536,-0.17574786,-38.435364,-0.0010719448,0.00010681152,0.096727744,-0.00018310547,-7.6293945e-05,18.458557,0.00086307526,9.7986145,0.100494385,-0.17945862,9.804598,0.00017295033
-0.008264799,-0.006030206,16.726685,0.42074686,-0.17549022,-38.18817,0.001061216,-1.5258789e-05,0.09728151,0.00030517578,4.5776367e-05,18.286133,-0.0005302429,9.8033905,0.107681274,-0.17228699,9.804597,0.0010561347
-0.008263287,-0.0060119573,16.419983,0.4207338,-0.17515168,-38.916016,0.00097060204,-7.6293945e-05,0.09740776,6.1035156e-05,-0.00019836426,17.945862,0.0004415512,9.796219,0.098098755,-0.17228699,9.804602,0.00021059066
-0.008275887,-0.006007443,16.096497,0.42074734,-0.17517678,-39.7583,2.4273992e-05,0.00016784668,0.097666554,-0.00012207031,0.00010681152,18.487549,-0.0011396408,9.800995,0.095718384,-0.17228699,9.804599,0.00067459047
-0.00826333,-0.006027636,16.52832,0.4207434,-0.175432,-40.11841,-0.001157254,-1.5258789e-05,0.09727726,-0.00018310547,-1.5258789e-05,18.341064,-0.0002861023,9.812973,0.102890015,-0.17945862,9.804598,-0.00061323494
-0.00830089,-0.006081162,16.4917,0.4208246,-0.17670292,-39.50348,-0.002270341,-7.6293945e-05,0.097487904,0.00024414062,0.00010681152,17.863464,0.0012454987,9.815353,0.098098755,-0.17228699,9.804573,0.00037515908
-0.008262295,-0.0060313763,16.151428,0.42074436,-0.17549011,-39.512634,0.0015397072,4.5776367e-05,0.09722781,0.0,0.00016784668,18.249512,0.00034713745,9.812973,0.095718384,-0.17228699,9.804598,-0.00057172775
-0.008280044,-0.0060799452,16.960144,0.42079687,-0.17650628,-40.37323,-0.0019830018,0.00010681152,0.097132504,0.0,-1.5258789e-05,19.32373,0.000872612,9.8033905,0.090927124,-0.17945862,9.804581,7.390976e-06
-0.0082739685,-0.006063125,16.242981,0.42077878,-0.17615496,-40.4068,5.6430697e-05,0.00016784668,0.09716677,-0.00012207031,0.00016784668,18.408203,-0.0005426407,9.800995,0.090927124,-0.17468262,9.804586,0.00069294125
-0.008207024,-0.0060638785,16.438293,0.42069265,-0.17560683,-38.893127,0.0007044077,-1.5258789e-05,0.09598628,-6.1035156e-05,0.00016784668,19.31305,-0.0010061264,9.8033905,0.100494385,-0.16270447,9.804607,-0.0021954551
-0.008195237,-0.0060391403,16.51001,0.42066234,-0.17506625,-40.756226,0.00040656328,4.5776367e-05,0.095986575,6.1035156e-05,-7.6293945e-05,19.06128,0.0015630722,9.8033905,0.090927124,-0.18424988,9.804617,0.00019225478
-0.0082068425,-0.006041842,17.234802,0.420679,-0.17521183,-39.405823,0.00052440166,-1.5258789e-05,0.09616754,-0.00012207031,-1.5258789e-05,19.184875,-0.00310421,9.800995,0.093322754,-0.17228699,9.804613,0.0004995391
-0.008222249,-0.0060442914,16.952515,0.42070043,-0.17538479,-39.649963,-0.0005027205,-0.00012207031,0.096417286,0.0,0.00010681152,18.203735,-0.0011119843,9.7986145,0.098098755,-0.17468262,9.804607,-0.00021779537
-0.008217437,-0.0060489406,16.163635,0.42069703,-0.17542745,-38.661194,-0.0007135719,0.00010681152,0.09629396,6.1035156e-05,0.00022888184,19.624329,-0.0010614395,9.796219,0.098098755,-0.16749573,9.804608,0.00015480816
-0.0082419,-0.005995241,16.317749,0.42069596,-0.17467378,-39.68506,0.000663802,-7.6293945e-05,0.097172536,0.0,0.00016784668,19.624329,-0.0023088455,9.808182,0.098098755,-0.17228699,9.804613,0.0014392659
-0.008228819,-0.0059849955,16.06903,0.4206728,-0.17438108,-38.66577,0.00015123188,4.5776367e-05,0.0970288,-0.00018310547,-7.6293945e-05,19.29779,0.0010118484,9.805786,0.090927124,-0.17706299,9.804619,-0.0003446117
-0.008212396,-0.0059906007,16.981506,0.42065498,-0.17434344,-40.21759,0.00035123527,0.00016784668,0.09669381,-0.00012207031,0.00010681152,17.478943,0.0009889603,9.800995,0.098098755,-0.17228699,9.804624,-1.4536083e-05
-0.008213954,-0.006010274,15.791321,0.420669,-0.17470779,-40.68451,-0.0002245903,-7.6293945e-05,0.09655649,-0.00030517578,-0.00032043457,19.270325,0.0006608963,9.805786,0.095718384,-0.17706299,9.804618,0.00011947751
-0.0082151955,-0.0060273716,15.065002,0.420681,-0.17502351,-40.725708,-0.0006251186,0.00016784668,0.096435174,-0.00012207031,-1.5258789e-05,20.36438,0.00013923645,9.8033905,0.100494385,-0.18185425,9.804614,-0.0009499267
-0.008205991,-0.006043941,16.107178,0.42067918,-0.17524217,-39.613342,-0.00063835084,-1.5258789e-05,0.09613505,0.00012207031,4.5776367e-05,18.649292,0.0013608932,9.805786,0.105285645,-0.16989136,9.804613,6.058812e-05
-0.008250707,-0.0060276985,16.90979,0.42072713,-0.17532723,-40.65094,-0.0005620718,-7.6293945e-05,0.09705534,-6.1035156e-05,0.00010681152,18.51654,-0.0010061264,9.808182,0.093322754,-0.17706299,9.804603,0.0015408322
-0.008238969,-0.006009313,16.638184,0.42070076,-0.17490046,-39.968872,0.00020243227,-0.00018310547,0.09700334,0.0,0.00016784668,18.910217,0.00013256073,9.805786,0.090927124,-0.17706299,9.80461,-0.0010475293
-0.0082256375,-0.0060213855,16.300964,0.42069086,-0.1750042,-39.375305,-0.0001590401,-1.5258789e-05,0.09666844,6.1035156e-05,-1.5258789e-05,19.384766,0.0008831024,9.817749,0.095718384,-0.18185425,9.804612,-0.0009458512
-0.008214726,-0.0060441573,16.793823,0.4206906,-0.1753193,-39.266968,-0.0012772232,-1.5258789e-05,0.096286446,0.0,0.00016784668,19.166565,0.0001077652,9.808182,0.105285645,-0.17706299,9.80461,-0.0010527521
-0.008202557,-0.0060390914,17.06543,0.4206718,-0.17512678,-38.372803,0.00068081915,-0.00018310547,0.096115395,0.00012207031,-1.5258789e-05,18.94226,-8.869171e-05,9.800995,0.095718384,-0.17468262,9.804615,-0.000637047
-0.008210163,-0.0060057812,17.262268,0.42066133,-0.17459577,-38.742065,0.00016067922,-7.6293945e-05,0.096527584,6.1035156e-05,0.00010681152,19.673157,0.0012197495,9.808182,0.095718384,-0.17228699,9.804621,0.00013498217
-0.008171538,-0.006030802,16.384888,0.4206266,-0.17471865,-39.0213,-0.00018949807,-7.6293945e-05,0.095640644,-0.00012207031,4.5776367e-05,18.50586,9.536743e-06,9.800995,0.102890015,-0.17468262,9.804627,-0.0016025603
-0.008186543,-0.00603769,18.034363,0.4206502,-0.17496747,-39.87274,-0.0006632805,4.5776367e-05,0.09584622,6.1035156e-05,4.5776367e-05,18.008423,-0.0006246567,9.800995,0.095718384,-0.17945862,9.804621,0.0003463328
-0.008221556,-0.0060386765,16.705322,0.4206961,-0.17527872,-38.449097,-0.00011254847,-1.5258789e-05,0.09645214,0.0,-0.00019836426,19.007874,0.0011739731,9.7986145,0.098098755,-0.16749573,9.804609,0.0011689141
-0.00822573,-0.006026438,16.673279,0.42069405,-0.17509519,-40.11841,0.00043196976,0.00010681152,0.096627764,-0.00018310547,-1.5258789e-05,17.22107,-0.0004901886,9.800995,0.098098755,-0.16989136,9.80461,0.0007515475
-0.008226058,-0.006041651,16.22467,0.42070374,-0.17536959,-39.001465,-2.6121736e-05,4.5776367e-05,0.09650619,0.0,-1.5258789e-05,17.210388,-9.536743e-06,9.7986145,0.098098755,-0.17706299,9.804606,0.0001559928
-0.00825485,-0.0060561197,16.648865,0.42074978,-0.17586946,-39.553833,-0.0009531975,-7.6293945e-05,0.09689009,0.0,-7.6293945e-05,18.031311,0.0007982254,9.8033905,0.100494385,-0.17228699,9.804594,0.0004851967
-0.008209461,-0.0060339924,16.862488,0.4206776,-0.17509364,-38.90686,0.00090663135,0.00016784668,0.09627918,0.0,0.00022888184,18.045044,-0.00042819977,9.7986145,0.093322754,-0.17468262,9.804614,-0.0010531023
-0.008184069,-0.006039185,16.532898,0.42064792,-0.17497341,-39.712524,6.6548586e-05,-0.00012207031,0.095790304,0.0,-1.5258789e-05,19.552612,-0.00028514862,9.8033905,0.100494385,-0.17706299,9.804622,-0.001279898
-0.008181622,-0.0060542477,16.575623,0.42065394,-0.17522186,-38.890076,-0.0011251718,-0.00012207031,0.09562133,0.00012207031,0.00022888184,18.113708,-0.0006723404,9.805786,0.093322754,-0.17706299,9.804619,-0.0003905669
-0.008205332,-0.0060434793,17.366028,0.42067805,-0.1752284,-38.919067,-0.0008907765,-7.6293945e-05,0.09612734,0.00018310547,0.00010681152,19.030762,-0.00013637543,9.7986145,0.095718384,-0.17468262,9.804613,0.00030943006
-0.0081896195,-0.006033511,17.242432,0.42065164,-0.17491864,-38.7619,0.000709787,-1.5258789e-05,0.09593516,0.00012207031,4.5776367e-05,18.304443,-0.0013628006,9.7986145,0.098098755,-0.16270447,9.804621,-0.00020881742
-0.0082098525,-0.006034902,16.740417,0.42067868,-0.17511316,-38.749695,-0.00078077614,-7.6293945e-05,0.09627843,6.1035156e-05,0.00010681152,17.315674,-0.0007572174,9.808182,0.090927124,-0.17228699,9.804614,0.00039761513
-0.008224042,-0.0060268803,17.048645,0.42069215,-0.17508894,-38.96637,0.0003721565,-7.6293945e-05,0.09659447,0.00018310547,-0.00019836426,18.617249,-0.001458168,9.8033905,0.095718384,-0.18424988,9.804611,0.00033295155
-0.008259653,-0.0060601905,16.13617,0.4207585,-0.17598245,-38.346863,0.0005675703,-7.6293945e-05,0.09694026,0.0,-1.5258789e-05,19.223022,-0.0015506744,9.805786,0.098098755,-0.17228699,9.804591,-2.3372471e-05
-0.008253798,-0.0060490924,17.150879,0.42074415,-0.17573518,-39.596558,0.0008049458,4.5776367e-05,0.096930474,0.00012207031,-7.6293945e-05,17.892456,-0.0003900528,9.7986145,0.095718384,-0.17945862,9.804597,-0.0004845932
-0.008216179,-0.0060621314,16.168213,0.42070344,-0.17565241,-39.863586,-0.00024296343,0.00010681152,0.096161485,-0.00012207031,0.00016784668,19.534302,-0.0004272461,9.808182,0.102890015,-0.17945862,9.804605,-0.0009037629
-0.0082568135,-0.0060483343,16.207886,0.42074758,-0.17574692,-38.511658,-0.00061526895,-6.1035156e-05,0.09698969,6.1035156e-05,4.5776367e-05,18.099976,0.0006685257,9.800995,0.100494385,-0.17468262,9.804595,0.0018352494
-0.008249779,-0.006033807,16.789246,0.42072964,-0.17542852,-38.76953,0.00024618208,4.5776367e-05,0.09698794,6.1035156e-05,0.00022888184,18.043518,-0.0011529922,9.8033905,0.093322754,-0.17228699,9.804602,-0.00030875206
-0.008252596,-0.0060413578,16.053772,0.4207379,-0.17558697,-38.990784,-0.00029362738,4.5776367e-05,0.09697413,-0.00018310547,-0.0001373291,17.929077,0.0021104813,9.8033905,0.098098755,-0.17706299,9.804599,-6.1258674e-05
-0.008253197,-0.0060518538,16.595459,0.42074504,-0.17577943,-39.42566,-0.0003412217,-7.6293945e-05,0.09689682,-0.00012207031,-1.5258789e-05,18.35022,0.00045108795,9.8033905,0.093322754,-0.18185425,9.804596,1.3791025e-05
-0.0082539935,-0.0060688625,15.765381,0.42075643,-0.17608982,-39.575195,-0.0007624924,-1.5258789e-05,0.096768394,0.00012207031,0.00010681152,17.912292,-0.0016222,9.800995,0.090927124,-0.17228699,9.804592,-0.0003228411
-0.008275508,-0.0060604787,18.049622,0.42077917,-0.17612062,-38.97705,0.00022999942,-1.5258789e-05,0.09721592,0.0,-7.6293945e-05,18.338013,4.1007996e-05,9.8033905,0.095718384,-0.17228699,9.804586,0.00041965395
-0.0082754,-0.006097634,16.421509,0.42080164,-0.17678313,-37.713623,-0.0010312349,0.00010681152,0.09690293,-0.00012207031,-0.00019836426,18.115234,-0.00013637543,9.800995,0.098098755,-0.17706299,9.804577,1.6026199e-05
-0.008284733,-0.0060950485,16.540527,0.42081213,-0.1768153,-39.02588,0.00068581104,0.00016784668,0.09708827,-0.00012207031,-0.00019836426,17.547607,0.0007162094,9.810577,0.095718384,-0.17706299,9.804576,0.00078849494
-0.008276634,-0.0061399727,17.712402,0.42082903,-0.17754947,-39.060974,-0.0016782433,-1.5258789e-05,0.09657005,6.1035156e-05,0.00022888184,18.72406,0.0015945435,9.808182,0.093322754,-0.17468262,9.804567,-0.00085277855
-0.008250876,-0.006089969,16.618347,0.42076525,-0.17644054,-39.509583,0.0013018996,4.5776367e-05,0.096537024,-0.00018310547,0.00022888184,18.673706,0.0016880035,9.805786,0.095718384,-0.17706299,9.804587,0.00011809915
-0.008229545,-0.0060672793,16.360474,0.42072386,-0.17585646,-39.68811,0.00073060393,-1.5258789e-05,0.096352845,-6.1035156e-05,4.5776367e-05,18.096924,0.0014476776,9.805786,0.088531494,-0.17468262,9.8046,-0.0001777634
-0.008183033,-0.0060419138,16.195679,0.42064825,-0.17501344,-39.03351,0.0013029724,-7.6293945e-05,0.09574929,-0.00024414062,4.5776367e-05,17.852783,-0.0020666122,9.7986145,0.090927124,-0.17468262,9.804621,-0.0017153025
-0.008237645,-0.006029831,16.810608,0.42071152,-0.17525573,-39.45465,-0.00038561225,-1.5258789e-05,0.096808374,-0.00018310547,0.00010681152,18.28003,-0.0026578903,9.808182,0.100494385,-0.18185425,9.804606,0.0017856658
-0.008278793,-0.0060322057,16.412354,0.42076617,-0.17564334,-38.658142,-0.00096061826,4.5776367e-05,0.09751023,-0.00035095215,-7.6293945e-05,18.992615,-0.00017642975,9.8033905,0.098098755,-0.18185425,9.804592,0.0015575886
-0.008245451,-0.006070316,15.9729,0.42074627,-0.1760441,-39.94751,-0.0010153502,-7.6293945e-05,0.09660641,0.00012207031,0.00022888184,18.803406,0.0019569397,9.808182,0.093322754,-0.16749573,9.804594,-0.0018512681
-0.008243457,-0.0060515963,16.60614,0.4207323,-0.17569312,-38.78479,0.0010069907,-7.6293945e-05,0.09672814,-0.00018310547,-0.0001373291,17.47284,-0.0007677078,9.8033905,0.098098755,-0.17706299,9.804599,-6.1772764e-05
-0.008296631,-0.0060486686,16.950989,0.4207993,-0.17608699,-39.16626,-0.00074492395,-0.00012207031,0.09768528,-0.00012207031,4.5776367e-05,19.332886,0.0006084442,9.808182,0.100494385,-0.17228699,9.804583,0.0016176999
-0.0082368385,-0.0059897336,16.05072,0.42068607,-0.17453296,-39.10675,0.0022398531,0.00010681152,0.09712983,6.1035156e-05,0.00016784668,18.971252,-0.00088119507,9.8033905,0.095718384,-0.16749573,9.804616,-0.0011791512
-0.008260198,-0.0059874444,16.915894,0.42071488,-0.17468804,-38.432312,-0.0007200241,-7.6293945e-05,0.097558744,-6.1035156e-05,0.00016784668,17.807007,-0.00026512146,9.8033905,0.093322754,-0.17228699,9.804608,0.0010329112
-0.008224891,-0.0059872568,17.329407,0.4206691,-0.17438853,-38.87329,-5.570054e-05,-7.6293945e-05,0.09694097,6.1035156e-05,0.00010681152,19.592285,0.00029850006,9.800995,0.093322754,-0.17468262,9.804621,-0.0017076731
-0.008227318,-0.005961869,16.970825,0.4206568,-0.17395553,-39.624023,0.00022880733,0.00016784668,0.097196005,-0.00012207031,-7.6293945e-05,19.572449,3.1471252e-05,9.800995,0.093322754,-0.17706299,9.8046255,0.0009210333
-0.008217986,-0.005998397,16.65039,0.42066696,-0.17452952,-38.531494,-0.00038571656,0.00016784668,0.09672662,0.00012207031,-0.0001373291,17.07306,0.00018596649,9.805786,0.100494385,-0.17228699,9.80462,-0.00028900802
-0.008239393,-0.005996252,17.218018,0.42069334,-0.17467079,-40.148926,-5.8561563e-06,0.0,0.097120084,0.00012207031,-7.6293945e-05,18.855286,0.0010814667,9.805786,0.095718384,-0.18185425,9.804613,0.00097534806
-0.008209172,-0.006043547,17.57965,0.42068306,-0.17526181,-39.624023,-0.0013327599,0.00010681152,0.09619413,0.00024414062,0.00010681152,18.875122,-0.0011930466,9.805786,0.093322754,-0.17706299,9.804612,-0.001678668
-0.00819844,-0.0060872124,16.357422,0.42069575,-0.1759515,-39.611816,-0.001342982,4.5776367e-05,0.09564042,0.0,-7.6293945e-05,18.017578,0.0019102097,9.805786,0.095718384,-0.17468262,9.8046055,-0.00089021027
-0.008213898,-0.0060880193,15.542603,0.42071626,-0.17609555,-38.34076,-0.0002399832,-0.00024414062,0.09590479,6.1035156e-05,-1.5258789e-05,17.991638,0.00036907196,9.8033905,0.095718384,-0.18185425,9.8046,-0.00019200891
-0.008225621,-0.006052005,16.116333,0.4207095,-0.1755508,-38.21869,0.001130417,-1.5258789e-05,0.09641186,-6.1035156e-05,4.5776367e-05,17.855835,0.0008878708,9.805786,0.098098755,-0.17706299,9.804605,0.00095979124
-0.008288734,-0.006056782,16.622925,0.420794,-0.17616557,-37.364197,-0.0008979887,-1.5258789e-05,0.09747882,-4.5776367e-05,-0.0001373291,17.886353,-0.0021219254,9.808182,0.098098755,-0.17228699,9.804583,0.002054572
-0.008289461,-0.006069528,16.203308,0.4208027,-0.17639928,-38.508606,-0.00042650104,-1.5258789e-05,0.09738488,-6.1035156e-05,4.5776367e-05,18.02063,0.0009870529,9.800995,0.105285645,-0.17706299,9.80458,-0.000236772
-0.008305268,-0.006061944,16.290283,0.42081854,-0.1763965,-38.578796,5.9261918e-05,0.00016784668,0.0977256,-0.00012207031,4.5776367e-05,18.263245,1.6212463e-05,9.796219,0.102890015,-0.17706299,9.804576,0.0010855645
-0.008279539,-0.0060566645,15.625,0.42078206,-0.17608634,-38.2843,0.00021632016,0.0,0.097318545,6.1035156e-05,-7.6293945e-05,17.028809,-0.0006341934,9.796219,0.098098755,-0.17706299,9.804586,-0.00041151792
-0.008271414,-0.0060841944,16.694641,0.42078832,-0.17650974,-38.926697,-0.0005527884,-0.00012207031,0.09694556,-0.00030517578,-1.5258789e-05,17.715454,-0.0002565384,9.810577,0.100494385,-0.17706299,9.804583,-0.001227431
-0.00829346,-0.0060626515,16.297913,0.4208037,-0.17631005,-39.707947,0.00068323314,4.5776367e-05,0.09751258,0.00012207031,-7.6293945e-05,18.255615,0.00015735626,9.7986145,0.098098755,-0.17706299,9.80458,0.0008292943
-0.0082587395,-0.0060494975,16.575623,0.4207508,-0.17578384,-38.96637,0.0008748472,0.00016784668,0.09701374,0.0,0.00016784668,18.112183,9.1552734e-05,9.800995,0.095718384,-0.17468262,9.804594,-0.00035069138
-0.008260461,-0.006065252,16.215515,0.4207626,-0.1760796,-40.13977,-0.0007542223,-1.5258789e-05,0.09691205,0.00012207031,0.00010681152,19.132996,-0.00025463104,9.8033905,0.093322754,-0.17706299,9.80459,-0.00024778396
-0.008216795,-0.0060567725,16.567993,0.42070097,-0.1755619,-39.414978,-8.191168e-05,0.00010681152,0.09621714,6.1035156e-05,0.00016784668,17.948914,-1.6212463e-05,9.7986145,0.098098755,-0.17228699,9.804606,-0.000742957
-0.008218938,-0.0060222805,15.075684,0.42068273,-0.174964,-39.289856,0.0005353689,4.5776367e-05,0.09654343,6.1035156e-05,0.00016784668,18.527222,0.0010929108,9.817749,0.102890015,-0.17468262,9.804614,0.0010768622
-0.008227244,-0.0060320958,15.397644,0.42069945,-0.17520891,-37.921143,-0.00090004504,0.00010681152,0.09660697,-0.00024414062,4.5776367e-05,18.069458,-0.00023078918,9.8033905,0.095718384,-0.17706299,9.804608,0.0002971962
-0.008247101,-0.0060496754,16.249084,0.42073584,-0.17568938,-39.656067,-0.0013695508,4.5776367e-05,0.09680812,-6.1035156e-05,0.00010681152,18.57605,-0.0004720688,9.8033905,0.095718384,-0.17228699,9.804598,0.000571236
-0.008267172,-0.0059906654,17.016602,0.42072585,-0.17480409,-38.848877,0.0015697032,0.00010681152,0.097654134,-0.00012207031,0.00010681152,19.258118,0.0011177063,9.810577,0.088531494,-0.18185425,9.804606,0.0018711835
-0.008228382,-0.0060120816,16.235352,0.42068875,-0.17486109,-38.6734,-0.00052672625,0.00016784668,0.096794456,0.0,4.5776367e-05,18.502808,-0.0002155304,9.7986145,0.090927124,-0.17706299,9.804613,-0.0010827035
-0.008238597,-0.0060543898,16.783142,0.4207277,-0.17570223,-39.263916,-0.0016039312,4.5776367e-05,0.096619494,-6.1035156e-05,0.00010681152,19.004822,-0.0012636185,9.810577,0.100494385,-0.17706299,9.8046,4.439801e-05
-0.008285575,-0.0060538086,16.903687,0.4207881,-0.17608598,-35.375977,-0.0007343441,0.00016784668,0.09744832,-6.1035156e-05,-1.5258789e-05,16.868591,0.0013952255,9.805786,0.095718384,-0.16989136,9.8045845,0.0018482506
-0.008306274,-0.00605085,16.97998,0.42081308,-0.17620686,-39.163208,-0.00062789023,-0.00012207031,0.09783614,0.0,-0.0001373291,17.565918,-0.0016260147,9.808182,0.100494385,-0.17228699,9.804579,0.0007512495
-0.008299885,-0.0060438407,15.829468,0.42080054,-0.17602809,-40.699768,0.0013463199,-7.6293945e-05,0.097782776,-0.00018310547,-7.6293945e-05,19.8349,0.00019454956,9.8033905,0.098098755,-0.16989136,9.804583,-0.0004016608
-0.008305783,-0.006030527,17.268372,0.42080006,-0.17583984,-38.62152,0.00020609796,0.00010681152,0.09799767,-6.1035156e-05,4.5776367e-05,18.707275,-0.0006656647,9.8033905,0.093322754,-0.17228699,9.804584,0.0005921945
-0.008268545,-0.006050002,16.949463,0.42076376,-0.17587513,-39.271545,-0.00024811924,4.5776367e-05,0.097181514,-0.00012207031,-1.5258789e-05,18.205261,-0.00013160706,9.800995,0.095718384,-0.17945862,9.804591,-0.0009866208
-0.008256659,-0.0060260356,16.680908,0.4207338,-0.17534746,-38.664246,0.0006519705,-7.6293945e-05,0.09717366,-0.00024414062,0.00016784668,18.603516,-0.00071907043,9.8033905,0.095718384,-0.17468262,9.804601,-0.0005020946
-0.0082232375,-0.006039198,16.537476,0.4206986,-0.17530213,-39.07013,0.00037615,0.00010681152,0.096477255,-0.00018310547,-7.6293945e-05,18.592834,-0.00016307831,9.805786,0.088531494,-0.16989136,9.804608,-0.0012391806
-0.0081921015,-0.006030193,16.322327,0.42065284,-0.1748802,-39.1922,0.00018627942,4.5776367e-05,0.09600645,-0.00018310547,0.00022888184,18.661499,0.00036525726,9.800995,0.098098755,-0.17945862,9.804621,-0.00077014416
-0.008196682,-0.006056985,17.268372,0.42067507,-0.17539701,-38.62152,-0.001923278,4.5776367e-05,0.095862575,-0.00018310547,0.00016784668,18.707275,-0.00024223328,9.810577,0.102890015,-0.17468262,9.804613,0.00033602864
-0.0082207,-0.0060743024,16.186523,0.4207167,-0.17590766,-39.675903,-0.0014210194,-7.6293945e-05,0.0961389,-0.00018310547,0.00016784668,18.73169,-0.00095558167,9.805786,0.093322754,-0.17468262,9.804601,6.428361e-05
-0.008213012,-0.0060522608,16.915894,0.42069334,-0.17544962,-38.356018,0.00027103722,0.00022888184,0.09618856,-0.00018310547,0.00016784668,17.811584,-0.00016498566,9.805786,0.100494385,-0.17706299,9.804609,0.00073259324
-0.008233949,-0.0060286946,16.127014,0.42070606,-0.17520443,-38.223267,-0.00019222498,0.00010681152,0.09675304,0.00012207031,0.00016784668,18.017578,0.0002861023,9.805786,0.088531494,-0.17468262,9.804607,0.00087095797
-0.00816759,-0.006051308,18.318176,0.420634,-0.17505169,-35.935974,-0.000105038285,0.00016784668,0.095399775,-0.00024414062,0.00022888184,17.24701,-0.00045490265,9.810577,0.095718384,-0.18185425,9.804624,-0.0020764247
-0.008179372,-0.006070734,16.73584,0.42066106,-0.17549735,-39.46991,-0.0018003881,4.5776367e-05,0.095443875,-0.00018310547,0.00010681152,18.276978,0.0011348724,9.800995,0.100494385,-0.16749573,9.804615,0.0004982874
-0.008185321,-0.0060315463,16.026306,0.4206449,-0.17484751,-38.827515,0.0011292845,4.5776367e-05,0.0958762,-0.00012207031,4.5776367e-05,17.52472,-0.00068855286,9.805786,0.090927124,-0.17228699,9.804623,0.000786528
-0.00819408,-0.0060344497,16.473389,0.420658,-0.1749728,-38.86566,-0.00018377602,-1.5258789e-05,0.09600554,6.1035156e-05,0.00010681152,18.751526,-0.00045871735,9.8033905,0.095718384,-0.17945862,9.804619,0.00043052435
-0.008189157,-0.0060328427,16.889954,0.42065066,-0.17490281,-39.590454,-0.00073225796,-0.00012207031,0.09593262,-0.00018310547,0.00010681152,18.3609,-0.000626564,9.800995,0.095718384,-0.17228699,9.804621,-0.00021071732
-0.008189808,-0.0060426663,16.60614,0.4206575,-0.1750837,-38.78479,-7.7843666e-05,-7.6293945e-05,0.09586183,-0.00018310547,-1.5258789e-05,17.47284,6.389618e-05,9.805786,0.093322754,-0.17228699,9.804619,-0.0006284863
-0.008214591,-0.006015012,16.101074,0.42067268,-0.17479774,-38.43689,0.00060492754,-0.00024414062,0.09652801,-0.00022888184,-1.5258789e-05,17.611694,0.0008392334,9.8033905,0.093322754,-0.17468262,9.804617,0.00037971884
-0.008190018,-0.0060119466,16.386414,0.42063904,-0.17453691,-39.323425,-0.00014060736,0.00022888184,0.0961226,-0.00012207031,0.00022888184,18.504333,0.0004014969,9.8033905,0.095718384,-0.1651001,9.8046255,-0.00040701777
-0.008218015,-0.0060261367,16.098022,0.4206839,-0.1750251,-38.482666,-0.0020527989,-7.6293945e-05,0.096494965,0.00012207031,0.00022888184,18.656921,-0.0022935867,9.810577,0.100494385,-0.17228699,9.804613,0.001139
-0.008206215,-0.006000607,16.90979,0.42065307,-0.17447028,-39.601135,0.00072167814,4.5776367e-05,0.09650164,-0.00018310547,0.00010681152,18.684387,-0.0013780594,9.800995,0.098098755,-0.16749573,9.804624,-0.0002951473
-0.008219186,-0.00596018,16.796875,0.42064527,-0.17385715,-39.375305,0.00082051754,0.00010681152,0.097067475,0.0,0.00010681152,18.118286,-0.00059604645,9.815353,0.093322754,-0.17468262,9.804627,0.0012935549
-0.008226699,-0.0060178996,16.976929,0.42069012,-0.17495087,-38.68103,-0.0023793876,4.5776367e-05,0.09671624,-0.00012207031,-0.0001373291,18.693542,0.0010347366,9.800995,0.093322754,-0.17706299,9.804613,-0.00051205605
-0.008228247,-0.0060090474,16.322327,0.42068672,-0.17480576,-39.115906,0.0008133203,4.5776367e-05,0.09681747,-0.00018310547,-0.0001373291,18.663025,-0.00042629242,9.7986145,0.090927124,-0.17706299,9.804613,0.0003501922
-0.008181318,-0.0059897425,16.9281,0.42061427,-0.17406748,-38.661194,0.001759246,0.00010681152,0.09615579,0.00012207031,4.5776367e-05,17.96875,0.0006713867,9.8033905,0.100494385,-0.18185425,9.804634,-0.00066979975
-0.008202596,-0.0060014585,17.04712,0.42064893,-0.17445512,-38.8916,-0.00047917664,4.5776367e-05,0.09643102,-0.00035095215,-1.5258789e-05,18.617249,-0.00018119812,9.8033905,0.093322754,-0.18185425,9.804625,0.00049015135
-0.008176756,-0.0060286103,16.592407,0.42063203,-0.17472327,-38.89618,-0.0016520768,-1.5258789e-05,0.095750526,-6.1035156e-05,0.00016784668,18.354797,-0.0007696152,9.808182,0.088531494,-0.16749573,9.804626,-0.0009772703
-0.008140326,-0.0060407408,16.905212,0.4205923,-0.17463441,-39.02893,0.0006726384,-0.00012207031,0.09500993,6.1035156e-05,-7.6293945e-05,17.56134,0.0020456314,9.805786,0.102890015,-0.17945862,9.804635,-0.002169162
-0.008193766,-0.0059601557,16.055298,0.42061237,-0.17364354,-38.282776,0.0013444722,-1.5258789e-05,0.09662173,0.0,0.00016784668,19.140625,-7.534027e-05,9.808182,0.098098755,-0.17468262,9.804637,0.0034063607
-0.008260214,-0.0059894114,16.357422,0.4207161,-0.17472331,-39.657593,-0.0018774271,-1.5258789e-05,0.09754258,-0.00030517578,-1.5258789e-05,19.143677,0.0001039505,9.808182,0.100494385,-0.17228699,9.804608,0.0017676353
-0.008274101,-0.0059740264,16.708374,0.4207247,-0.17456509,-38.705444,-0.00059343874,4.5776367e-05,0.097914934,-0.00024414062,0.00016784668,17.959595,0.0008678436,9.810577,0.100494385,-0.17228699,9.804607,0.00067371875
-0.008251875,-0.0059555685,16.600037,0.42068473,-0.17404902,-39.27765,0.0005852729,0.00022888184,0.09767953,0.0,0.00016784668,18.432617,0.0018453598,9.8033905,0.093322754,-0.17945862,9.804619,0.00018280745
-0.008241799,-0.00597244,17.616272,0.42068195,-0.17426576,-38.09204,-0.0013397485,0.00010681152,0.09736157,-0.00030517578,0.00010681152,18.487549,0.0010709763,9.808182,0.098098755,-0.17945862,9.804618,-0.00022179633
-0.00827218,-0.0059707146,16.790771,0.4207202,-0.17448984,-38.47046,7.003546e-05,-1.5258789e-05,0.097908966,6.1035156e-05,-7.6293945e-05,18.12439,-0.00011539459,9.815353,0.102890015,-0.17468262,9.804608,0.0008964762
-0.008323901,-0.0059551126,17.23938,0.42077756,-0.17464525,-38.461304,-0.00049071014,-7.6293945e-05,0.09894681,-6.1035156e-05,0.00010681152,18.30597,8.583069e-05,9.808182,0.093322754,-0.17468262,9.804595,0.0017805621
-0.008296347,-0.0059786052,16.941833,0.42075625,-0.17483352,-39.645386,-0.0003090948,-0.00018310547,0.09826684,-0.00012207031,-0.0001373291,18.043518,-0.00073337555,9.805786,0.088531494,-0.17228699,9.804599,-0.0020827502
-0.008269012,-0.0059943274,17.367554,0.42073047,-0.17488492,-39.22119,-0.00026644766,-1.5258789e-05,0.09765576,-0.00018310547,0.00022888184,19.029236,-0.0009660721,9.808182,0.098098755,-0.17706299,9.804605,-0.0017108843
-0.008243779,-0.006034634,15.802002,0.4207224,-0.17539294,-39.109802,-0.0011941195,4.5776367e-05,0.09687575,6.1035156e-05,-1.5258789e-05,19.606018,-0.00016880035,9.812973,0.098098755,-0.17706299,9.804603,-0.0011589676
-0.008268293,-0.006006425,16.659546,0.4207369,-0.17509489,-39.483643,0.00018666685,-7.6293945e-05,0.097541876,0.0,0.00016784668,18.193054,3.9100647e-05,9.805786,0.098098755,-0.17945862,9.804602,0.0010433272
-0.008267697,-0.0060180533,16.033936,0.42074323,-0.17529753,-40.377808,-0.00057448447,4.5776367e-05,0.09743409,0.00012207031,-1.5258789e-05,18.560791,-0.00029087067,9.8033905,0.098098755,-0.17468262,9.804599,-3.7670135e-05
-0.008252287,-0.00604213,15.571594,0.42073795,-0.17559817,-39.253235,-0.00052548945,-0.00012207031,0.09696225,0.0,4.5776367e-05,18.30597,-0.00083351135,9.805786,0.093322754,-0.17706299,9.804599,-0.0012401566
-0.008259959,-0.0060227425,17.23938,0.42073607,-0.17531635,-38.580322,0.000626266,-7.6293945e-05,0.097259104,6.1035156e-05,-0.00019836426,19.351196,-7.534027e-05,9.808182,0.090927124,-0.18185425,9.804601,0.00012663007
-0.008257915,-0.0060529,16.984558,0.42075178,-0.1758377,-38.760376,-0.0017098635,-7.6293945e-05,0.096970804,0.00024414062,0.00035095215,18.774414,0.0012292862,9.8033905,0.093322754,-0.17706299,9.804594,-0.0010255873
-0.00824106,-0.006045457,16.830444,0.42072546,-0.1755634,-39.387512,-7.429719e-05,-1.5258789e-05,0.09673748,0.0,-1.5258789e-05,18.603516,-0.0014238358,9.8033905,0.098098755,-0.18902588,9.804602,-6.8075955e-05
-0.008244188,-0.006082835,17.059326,0.42075226,-0.17625706,-38.446045,-0.0013116747,-0.0025177002,0.096479446,-6.1035156e-05,0.00035095215,18.86139,-0.0009469986,10.461426,-0.033493042,-0.29193115,9.804592,-0.0009956434