rotationVector_x,rotationVector_y,rotationVector_z,accelerometer_x,accelerometer_y,accelerometer_z,magneticField_x,magneticField_y,magneticField_z,gravity_x,gravity_y,gravity_z,linearAcceleration_x,linearAcceleration_y,linearAcceleration_z,gyroscope_x,gyroscope_y,gyroscope_z
0.0013991836,-0.004343638,0.45611387,0.08135986,-0.011962891,9.810577,12.173462,9.820557,-47.888184,0.08833111,-0.014436304,9.806242,-0.00027852505,0.001040048,-0.0008649826,-3.0517578e-05,-9.1552734e-05,-3.0517578e-05
0.0014364565,-0.004330059,0.45603734,0.095718384,-0.01914978,9.815353,12.260437,9.898376,-47.651672,0.088428706,-0.013656655,9.806242,-0.00038212538,0.0012073191,0.0013380051,9.1552734e-05,-0.00015258789,0.00010681152
0.0014494942,-0.0043415762,0.45604858,0.08135986,-0.01675415,9.8033905,10.980225,10.334778,-49.246216,0.088746175,-0.0135332225,9.806239,0.0004987791,0.0003654519,-0.0018234253,-3.0517578e-05,-3.0517578e-05,-9.1552734e-05
0.0013899456,-0.0043660155,0.45617723,0.090927124,-0.0143585205,9.810577,12.112427,10.255432,-47.94922,0.08863797,-0.014804041,9.806238,-0.00033719838,-0.0024228254,-0.00041103363,-3.0517578e-05,-3.0517578e-05,3.0517578e-05
0.0013490741,-0.0043974007,0.4562997,0.086135864,-0.01914978,9.810577,11.627197,10.299683,-48.524475,0.08881789,-0.015810423,9.806235,0.00042507797,-0.0019040182,0.00084495544,-3.0517578e-05,1.5258789e-05,-0.00021362305
0.0013157437,-0.0043977103,0.4563405,0.08375549,-0.01914978,9.808182,11.514282,9.564209,-48.59314,0.08852425,-0.01639894,9.806237,-0.00071232766,-0.0008277856,-0.00071811676,-9.1552734e-05,-3.0517578e-05,-0.0001373291
0.0013325745,-0.0044383076,0.45641506,0.088531494,-0.011962891,9.812973,11.726379,10.516357,-47.42737,0.089381985,-0.016476067,9.806229,0.0017831028,0.00044021755,0.0008029938,-0.00015258789,1.5258789e-05,0.00016784668
0.0013413563,-0.0044256155,0.45637485,0.088531494,-0.01675415,9.805786,11.470032,10.28595,-48.143005,0.08923985,-0.01620517,9.806231,-0.00022648275,0.0008865092,5.722046e-05,-9.1552734e-05,1.5258789e-05,-0.00021362305
0.0013053977,-0.004415827,0.45639527,0.090927124,-0.0143585205,9.812973,11.779785,9.941101,-47.69745,0.08874678,-0.016747108,9.806234,-0.00022181869,-0.0014401358,3.528595e-05,9.1552734e-05,0.00019836426,-9.1552734e-05
0.0013170713,-0.0043814057,0.45630082,0.086135864,-0.01675415,9.815353,12.312317,11.0672,-47.564697,0.08825232,-0.0162259,9.80624,-0.00069226325,0.0011520796,0.0008163452,-3.0517578e-05,7.6293945e-05,-0.00015258789
0.0013267867,-0.004379984,0.4562858,0.088531494,-0.0143585205,9.7986145,11.587524,11.01532,-47.242737,0.08831473,-0.016042136,9.806239,-0.00025592,0.00072225183,-0.0023231506,-9.1552734e-05,-9.1552734e-05,-0.00021362305
0.0013721238,-0.0043491162,0.4561592,0.088531494,-0.01675415,9.800995,11.471558,10.437012,-48.789978,0.08818388,-0.0149620995,9.806242,-0.000372231,0.0022825012,0.0006799698,-3.0517578e-05,-3.0517578e-05,0.00016784668
0.0013751131,-0.0044068675,0.45629048,0.088531494,-0.011962891,9.815353,11.78894,10.15625,-47.502136,0.0892163,-0.015439788,9.806232,0.001709573,-0.0015430283,-0.00033950806,0.00015258789,-9.1552734e-05,-3.0517578e-05
0.001353281,-0.0043995157,0.45629957,0.08375549,-0.01914978,9.796219,11.889648,9.161377,-49.899292,0.088892445,-0.015755918,9.806234,-0.00035968423,-0.00075431727,-0.00055217743,3.0517578e-05,7.6293945e-05,-0.00015258789
0.001335819,-0.004432766,0.45639822,0.090927124,-0.007171631,9.815353,12.359619,10.342407,-47.639465,0.08931464,-0.016368153,9.80623,0.0011401922,-0.001103295,0.00010967255,-3.0517578e-05,7.6293945e-05,0.00010681152
0.0013601905,-0.004436269,0.4563771,0.093322754,-0.009567261,9.8033905,11.79657,10.3012085,-47.322083,0.089594305,-0.01597207,9.806228,0.0008579418,0.0011408571,0.0005607605,-9.1552734e-05,7.6293945e-05,-9.1552734e-05
0.0013632221,-0.0044312,0.4563616,0.08375549,-0.0143585205,9.810577,10.2127075,10.546875,-45.54596,0.08953326,-0.015872234,9.806229,-4.9076974e-05,0.0005539376,0.0014829636,-9.1552734e-05,1.5258789e-05,0.00010681152
0.001374751,-0.004462948,0.45642188,0.095718384,-0.0143585205,9.808182,10.293579,10.63385,-46.36383,0.09018941,-0.015961317,9.806223,0.00072956085,0.00016991422,-0.000118255615,-9.1552734e-05,-0.00015258789,-3.0517578e-05
0.0014118844,-0.004432652,0.4563065,0.086135864,-0.0143585205,9.805786,11.882019,10.533142,-48.260498,0.08999509,-0.015030425,9.806226,-2.3566186e-05,0.002105277,-0.00244236,-0.00015258789,-3.0517578e-05,3.0517578e-05
0.0013967562,-0.0044708014,0.45641375,0.088531494,-0.026321411,9.808182,11.747742,9.356689,-48.191833,0.090523586,-0.015646785,9.80622,0.0011228696,-0.0018249024,0.0007619858,0.00015258789,1.5258789e-05,-3.0517578e-05
0.0013918917,-0.004427972,0.4563196,0.090927124,-0.01675415,9.808182,12.124634,10.548401,-48.042297,0.089734256,-0.01533877,9.806228,-0.002393037,0.00073612295,0.00051021576,-3.0517578e-05,-0.00021362305,0.00010681152
0.0013718196,-0.0044447915,0.456383,0.093322754,-0.0143585205,9.805786,12.657166,9.927368,-48.339844,0.08984701,-0.015846007,9.806226,0.00012583286,-0.0004184097,0.0017747879,-0.00015258789,-3.0517578e-05,0.000289917
0.0014053178,-0.004424293,0.45629486,0.086135864,-0.021530151,9.8033905,9.992981,9.832764,-49.30725,0.08979064,-0.0150690405,9.806228,0.00017178804,0.0016723918,-0.0010557175,-3.0517578e-05,7.6293945e-05,-3.0517578e-05
0.0013930298,-0.004431386,0.4563262,0.095718384,-0.01675415,9.805786,12.591553,10.217285,-48.353577,0.08980391,-0.015350133,9.806227,-0.0007909015,-0.0011587199,0.0007429123,0.00015258789,-0.00021362305,-0.00021362305
0.001417563,-0.004437235,0.45631036,0.090927124,-0.011962891,9.820145,11.184692,10.987854,-47.23053,0.09012582,-0.01497273,9.806224,6.997585e-05,0.0015778653,0.0016069412,-0.00021362305,-0.00015258789,3.0517578e-05
0.0014462194,-0.0044310107,0.45626137,0.08375549,-0.0143585205,9.805786,12.185669,10.040283,-47.76764,0.09027445,-0.014411938,9.806224,0.00017078221,0.0010161372,-0.001156807,3.0517578e-05,-3.0517578e-05,0.000289917
0.0013843619,-0.0044365865,0.45634875,0.093322754,-0.01675415,9.8033905,11.483765,10.577393,-48.083496,0.0898167,-0.015550228,9.806227,-0.0010441318,-0.0014475314,-0.0012483597,-0.00021362305,-3.0517578e-05,0.00010681152
0.0013917768,-0.004437558,0.4563421,0.088531494,-0.0047912598,9.810577,11.972046,10.762024,-48.368835,0.08990013,-0.015428848,9.806226,5.8420002e-05,0.000354412,0.00091838837,-3.0517578e-05,-3.0517578e-05,-9.1552734e-05
0.0013913587,-0.0044195335,0.45630053,0.090927124,-0.021530151,9.808182,12.017822,9.9609375,-48.381042,0.08958255,-0.015270631,9.806229,-0.0010559484,0.0009129448,-0.0005054474,-0.00015258789,-0.00010681152,3.0517578e-05
0.0013997727,-0.0043895133,0.4562203,0.090927124,-0.0143585205,9.815353,12.1658325,9.677124,-48.294067,0.08913529,-0.014847081,9.806234,-0.00083670765,0.00073337276,-0.0001745224,3.0517578e-05,1.5258789e-05,0.00010681152
0.0014126642,-0.004392218,0.45621112,0.086135864,-0.011962891,9.793823,11.13739,9.970093,-47.81494,0.08929799,-0.014645365,9.806232,0.0001963824,0.00028658658,-0.0012350082,3.0517578e-05,-3.0517578e-05,-3.0517578e-05
0.0014266301,-0.0043785353,0.4561624,0.088531494,-0.01675415,9.810577,12.174988,10.049438,-49.12567,0.08918494,-0.014274304,9.806234,6.61239e-05,0.00038842112,-0.00018405914,9.1552734e-05,7.6293945e-05,-3.0517578e-05
0.0014414812,-0.0043971566,0.45618802,0.086135864,-0.0143585205,9.808182,11.669922,9.352112,-48.114014,0.089642406,-0.014184289,9.806231,0.0008087754,-0.00017376989,0.0011587143,9.1552734e-05,-3.0517578e-05,-9.1552734e-05
0.0014185758,-0.00437245,0.45615786,0.086135864,-0.0143585205,9.8033905,11.871338,10.240173,-47.94159,0.089006744,-0.014359984,9.806235,-0.0012009516,-0.0007143235,0.001250267,9.1552734e-05,1.5258789e-05,-9.1552734e-05
0.0014111899,-0.00439684,0.4562237,0.090927124,-0.011962891,9.800995,12.181091,9.968567,-47.93396,0.08936526,-0.014713718,9.8062315,0.00059401244,-0.0003608875,-0.00044727325,-9.1552734e-05,-3.0517578e-05,-0.00021362305
0.0014565471,-0.004405506,0.4561894,0.086135864,-0.0143585205,9.8033905,11.781311,9.939575,-47.546387,0.08992289,-0.013996182,9.806228,0.0005252212,0.0013170606,-0.0001335144,3.0517578e-05,-0.00015258789,-1.5258789e-05
0.0014322778,-0.0044026095,0.4562118,0.088531494,-0.011962891,9.8033905,11.424255,10.932922,-47.253418,0.08965484,-0.014396104,9.80623,-0.0013686419,-0.0002063727,-0.001042366,-0.00015258789,-0.00021362305,0.00010681152
0.0014059931,-0.0044246563,0.4562949,0.08375549,-0.0143585205,9.793823,11.961365,10.389709,-47.688293,0.08980302,-0.015060507,9.806228,-6.330758e-05,-0.0009769453,-0.00085639954,-9.1552734e-05,-9.1552734e-05,-3.0517578e-05
0.0013820201,-0.004410485,0.45629063,0.08375549,-0.0143585205,9.810577,11.21521,10.054016,-48.558044,0.08934124,-0.015351635,9.8062315,-0.0012788028,-0.0009301733,-0.00025463104,9.1552734e-05,-9.1552734e-05,0.00015258789
0.001350282,-0.0044227117,0.45635736,0.088531494,-0.01914978,9.808182,12.333679,9.832764,-47.96753,0.08926938,-0.016021648,9.806231,-0.0004919246,-0.0016941316,0.0004720688,9.1552734e-05,-9.1552734e-05,-3.0517578e-05
0.0013971333,-0.004404619,0.45625874,0.093322754,-0.0143585205,9.810577,12.011719,9.811401,-48.10791,0.089374654,-0.015032175,9.8062315,-0.00036101788,0.0013918485,0.0017499924,0.00015258789,-0.00015258789,0.00010681152
0.0013988093,-0.004431202,0.45631883,0.093322754,-0.011962891,9.805786,12.684631,10.438538,-47.85919,0.08985256,-0.01524688,9.806227,0.0003575608,-0.00030185282,-0.0013847351,-3.0517578e-05,-0.00015258789,0.00022888184
0.0013832641,-0.0044176406,0.45630583,0.088531494,-0.021530151,9.808182,12.193298,10.488892,-49.263,0.08947698,-0.015395492,9.80623,-0.0006976947,-0.0011151452,-0.0007610321,0.00021362305,1.5258789e-05,0.00022888184
0.0013856123,-0.0044068294,0.45627776,0.088531494,-0.01914978,9.805786,11.264038,11.073303,-47.97516,0.089309804,-0.015254934,9.8062315,-5.158037e-05,-6.65253e-05,-0.0013017654,9.1552734e-05,7.6293945e-05,9.1552734e-05
0.0013982278,-0.004403055,0.4562538,0.088531494,-0.011962891,9.805786,12.210083,10.853577,-49.18976,0.08935724,-0.014998584,9.8062315,0.00038960576,0.00063840114,-7.534027e-05,-3.0517578e-05,7.6293945e-05,0.00022888184
0.001381246,-0.004421526,0.45631734,0.088531494,-0.01675415,9.805786,12.002563,9.747314,-49.028015,0.089526534,-0.0154666435,9.80623,0.00022053719,-0.0012892587,-5.054474e-05,9.1552734e-05,-3.0517578e-05,-3.0517578e-05
0.0013702755,-0.0044258772,0.4563407,0.086135864,-0.01914978,9.7986145,11.381531,10.211182,-48.606873,0.08950387,-0.015699394,9.806229,3.5613775e-06,-0.0010573231,-0.0009908676,0.00015258789,1.5258789e-05,-0.00015258789
0.0014105369,-0.004398136,0.4562275,0.093322754,-0.009567261,9.800995,12.051392,10.84137,-48.95935,0.08938197,-0.014737092,9.8062315,-0.00035183132,0.0018111877,0.0009365082,3.0517578e-05,-3.0517578e-05,0.00016784668
0.0014052878,-0.0043960726,0.456229,0.090927124,-0.007171631,9.808182,11.531067,9.851074,-47.857666,0.08878602,-0.014537896,9.806237,-0.0007223785,0.0008956911,0.0013256073,3.0517578e-05,-0.00015258789,-9.1552734e-05
0.0013599545,-0.0043644286,0.4562096,0.08375549,-0.021530151,9.796219,11.787415,10.313416,-48.680115,0.08834139,-0.015316503,9.80624,-0.0009988844,-0.0011937134,0.0008840561,-9.1552734e-05,-3.0517578e-05,0.00022888184
0.0013429343,-0.0043969713,0.45630607,0.093322754,-0.0143585205,9.808182,11.489868,9.054565,-48.6969,0.08875533,-0.015914368,9.806235,0.0004882291,-0.0013118908,0.0013837814,3.0517578e-05,-9.1552734e-05,0.00010681152
0.0013541785,-0.00437532,0.45624197,0.086135864,-0.0143585205,9.810577,11.912537,9.442139,-48.40851,0.08847922,-0.015517984,9.806238,-0.00066978484,0.00044315774,-3.33786e-05,9.1552734e-05,-3.0517578e-05,0.00010681152
0.0013553376,-0.004374701,0.45623913,0.08375549,-0.01914978,9.810577,12.295532,10.778809,-48.002625,0.08847885,-0.015491935,9.806239,0.00076426566,-7.105898e-05,0.00013828278,3.0517578e-05,0.00019836426,-0.00015258789
0.0014082085,-0.004361298,0.45614427,0.086135864,-0.023925781,9.808182,11.727905,10.745239,-48.513794,0.08871957,-0.014439793,9.806238,0.0007708743,0.0017601224,-0.0007123947,9.1552734e-05,7.6293945e-05,0.00022888184
0.0014133063,-0.0044075595,0.45624617,0.095718384,-0.01914978,9.8033905,11.459351,10.067749,-48.336792,0.0895709,-0.014774962,9.80623,0.0015942305,-0.00054384954,0.00080776215,-3.0517578e-05,-3.0517578e-05,0.000289917
0.0014095723,-0.0044071754,0.45624977,0.08375549,-0.021530151,9.808182,12.095642,9.738159,-47.146606,0.08953073,-0.014837054,9.806231,0.00020347536,-0.00023817737,-0.00074386597,3.0517578e-05,7.6293945e-05,3.0517578e-05
0.0014165445,-0.00445996,0.45636463,0.105285645,-0.0143585205,9.805786,12.008667,9.890747,-48.924255,0.09051237,-0.01519941,9.806221,0.0016051382,-0.00083761103,-0.0006570816,3.0517578e-05,-9.1552734e-05,0.00010681152
0.0014050077,-0.004403089,0.45624572,0.088531494,-0.011962891,9.800995,11.961365,10.617065,-48.849487,0.08941864,-0.014879749,9.8062315,-0.0023163036,0.0012375303,-0.0010681152,-0.00015258789,-3.0517578e-05,3.0517578e-05
0.0014185404,-0.004405521,0.45623514,0.093322754,-0.01675415,9.805786,11.839294,9.428406,-47.3526,0.08958234,-0.014664257,9.80623,0.0003875345,0.0007780958,0.00024414062,-9.1552734e-05,1.5258789e-05,-0.00015258789
0.0014212169,-0.004386033,0.4561864,0.086135864,-0.009567261,9.808182,12.527466,10.574341,-48.202515,0.08926698,-0.014438274,9.806233,-0.0007372424,0.0012702225,0.001282692,-0.00021362305,-3.0517578e-05,-9.1552734e-05
0.0014308598,-0.004379801,0.45616025,0.093322754,-0.0023956299,9.805786,12.0529175,10.609436,-47.343445,0.0892449,-0.0142115895,9.806233,0.00024734437,0.0005703205,-0.0002641678,-3.0517578e-05,7.6293945e-05,-3.0517578e-05
0.0014131758,-0.0043909983,0.45620766,0.088531494,-0.007171631,9.8033905,11.158752,10.025024,-45.388794,0.089281335,-0.014625174,9.806232,-3.6790967e-05,-0.001411139,0.0007801056,0.00015258789,-3.0517578e-05,0.00015258789
0.0014007207,-0.004404598,0.4562544,0.088531494,-0.0143585205,9.796219,12.211609,10.697937,-47.938538,0.08940646,-0.014968939,9.8062315,0.00031016022,0.00036712456,0.00020503998,-0.0002746582,1.5258789e-05,-0.00015258789
0.0014346028,-0.004390961,0.45618182,0.090927124,-0.0143585205,9.7986145,12.107849,10.261536,-48.475647,0.08947282,-0.014248279,9.8062315,1.5035272e-05,0.0013248725,-2.5749207e-05,3.0517578e-05,-3.0517578e-05,3.0517578e-05
0.0014347848,-0.004408042,0.4562215,0.088531494,-0.011962891,9.817749,12.664795,10.075378,-48.309326,0.08977192,-0.01440193,9.806229,0.0006699711,-0.00019877125,0.0015802383,-3.0517578e-05,1.5258789e-05,-0.00015258789
0.0013950678,-0.004422068,0.456302,0.086135864,-0.01914978,9.8033905,12.374878,10.707092,-47.717285,0.08965996,-0.0152287325,9.806229,6.800145e-05,-0.001768033,-0.00070762634,3.0517578e-05,7.6293945e-05,0.00010681152
0.0014068255,-0.0044346107,0.45631713,0.090927124,-0.011962891,9.808182,12.495422,9.921265,-48.561096,0.08998381,-0.015137318,9.806226,0.0006959364,0.000779341,-0.0012655258,-0.00015258789,1.5258789e-05,0.00010681152
0.0013813076,-0.004405111,0.45627895,0.088531494,-0.023925781,9.808182,12.617493,10.877991,-48.74878,0.08924128,-0.0153148025,9.806232,-0.0014291778,-0.00047766045,-0.00020313263,3.0517578e-05,1.5258789e-05,-0.00015258789
0.0013797004,-0.0043545575,0.4561628,0.08375549,-0.011962891,9.812973,11.950684,10.321045,-48.38257,0.08834658,-0.014878905,9.806241,-0.0007822439,4.834961e-05,0.0008172989,0.00021362305,0.0002593994,3.0517578e-05
0.0013528634,-0.0043752743,0.45624346,0.095718384,-0.021530151,9.805786,12.037659,10.475159,-48.6557,0.08846664,-0.015540675,9.806239,0.00030139834,-0.0012121396,0.0003824234,-3.0517578e-05,1.5258789e-05,-0.00015258789
0.0013843477,-0.0044405134,0.45635796,0.090927124,-0.021530151,9.800995,12.193298,10.334778,-48.312378,0.08988494,-0.015586552,9.806226,0.002714567,-0.0009224033,-0.0003862381,0.00021362305,-3.0517578e-05,-0.0002593994
0.0014206528,-0.004435161,0.4563018,0.095718384,-0.0143585205,9.796219,12.358093,10.496521,-48.814392,0.090117425,-0.014899375,9.806225,0.0003361404,0.0012581069,-0.0012140274,3.0517578e-05,-3.0517578e-05,-1.5258789e-05
0.0014225683,-0.0043892534,0.45619228,0.088531494,-0.01914978,9.810577,11.5234375,9.858704,-48.91205,0.08933517,-0.014444091,9.806232,-0.0015161857,0.00055783987,-0.0011253357,9.1552734e-05,1.5258789e-05,-3.0517578e-05
0.0014181301,-0.004347516,0.45610017,0.086135864,-0.01675415,9.808182,10.987854,10.328674,-48.265076,0.0885685,-0.014138936,9.80624,-0.0009967387,-0.0002198359,0.00068187714,0.00021362305,0.0001373291,-9.1552734e-05
0.0014277998,-0.004308106,0.45599648,0.08135986,-0.009567261,9.810577,12.5564575,9.487915,-48.57788,0.08796872,-0.013607354,9.806246,-0.0011232868,0.0011726152,0.0020513535,-3.0517578e-05,1.5258789e-05,-0.00015258789
0.0014367114,-0.00433988,0.45606,0.088531494,-0.01914978,9.800995,12.054443,10.762024,-48.069763,0.08860205,-0.013742301,9.80624,0.0008934736,-0.00014362112,-0.0023031235,-3.0517578e-05,-9.1552734e-05,0.00015258789
0.0014464199,-0.0043771635,0.4561354,0.088531494,-0.007171631,9.8033905,11.991882,9.373474,-48.197937,0.089338474,-0.01391392,9.806233,0.0011195317,-0.00068934914,-0.0002632141,9.1552734e-05,-9.1552734e-05,0.00015258789
0.0014148204,-0.0043896497,0.45620254,0.088531494,-0.01675415,9.810577,12.446594,10.723877,-48.999023,0.08927261,-0.014583893,9.806233,-0.0002488792,-0.0014537415,-1.2397766e-05,3.0517578e-05,-3.0517578e-05,0.00010681152
0.0013969048,-0.004368907,0.45617563,0.093322754,-0.01675415,9.820145,11.303711,10.279846,-48.66638,0.08875073,-0.014708291,9.806237,-0.0011612624,0.00010496471,-7.6293945e-06,-9.1552734e-05,-3.0517578e-05,3.0517578e-05
0.0014139556,-0.0043582665,0.45613027,0.086135864,-0.0047912598,9.8033905,11.703491,10.232544,-48.617554,0.0887183,-0.014310973,9.806238,-0.0004239902,0.0013856562,-0.00064468384,-0.00015258789,-9.1552734e-05,3.0517578e-05
0.0014227057,-0.0043208804,0.45603243,0.08375549,-0.0143585205,9.810577,11.488342,10.572815,-47.406006,0.08814559,-0.013814089,9.806245,-0.0015089735,0.0006437991,-0.0012226105,9.1552734e-05,-9.1552734e-05,3.0517578e-05
0.0014016841,-0.0044197207,0.45628855,0.093322754,-0.01914978,9.812973,10.571289,9.858704,-47.587585,0.08967843,-0.015090897,9.806229,0.0022192523,0.0002577966,0.0015306473,9.1552734e-05,7.6293945e-05,3.0517578e-05
0.0014101963,-0.0044049527,0.45624384,0.08375549,-0.0143585205,9.793823,11.56311,10.432434,-47.28546,0.089497626,-0.01480568,9.806231,-0.00047180802,0.0011633234,0.000705719,-0.00015258789,-3.0517578e-05,0.00016784668
0.0014036114,-0.0044329097,0.45631704,0.086135864,-0.01675415,9.805786,12.416077,9.609985,-46.884155,0.08992536,-0.015178177,9.806226,-0.00042572618,-0.00085996464,-0.000166893,3.0517578e-05,-0.00033569336,3.0517578e-05
0.001381778,-0.004453076,0.45639038,0.086135864,-0.0143585205,9.8033905,12.75177,10.075378,-47.480774,0.0900806,-0.015747124,9.806224,0.00037720054,-0.001251813,0.00068187714,3.0517578e-05,1.5258789e-05,0.00016784668
0.001355828,-0.004435559,0.45638067,0.093322754,-0.01914978,9.812973,11.959839,10.617065,-48.927307,0.089542806,-0.016042208,9.806229,-0.00076990575,-0.00095559284,0.0014095306,9.1552734e-05,7.6293945e-05,-0.0002746582
0.0013763057,-0.0044261115,0.456334,0.086135864,-0.007171631,9.808182,12.034607,10.321045,-48.005676,0.08956204,-0.015595575,9.806229,-7.408112e-05,0.0012378963,0.00046253204,-9.1552734e-05,-3.0517578e-05,-9.1552734e-05
0.0013334772,-0.004381989,0.45628244,0.08375549,-0.021530151,9.812973,12.408447,9.692383,-48.150635,0.08840966,-0.015942983,9.806239,-0.001543887,-0.00081071444,-0.00048732758,3.0517578e-05,0.00019836426,3.0517578e-05
0.0013492143,-0.004393893,0.45629132,0.095718384,-0.011962891,9.808182,12.512207,10.514832,-49.874878,0.088758074,-0.015775746,9.806236,0.0007401407,0.0004549604,-0.0017595291,-3.0517578e-05,1.5258789e-05,-3.0517578e-05
0.0013484665,-0.0043803053,0.4562605,0.088531494,-0.011962891,9.805786,12.04834,10.6918335,-48.309326,0.0885148,-0.01566413,9.806238,-0.0004427284,0.00011301786,-0.0018138885,3.0517578e-05,1.5258789e-05,0.00015258789
0.0013772427,-0.0044096764,0.45629448,0.093322754,-0.023925781,9.7986145,12.849426,10.671997,-48.573303,0.0892843,-0.0154281575,9.8062315,0.00118462,0.00082293525,-0.00025177002,-9.1552734e-05,-9.1552734e-05,-3.0517578e-05
0.0013805974,-0.0044335593,0.4563462,0.088531494,-0.021530151,9.810577,12.275696,10.417175,-48.602295,0.089730226,-0.015588574,9.806228,0.0009618178,-0.00067886896,0.0012655258,9.1552734e-05,1.5258789e-05,-7.6293945e-05
0.0014208023,-0.0044012205,0.45622236,0.090927124,-0.01675415,9.815353,11.218262,10.125732,-48.391724,0.08952774,-0.014585016,9.806231,-0.0005165711,0.0016597388,0.0005283356,9.1552734e-05,-3.0517578e-05,0.00016784668
0.0014161009,-0.004388047,0.45619726,0.08375549,-0.01675415,9.8033905,12.001038,9.8220825,-49.54071,0.089256175,-0.014546672,9.806233,-0.00047766417,0.00018768199,0.00083065033,-3.0517578e-05,1.5258789e-05,-0.00015258789
0.0014397367,-0.0043704016,0.45612764,0.086135864,-0.009567261,9.805786,11.534119,9.927368,-48.14453,0.08916079,-0.013969295,9.806235,9.474903e-05,0.0007998822,-0.00088214874,9.1552734e-05,7.6293945e-05,-9.1552734e-05
0.0014500922,-0.004382708,0.45614392,0.090927124,-0.011962891,9.808182,12.033081,10.324097,-48.233032,0.089467965,-0.013900285,9.806232,2.9310584e-05,1.4090911e-05,0.00053310394,3.0517578e-05,-0.00015258789,-0.00015258789
0.0014623828,-0.0043668887,0.4560922,0.086135864,-0.009567261,9.810577,11.64093,10.514832,-48.103333,0.08930261,-0.013539048,9.806234,-0.00027631223,0.00014084298,-0.0004491806,0.00015258789,1.5258789e-05,3.0517578e-05
0.0014590024,-0.0043166364,0.4559789,0.090927124,-0.0047912598,9.800995,11.975098,10.758972,-47.99347,0.088396944,-0.013137259,9.806243,-0.0010456219,0.00068459846,-0.0007801056,3.0517578e-05,0.00019836426,-3.0517578e-05
0.001455844,-0.0043245424,0.45600116,0.088531494,-0.01914978,9.7986145,11.654663,10.8078,-48.043823,0.08850636,-0.013265307,9.806242,0.000751026,9.566359e-05,0.0002822876,-9.1552734e-05,0.0001373291,-3.0517578e-05
0.0014591004,-0.004357649,0.45607457,0.095718384,-0.01675415,9.82254,11.497498,10.946655,-48.387146,0.089112245,-0.013511919,9.806236,0.0006304234,-0.00084747,0.0006685257,9.1552734e-05,-0.00015258789,-3.0517578e-05
0.0014569039,-0.0043547098,0.45607036,0.090927124,-0.011962891,9.815353,12.333679,9.832764,-47.96753,0.08904135,-0.013523541,9.806236,-0.00025910884,-0.00036296062,-0.00019550323,9.1552734e-05,-3.0517578e-05,0.00035095215
0.0014453301,-0.0043765237,0.4561352,0.088531494,-0.0143585205,9.8033905,12.025452,10.331726,-49.212646,0.08931756,-0.013927199,9.806233,0.00018828362,-0.0006774971,-0.0014104843,-3.0517578e-05,-9.1552734e-05,0.000289917
0.0014148119,-0.0044070757,0.45624325,0.095718384,-0.01675415,9.815353,12.390137,9.483337,-49.327087,0.08957598,-0.014744063,9.80623,0.00040134043,-0.0010506762,0.00034236908,-0.00015258789,-3.0517578e-05,-0.00015258789
0.0014320309,-0.0044307616,0.45627785,0.090927124,-0.01675415,9.810577,11.657715,10.804749,-47.51587,0.09014287,-0.014659004,9.806225,0.0003188327,-0.0004179161,0.0008611679,0.00015258789,-0.00021362305,3.0517578e-05
0.0014058592,-0.004417128,0.4562775,0.08375549,-0.01675415,9.8033905,11.831665,9.439087,-48.48175,0.08967073,-0.014993713,9.806229,-0.0008872375,-0.0005563069,-5.6266785e-05,-3.0517578e-05,1.5258789e-05,-9.1552734e-05
0.0014242259,-0.0044248127,0.45627335,0.093322754,-0.011962891,9.800995,12.611389,10.578918,-47.903442,0.08996928,-0.014741526,9.806227,0.0004877299,0.00038252957,0.0010814667,3.0517578e-05,-3.0517578e-05,-3.0517578e-05
0.0014378951,-0.0044157556,0.45623577,0.086135864,-0.01675415,9.791428,12.094116,9.892273,-48.17505,0.08993415,-0.014418113,9.806228,-0.00019172579,0.00030285306,-0.0005607605,9.1552734e-05,-3.0517578e-05,0.00022888184
0.0014166752,-0.004429404,0.45629314,0.090927124,-0.011962891,9.815353,11.128235,9.823608,-47.84546,0.089981504,-0.014916398,9.806226,-1.4379621e-05,-0.0013496876,0.00090789795,9.1552734e-05,-3.0517578e-05,3.0517578e-05
0.0014526481,-0.0043870592,0.456151,0.088531494,-0.011962891,9.796219,11.305237,10.202026,-48.07892,0.08956666,-0.013895318,9.8062315,-0.0005417168,0.002404646,-0.0008401871,-9.1552734e-05,7.6293945e-05,0.00022888184
0.001441289,-0.0044299383,0.4562648,0.093322754,-0.01914978,9.805786,11.138916,10.043335,-47.950745,0.09021157,-0.014488739,9.806225,0.00047326088,-0.0013044048,0.0007238388,3.0517578e-05,-0.00021362305,3.0517578e-05
0.0014582594,-0.004409758,0.45619726,0.095718384,-0.007171631,9.815353,11.91864,9.591675,-48.60382,0.0900123,-0.014005138,9.806227,-0.00051689893,0.0010805381,-0.00015735626,-3.0517578e-05,-3.0517578e-05,-9.1552734e-05
0.0014405751,-0.00441084,0.45622104,0.090927124,-0.01914978,9.805786,11.743164,10.8810425,-47.277832,0.08987258,-0.01432587,9.806228,-0.0006259531,-0.0009936299,0.0010147095,9.1552734e-05,-9.1552734e-05,0.00016784668
0.0014678122,-0.004338497,0.45601937,0.093322754,-0.011962891,9.800995,11.352539,11.070251,-46.920776,0.088856705,-0.013183025,9.806239,-0.0017543808,0.002409554,-0.0015621185,-3.0517578e-05,7.6293945e-05,0.00015258789
0.0014304961,-0.0043111155,0.45600027,0.086135864,-0.0143585205,9.812973,10.450745,10.568237,-46.081543,0.088045314,-0.013587583,9.806246,-0.00022330135,0.0006622039,-0.0027170181,9.1552734e-05,-3.0517578e-05,3.0517578e-05
0.0014189974,-0.004329872,0.4560579,0.093322754,-0.01914978,9.800995,11.87439,10.237122,-47.564697,0.08826896,-0.013961764,9.806243,0.0009832904,-0.0006414652,0.0009031296,-3.0517578e-05,0.0001373291,-0.0002746582
0.0013849742,-0.0043880483,0.4562347,0.090927124,-0.01675415,9.7986145,10.844421,10.527039,-47.087097,0.08897707,-0.015093689,9.806235,0.0017096251,-0.002622394,-4.005432e-05,9.1552734e-05,7.6293945e-05,-0.00015258789
0.0013883976,-0.004398553,0.4562551,0.088531494,-0.007171631,9.808182,12.24823,9.83429,-48.945618,0.089190684,-0.015129986,9.806233,6.6153705e-05,-0.00042010657,-0.0009822845,9.1552734e-05,-9.1552734e-05,0.00010681152
0.0013778098,-0.0043979026,0.4562663,0.090927124,-0.0143585205,9.810577,11.660767,9.284973,-48.884583,0.08908439,-0.015310072,9.806233,-0.00055190176,-0.0009559663,0.001584053,0.00015258789,-9.1552734e-05,-0.00015258789
0.0013964588,-0.004420957,0.45629773,0.086135864,-0.0143585205,9.808182,12.454224,10.868835,-48.97003,0.08965309,-0.015194081,9.806229,8.2187355e-05,-0.00012546126,0.00058078766,9.1552734e-05,-0.0002746582,-9.1552734e-05
0.0014013781,-0.004404075,0.4562524,0.088531494,-0.01675415,9.805786,12.269592,10.270691,-48.48175,0.08940326,-0.014952587,9.8062315,-0.00062517077,0.00083779637,-0.00089359283,-9.1552734e-05,-3.0517578e-05,3.0517578e-05
0.0014005741,-0.0043589463,0.45614797,0.08135986,-0.0143585205,9.812973,11.619568,10.154724,-48.779297,0.08861017,-0.014552373,9.806239,-0.0010434464,0.0004385626,0.0013151169,9.1552734e-05,0.0001373291,-0.00015258789
0.0013876774,-0.0043491498,0.45614058,0.090927124,-0.0143585205,9.815353,12.211609,10.852051,-48.96393,0.08832393,-0.014689091,9.806241,-0.00051341206,-0.0006300993,8.2969666e-05,9.1552734e-05,1.5258789e-05,-9.1552734e-05
0.001402434,-0.004361569,0.45615184,0.088531494,-0.01675415,9.810577,11.474609,10.435486,-48.48938,0.08867252,-0.014543763,9.806238,0.000102601945,-0.0005318364,-0.00073719025,0.00021362305,-0.00015258789,-1.5258789e-05
0.001415769,-0.004359076,0.45613,0.088531494,-0.009567261,9.800995,12.597656,10.209656,-47.44873,0.088748656,-0.014286532,9.806238,-0.00068407506,0.00040005054,-0.001455307,3.0517578e-05,-0.00021362305,3.0517578e-05
0.0013720054,-0.00439512,0.4562668,0.088531494,-0.01914978,9.82254,12.44812,10.646057,-48.41156,0.08898387,-0.015386517,9.806234,0.0012322292,-0.0016128356,-1.6212463e-05,-0.00015258789,0.00019836426,3.0517578e-05
0.0013621054,-0.0044303136,0.45636088,0.090927124,-0.01914978,9.8033905,12.779236,10.810852,-48.164368,0.0895078,-0.015883712,9.806229,0.0004627183,-0.0013442952,0.00031661987,9.1552734e-05,-0.00015258789,0.00010681152
0.001388564,-0.0043956917,0.45624822,0.093322754,-0.023925781,9.7986145,11.360168,9.698486,-48.484802,0.089142345,-0.0151007855,9.806233,-0.0010808408,0.00026872847,0.000374794,0.00033569336,-9.1552734e-05,-9.1552734e-05
0.0014090487,-0.0043959054,0.45622408,0.093322754,-0.01914978,9.7986145,11.656189,10.804749,-47.66693,0.08932979,-0.014742766,9.806232,0.0008878857,-0.00033419114,-0.001033783,0.0002746582,0.0001373291,-0.00015258789
0.0014150457,-0.0043888907,0.45620048,0.088531494,-0.021530151,9.805786,11.5448,10.220337,-48.310852,0.089261405,-0.014572962,9.806233,-0.00048360974,0.00045822933,0.0012245178,-3.0517578e-05,-9.1552734e-05,3.0517578e-05
0.0014182678,-0.0043570963,0.45612237,0.086135864,-0.009567261,9.7986145,11.833191,9.588623,-49.13025,0.088736586,-0.014224449,9.806238,-0.0011650398,0.00058287475,0.00018596649,3.0517578e-05,-3.0517578e-05,0.00010681152
0.00137667,-0.0043738117,0.45621142,0.086135864,-0.0143585205,9.808182,11.621094,10.076904,-48.191833,0.08865469,-0.015108907,9.806238,0.00036586076,-0.002362539,0.00012207031,0.00015258789,0.0001373291,-0.00015258789
0.0013643319,-0.0043709795,0.45621964,0.08375549,-0.0143585205,9.805786,11.123657,9.677124,-47.798157,0.08849472,-0.015299717,9.806239,-0.0006770715,-0.00096672494,-0.00055885315,0.00015258789,-9.1552734e-05,3.0517578e-05
0.0013708498,-0.0043621445,0.45619115,0.090927124,-0.0143585205,9.810577,12.162781,9.831238,-49.319458,0.08839933,-0.015104076,9.80624,0.00012496114,0.0002737632,0.0023326874,3.0517578e-05,7.6293945e-05,0.00010681152
0.0013505548,-0.0043786988,0.4562542,0.08375549,-0.01914978,9.800995,12.193298,10.183716,-47.512817,0.08850555,-0.015612682,9.806238,0.0005064383,-0.0016131159,0.00011920929,0.00015258789,7.6293945e-05,-0.00021362305
0.0013430516,-0.0043489905,0.45619386,0.086135864,-0.01675415,9.800995,11.791992,10.533142,-49.238586,0.087920986,-0.015471815,9.806244,-0.0012984499,0.00064055435,-0.0013542175,-9.1552734e-05,-3.0517578e-05,0.00010681152
0.0012916604,-0.0043542166,0.45626786,0.088531494,-0.01914978,9.8033905,11.378479,9.988403,-47.89734,0.08755102,-0.016422803,9.806246,-0.00045286864,-0.002727162,-0.0005788803,0.00021362305,7.6293945e-05,-0.00015258789
0.0013850771,-0.0043774163,0.45620972,0.095718384,-0.009567261,9.812973,12.432861,10.27832,-48.260498,0.088792846,-0.01499426,9.806236,0.00022382289,0.0018264502,0.0016021729,-0.00015258789,1.5258789e-05,-3.0517578e-05
0.0013903399,-0.0043688025,0.45618328,0.08375549,-0.011962891,9.8033905,11.637878,10.441589,-47.964478,0.08869005,-0.0148227,9.806238,8.561462e-05,0.00046417303,-0.00069236755,-3.0517578e-05,7.6293945e-05,3.0517578e-05
0.001357752,-0.004372273,0.45623058,0.090927124,-0.011962891,9.8033905,12.033081,10.324097,-48.3078,0.08845823,-0.015427222,9.806239,7.1011484e-05,-0.0013265358,0.00050258636,3.0517578e-05,0.0001373291,3.0517578e-05
0.001386436,-0.0043762983,0.4562055,0.090927124,-0.011962891,9.800995,12.80365,9.954834,-50.52948,0.08878557,-0.014960116,9.806237,0.00070780516,0.00035735965,-0.0006322861,0.00015258789,1.5258789e-05,0.00010681152
0.0013817269,-0.004341283,0.45612934,0.088531494,-0.0143585205,9.7986145,12.739563,10.240173,-50.01526,0.08813357,-0.014721453,9.806243,-0.00055518,-0.000111459754,-0.0016956329,0.00015258789,0.00019836426,-9.1552734e-05
0.0014331869,-0.0043350877,0.45605302,0.086135864,-0.011962891,9.808182,12.652588,10.1623535,-50.256348,0.08848699,-0.013760263,9.806241,0.00076851994,0.0020404477,0.0003042221,-3.0517578e-05,1.5258789e-05,3.0517578e-05
0.0014293966,-0.004336921,0.45606187,0.088531494,-0.01675415,9.796219,12.110901,10.411072,-49.12567,0.08848495,-0.013843701,9.806241,5.38975e-05,-0.0009889919,-0.000113487244,0.00021362305,1.5258789e-05,3.0517578e-05
0.0013936054,-0.004326617,0.45608082,0.086135864,-0.009567261,9.7986145,11.532593,9.773254,-47.26715,0.08798465,-0.014378121,9.806245,-0.0011224821,-0.0016603591,-0.0004014969,0.00015258789,-3.0517578e-05,-9.1552734e-05
0.0013940183,-0.0043314314,0.45609155,0.088531494,-0.01675415,9.820145,11.894226,10.673523,-47.479248,0.0880722,-0.014415047,9.806244,-4.1127205e-06,-0.00018918794,-0.0001039505,3.0517578e-05,-4.5776367e-05,0.00010681152
0.0014047113,-0.0043462296,0.45611328,0.08135986,-0.011962891,9.805786,11.459351,9.991455,-47.824097,0.08842579,-0.014362944,9.806241,0.00011640042,-0.00024145469,-0.00022983551,9.1552734e-05,-0.00015258789,0.00022888184
0.0013762669,-0.004356439,0.45617133,0.095718384,-0.007171631,9.800995,12.321472,9.692383,-48.828125,0.08834856,-0.0149565125,9.806241,-0.0002765432,-0.00059448555,-0.0006303787,-0.00015258789,-3.0517578e-05,0.00015258789
0.0014160504,-0.004328224,0.45605758,0.08375549,-0.021530151,9.8033905,11.7630005,9.651184,-48.284912,0.08821384,-0.013998435,9.806243,-0.00061725825,0.0020337775,0.00053691864,-3.0517578e-05,-9.1552734e-05,3.0517578e-05
0.0014448237,-0.004340122,0.4560508,0.086135864,-0.009567261,9.793823,12.75177,10.151672,-47.920227,0.088678986,-0.013601959,9.80624,0.0005799234,0.0006761914,0.00020694733,3.0517578e-05,-9.1552734e-05,3.0517578e-05
0.0013895027,-0.0043364223,0.45610866,0.095718384,-0.03111267,9.793823,12.388611,9.255981,-48.316956,0.08811864,-0.014540202,9.806244,-0.0010082722,-0.0024602683,-0.00066661835,0.00015258789,3.0517578e-05,0.00010681152
0.0013892169,-0.00434262,0.45612347,0.090927124,-0.0143585205,9.8033905,13.328552,10.63385,-48.980713,0.08822401,-0.014602101,9.806242,-0.0001489073,-0.0004763333,-0.00075912476,9.1552734e-05,-9.1552734e-05,-3.0517578e-05
0.0013855473,-0.0043404116,0.45612273,0.090927124,-0.01675415,9.810577,12.945557,10.894775,-48.07892,0.088152654,-0.014646321,9.806243,-7.959455e-05,-0.0004317863,0.0004491806,9.1552734e-05,1.5258789e-05,0.00016784668
0.0013747936,-0.0043832236,0.45623565,0.095718384,-0.01914978,9.8033905,11.631775,10.295105,-47.84546,0.08880174,-0.015228289,9.806236,0.00046164542,-0.0012842463,-1.335144e-05,3.0517578e-05,-0.00021362305,-3.0517578e-05
0.0013622788,-0.004418979,0.4563342,0.088531494,-0.01914978,9.805786,12.358093,10.343933,-47.940063,0.089312024,-0.01577655,9.806231,0.00066791475,-0.0014531165,0.00014400482,9.1552734e-05,-9.1552734e-05,-9.1552734e-05
0.0013909512,-0.0043839724,0.45621797,0.086135864,-0.009567261,9.8033905,12.35199,10.197449,-47.969055,0.088959694,-0.014951229,9.806235,-0.0006536022,0.0013067229,-0.0010232925,9.1552734e-05,1.5258789e-05,0.00022888184
0.001427108,-0.0043748654,0.45615324,0.090927124,-0.009567261,9.810577,11.585999,10.86731,-46.746826,0.08912531,-0.014232214,9.806235,0.0006276667,0.0017784806,0.00059890747,-9.1552734e-05,7.6293945e-05,-0.0002746582
0.0014390143,-0.0043201596,0.45601115,0.090927124,-0.011962891,9.805786,12.202454,10.481262,-48.132324,0.088279195,-0.013520865,9.806244,-0.0016373172,0.0010669762,-0.00039482117,9.1552734e-05,1.5258789e-05,-9.1552734e-05
0.001459805,-0.004307952,0.45595765,0.08375549,-0.009567261,9.7986145,12.306213,10.922241,-47.595215,0.08825285,-0.013043474,9.806245,-0.00041596591,0.00083310995,-0.0010652542,3.0517578e-05,-9.1552734e-05,-0.00015258789
0.0014599161,-0.004343188,0.45603982,0.086135864,-0.011962891,9.800995,12.173462,9.8220825,-48.03772,0.08886766,-0.013364852,9.806238,0.00088792294,-0.0005234489,0.0008878708,-3.0517578e-05,-9.1552734e-05,0.00010681152
0.0014273361,-0.004365443,0.45613095,0.088531494,-0.0143585205,9.7986145,12.358093,10.340881,-47.790527,0.08896325,-0.014141699,9.806236,-0.00016587973,-0.0018987423,-0.0006790161,9.1552734e-05,-9.1552734e-05,0.00015258789
0.0014118525,-0.004353787,0.45612234,0.090927124,-0.01675415,9.800995,12.915039,10.467529,-49.5224,0.08862143,-0.014306812,9.806239,-0.00030399114,-0.00077126455,0.00022602081,9.1552734e-05,-0.00015258789,0.00010681152
0.0014026673,-0.004351109,0.45612714,0.08135986,-0.0143585205,9.805786,12.5564575,9.565735,-49.08905,0.08849244,-0.014443646,9.80624,4.81382e-05,-0.00038937945,0.0012693405,3.0517578e-05,7.6293945e-05,0.00010681152
0.0013915466,-0.0043656975,0.45617458,0.086135864,-0.01675415,9.8033905,12.068176,10.978699,-47.49756,0.08864679,-0.01477299,9.806238,0.00037680566,-0.0010204939,0.0011606216,9.1552734e-05,1.5258789e-05,-0.00021362305
0.0014378413,-0.004356934,0.45609847,0.088531494,-0.009567261,9.8033905,12.826538,9.933472,-47.665405,0.08890923,-0.013878975,9.806237,0.0005867407,0.001915589,0.00014305115,-3.0517578e-05,1.5258789e-05,0.000289917
0.0014338389,-0.004327714,0.45603502,0.08135986,-0.0143585205,9.808182,11.846924,9.729004,-48.197937,0.08836439,-0.013681138,9.806242,-0.00079286844,3.957469e-05,0.00040912628,9.1552734e-05,7.6293945e-05,-9.1552734e-05
0.0014439438,-0.0043325634,0.4560342,0.088531494,-0.009567261,9.805786,12.088013,9.8220825,-48.564148,0.08853944,-0.013548055,9.806241,-4.9471855e-06,0.00039451942,-0.0003671646,-3.0517578e-05,-9.1552734e-05,0.000289917
0.0014344229,-0.0043309685,0.45604193,0.086135864,-0.01675415,9.810577,12.257385,10.054016,-48.901367,0.08842632,-0.0137007395,9.806242,-0.0003580153,-0.0006593056,-0.0015163422,9.1552734e-05,-3.0517578e-05,-9.1552734e-05
0.0014425144,-0.004348997,0.4560743,0.090927124,-0.01675415,9.810577,11.065674,10.26001,-48.132324,0.08881287,-0.013723998,9.806238,-0.0002719909,-0.00039183255,0.000111579895,9.1552734e-05,-0.0002746582,0.00010681152
0.0014647754,-0.0043757623,0.45611006,0.093322754,-0.011962891,9.805786,11.070251,10.179138,-47.016907,0.08947861,-0.01357846,9.806232,0.00074192137,0.00017963815,-0.000248909,3.0517578e-05,-0.00015258789,0.00016784668
0.0014661195,-0.0043503246,0.45604903,0.090927124,-0.01675415,9.812973,11.993408,9.371948,-47.972107,0.08904757,-0.013321329,9.806237,-0.0014530048,0.00016688835,0.00032424927,9.1552734e-05,-0.00015258789,0.000289917
0.001441044,-0.0043785777,0.45614517,0.093322754,-0.0143585205,9.8033905,12.155151,9.533691,-48.550415,0.08931491,-0.014021379,9.806233,0.00018533319,-0.00081133284,0.00037002563,-0.00015258789,-9.1552734e-05,3.0517578e-05
0.0014109578,-0.004389932,0.45620784,0.086135864,-0.007171631,9.805786,11.193848,9.617615,-48.797607,0.08924288,-0.014654365,9.806233,-0.0011853278,-0.0013824711,0.0018472672,3.0517578e-05,-0.0002746582,0.00010681152
0.0014131969,-0.0043974887,0.4562228,0.088531494,-0.01675415,9.800995,11.592102,9.494019,-48.384094,0.089394554,-0.014684404,9.8062315,0.00034894794,-0.00063649844,-0.0016479492,0.00015258789,1.5258789e-05,0.000289917
0.0013939186,-0.004353393,0.456143,0.086135864,-0.011962891,9.800995,12.281799,10.487366,-48.210144,0.08845378,-0.014618355,9.80624,-0.0015921667,1.4274381e-05,-0.00044822693,3.0517578e-05,7.6293945e-05,-3.0517578e-05
0.0014291259,-0.0043631284,0.4561234,0.088531494,-0.0143585205,9.808182,12.646484,9.635925,-48.24829,0.08893898,-0.0140889995,9.806236,0.0010331944,0.001407939,0.00049495697,-9.1552734e-05,1.5258789e-05,-9.1552734e-05
0.0013720095,-0.004346026,0.4561521,0.08375549,-0.011962891,9.810577,11.151123,10.33783,-48.043823,0.08812905,-0.01493575,9.806243,-0.0019825473,-0.0011030417,-0.0009508133,-0.00015258789,-9.1552734e-05,-3.0517578e-05
0.001385527,-0.0043120845,0.45605657,0.086135864,-0.011962891,9.808182,12.591553,10.292053,-48.641968,0.087659135,-0.014386741,9.806248,-0.0015176609,0.00074446294,0.001127243,9.1552734e-05,-0.00015258789,3.0517578e-05
0.0014370937,-0.00433625,0.45605105,0.088531494,-0.0143585205,9.800995,11.738586,10.887146,-47.958374,0.08854226,-0.013702274,9.806241,0.00047907233,0.0012508612,0.00090789795,3.0517578e-05,-0.00033569336,3.0517578e-05
0.0014300318,-0.0043342034,0.45605475,0.088531494,-0.0143585205,9.817749,11.758423,9.65271,-48.66028,0.08844332,-0.0138075985,9.806242,-0.00014924258,-0.0007961113,-0.0011453629,0.00015258789,1.5258789e-05,3.0517578e-05
0.0014180957,-0.0043357355,0.4560727,0.090927124,-0.011962891,9.793823,12.336731,9.906006,-48.181152,0.08836301,-0.014031423,9.806242,-0.00076235086,-8.537155e-05,-0.0018806458,-9.1552734e-05,-0.00015258789,0.00022888184
0.0013866986,-0.004352663,0.45614997,0.088531494,-0.011962891,9.800995,12.364197,10.565186,-48.349,0.08837634,-0.014738539,9.806241,-0.00031066686,-0.0017726719,0.0017786026,9.1552734e-05,-9.1552734e-05,-9.1552734e-05
0.0014148423,-0.004379619,0.45617908,0.088531494,-0.0143585205,9.817749,13.249207,10.5529785,-48.310852,0.08909811,-0.014491406,9.806234,0.00063774735,0.000850223,0.0018291473,-9.1552734e-05,-0.00021362305,0.00016784668
0.0013783602,-0.004404956,0.4562821,0.088531494,-0.01914978,9.805786,11.787415,10.159302,-47.80426,0.08921214,-0.015365174,9.806232,0.00028271228,-0.0011451896,-0.0006933212,-0.00015258789,1.5258789e-05,0.00035095215
0.0014322146,-0.0044164965,0.45624432,0.088531494,-0.0143585205,9.808182,12.539673,10.795593,-48.008728,0.08989611,-0.0145247495,9.806228,0.0005563274,0.00063951965,0.00081157684,0.0002746582,-0.00021362305,0.00047302246
0.0014017161,-0.004426191,0.45630363,0.090927124,-0.0143585205,9.815353,11.994934,9.52301,-48.545837,0.08979139,-0.015149768,9.806228,-0.00078160316,-0.0013585556,0.001824379,3.0517578e-05,-0.00015258789,0.00035095215
0.0013737358,-0.0044185612,0.45631945,0.093322754,-0.01675415,9.808182,13.092041,10.53772,-47.779846,0.08940754,-0.0155713875,9.806231,-0.0018288121,-0.00046442915,-0.0006933212,-9.1552734e-05,-0.0002746582,0.0007019043
0.0014086547,-0.0043856464,0.4562006,0.088531494,-0.011962891,9.796219,11.320496,10.797119,-49.542236,0.089147605,-0.0146554895,9.806234,-0.0006271973,0.0010159547,0.0009717941,0.00021362305,-3.0517578e-05,0.000289917
0.0014107327,-0.0043844418,0.4561953,0.088531494,-0.01675415,9.796219,12.269592,10.194397,-48.120117,0.08914526,-0.01460791,9.806234,-0.0010841042,-0.0002393322,-0.0030212402,9.1552734e-05,-0.0002746582,0.00035095215
0.001417582,-0.0043846527,0.45618755,0.090927124,-0.01675415,9.808182,11.627197,10.147095,-47.64862,0.08921035,-0.014489479,9.806233,-0.00092273206,0.0006039385,0.0005426407,-9.1552734e-05,-0.0002746582,0.0004119873
0.0013898285,-0.0043746363,0.45619753,0.090927124,-0.01914978,9.8033905,12.2039795,10.325623,-46.881104,0.08878705,-0.014885242,9.806237,-0.0012000278,-0.00019070599,-0.00027751923,-0.00015258789,-9.1552734e-05,0.00035095215
0.0013791916,-0.0044096047,0.45629197,0.098098755,-0.01675415,9.805786,12.565613,9.7091675,-48.835754,0.089300536,-0.015393253,9.8062315,0.0004394725,-0.0013614269,-0.00033664703,9.1552734e-05,-0.00015258789,0.00015258789
0.0013673706,-0.0043755714,0.4562267,0.088531494,-0.011962891,9.808182,12.65564,9.854126,-48.127747,0.088601924,-0.015288475,9.806238,-0.00079045445,-3.085658e-05,0.001871109,0.00015258789,-3.0517578e-05,3.0517578e-05
0.001342989,-0.0044036563,0.45632163,0.088531494,-0.0143585205,9.805786,11.572266,10.498047,-46.444702,0.08887221,-0.015974795,9.806234,0.00013975799,-0.0012509748,0.001086235,-3.0517578e-05,-0.00010681152,0.00016784668
0.001337253,-0.0044343118,0.4564001,0.088531494,-0.0143585205,9.800995,12.527466,10.574341,-48.202515,0.08935442,-0.016357152,9.80623,0.0006067604,-0.00064028986,-0.00070858,-3.0517578e-05,-9.1552734e-05,0.00016784668
0.0013400997,-0.004406122,0.45633084,0.088531494,-0.0143585205,9.8033905,12.240601,9.611511,-48.538208,0.08888922,-0.016048212,9.806234,-0.0010686442,0.0012155417,-0.0023841858,-0.00015258789,-3.0517578e-05,0.00016784668
0.0013938111,-0.004374158,0.4561916,0.086135864,-0.011962891,9.805786,11.471558,10.284424,-47.84088,0.08881443,-0.014810865,9.806236,-0.00027234107,0.002373185,-0.0009584427,3.0517578e-05,-3.0517578e-05,0.00039672852
0.0013740526,-0.0043595503,0.45618126,0.088531494,-0.007171631,9.805786,11.46698,10.136414,-47.71881,0.08838287,-0.015023978,9.80624,-0.0005608648,-0.00029715057,0.0006418228,-3.0517578e-05,7.6293945e-05,0.00035095215
0.0014001352,-0.0043554837,0.4561404,0.088531494,-0.011962891,9.805786,12.083435,9.44519,-47.05658,0.08854593,-0.014528302,9.80624,-0.00048526376,0.0006424431,0.0012235641,9.1552734e-05,-0.00021362305,0.00016784668
0.0013959279,-0.004346108,0.45612356,0.08135986,-0.009567261,9.800995,12.123108,10.548401,-48.191833,0.08834493,-0.014516184,9.806242,-0.0017114505,-8.8010915e-05,-0.0015707016,3.0517578e-05,-0.00033569336,9.1552734e-05
0.0013577986,-0.004358638,0.45619866,0.08375549,-0.01675415,9.805786,12.101746,10.113525,-48.50769,0.08822122,-0.01530123,9.806241,-0.00086157024,-0.0016849833,-0.0020017624,3.0517578e-05,-0.00015258789,3.0517578e-05
0.001372982,-0.0043497896,0.45615974,0.086135864,-0.01675415,9.800995,12.461853,10.787964,-47.628784,0.0882033,-0.0149532,9.806242,-0.0010896251,0.0005918797,0.00041866302,3.0517578e-05,-0.0002746582,0.0004119873
0.0013615598,-0.0043461793,0.45616505,0.088531494,-0.0143585205,9.800995,12.005615,9.664917,-48.138428,0.08803801,-0.015120784,9.806243,-0.0004394725,-0.00044542924,0.0007572174,3.0517578e-05,-3.0517578e-05,0.00022888184
0.0014074908,-0.0043068007,0.45601782,0.088531494,-0.007171631,9.8033905,12.106323,10.108948,-47.97821,0.08776398,-0.013952288,9.806248,-0.0006574318,0.001987907,0.00083065033,9.1552734e-05,-3.0517578e-05,0.00016784668
0.0014202634,-0.00430775,0.4560047,0.088531494,-0.0143585205,9.800995,12.303162,11.074829,-48.695374,0.08789499,-0.013736537,9.806247,-0.0007901639,0.00056700595,0.0003938675,-3.0517578e-05,-0.0002746582,0.0005340576
0.0014425165,-0.0043521128,0.45608157,0.088531494,-0.021530151,9.810577,11.991882,9.371948,-48.19641,0.088867165,-0.013752559,9.806238,0.0018251911,-0.0006074123,-0.0003786087,0.00015258789,-3.0517578e-05,0.00035095215
0.0014678711,-0.0043579317,0.4560647,0.090927124,-0.009567261,9.7986145,11.895752,10.671997,-47.251892,0.08919578,-0.013360371,9.806235,0.00030533224,0.00043493137,0.00023651123,9.1552734e-05,-9.1552734e-05,0.00016784668
0.0014303036,-0.0043708757,0.45614007,0.08375549,-0.0143585205,9.808182,12.921143,10.383606,-48.18268,0.089084476,-0.014139426,9.806235,-0.0010219887,-0.0018981984,0.0009536743,9.1552734e-05,-0.00021362305,0.00022888184
0.0014309762,-0.004376088,0.45615146,0.08135986,-0.011962891,9.805786,11.300659,10.281372,-48.890686,0.08918128,-0.014175454,9.806234,-0.00040159374,-0.00018371083,-2.861023e-06,3.0517578e-05,-0.00015258789,0.00021362305
0.0014180017,-0.0043448554,0.4560941,0.088531494,-0.009567261,9.817749,11.369324,9.689331,-47.279358,0.08852101,-0.014116772,9.806241,-0.0016667768,0.00047522318,0.00063991547,-9.1552734e-05,-9.1552734e-05,0.00016784668
0.0013975269,-0.004336467,0.45609912,0.093322754,-0.011962891,9.805786,12.286377,10.635376,-48.40851,0.08819136,-0.014399601,9.806243,-0.0006132722,-0.0006773723,-0.0014858246,3.0517578e-05,1.5258789e-05,0.00010681152
0.001414579,-0.0043382095,0.45608267,0.088531494,-0.01675415,9.805786,12.69989,10.574341,-46.62323,0.08837458,-0.01411593,9.806242,0.000887163,0.00022834074,-0.0011548996,9.1552734e-05,0.0001373291,0.00035095215
0.0014193819,-0.004309084,0.45600888,0.08375549,-0.0143585205,9.805786,12.312317,9.47113,-48.57025,0.087910324,-0.013764264,9.806247,-0.0012753531,0.00012121163,0.00050258636,0.00015258789,-9.1552734e-05,0.00016784668
0.0014728125,-0.004315498,0.45595965,0.095718384,-0.0143585205,9.805786,11.839294,9.507751,-47.789,0.08850085,-0.012884099,9.806242,0.0019582063,0.0018817903,0.0012989044,-3.0517578e-05,0.00019836426,0.00016784668
0.0014334561,-0.0043247514,0.45602855,0.08375549,-0.0143585205,9.808182,11.386108,10.054016,-47.206116,0.08830936,-0.01366068,9.806243,-0.00096552074,-0.0021325592,0.000541687,0.00015258789,-0.00015258789,0.000289917
0.0014053711,-0.004292579,0.45598716,0.088531494,-0.009567261,9.810577,10.992432,10.475159,-48.387146,0.08749726,-0.013859069,9.80625,-0.0015800521,-0.0005010711,-0.0017137527,3.0517578e-05,1.5258789e-05,0.0002746582
0.0014280771,-0.0043075965,0.45599493,0.08375549,-0.011962891,9.812973,12.82196,9.785461,-47.16797,0.08796234,-0.013597811,9.806246,-0.0003836453,0.0006723022,0.00024414062,0.00015258789,7.6293945e-05,0.00016784668
0.00140538,-0.0042879437,0.4559763,0.086135864,-0.0143585205,9.793823,11.175537,10.769653,-47.27478,0.0874166,-0.013816392,9.806251,-0.0005565509,-0.0005432386,0.0003232956,3.0517578e-05,0.0001373291,0.00035095215
0.0014103653,-0.004382244,0.4561906,0.088531494,-0.0143585205,9.808182,12.59613,10.365295,-48.55194,0.089103684,-0.014594186,9.806234,0.0027900562,-0.0011995314,0.00038051605,-9.1552734e-05,-0.00015258789,0.00010681152
0.0013911038,-0.0044017658,0.45625934,0.086135864,-0.0143585205,9.82254,11.24115,10.639954,-48.439026,0.0892709,-0.0151119325,9.806232,-1.7337501e-05,-0.0006817449,9.250641e-05,-9.1552734e-05,-9.1552734e-05,3.0517578e-05
0.0013840882,-0.004434676,0.45634463,0.095718384,-0.021530151,9.812973,11.299133,9.90448,-47.38159,0.08978098,-0.015537486,9.806227,0.00019239634,-0.00025666784,-0.00057697296,-0.00015258789,-0.00021362305,0.00015258789
0.0013604715,-0.0044297893,0.45636162,0.086135864,-0.021530151,9.805786,12.019348,9.959412,-48.231506,0.08948401,-0.015907606,9.806229,-0.0007034838,-0.00037439167,0.000582695,-9.1552734e-05,-3.0517578e-05,0.0004119873
0.0013569887,-0.004397541,0.4562905,0.090927124,-0.01914978,9.791428,11.360168,9.700012,-48.55957,0.08889132,-0.01567263,9.806234,-0.0015432015,0.00035160407,-0.00041389465,3.0517578e-05,-9.1552734e-05,-3.0517578e-05
0.0013838061,-0.0043796566,0.45621648,0.08375549,-0.007171631,9.812973,11.767578,9.794617,-48.103333,0.08882046,-0.015037164,9.806236,-3.3155084e-05,0.0013938304,-0.0010690689,-3.0517578e-05,3.0517578e-05,0.00010681152
0.0013751084,-0.0044033234,0.45628223,0.08375549,-0.0143585205,9.812973,12.760925,10.142517,-46.714783,0.08915454,-0.015407324,9.806232,-0.00061095506,-0.00038761087,-7.8201294e-05,-9.1552734e-05,-0.00033569336,0.00010681152
0.0013755795,-0.004379646,0.45622635,0.08135986,-0.0143585205,9.808182,12.112427,9.873962,-45.837402,0.0887465,-0.015181634,9.806237,-0.00092419237,0.00010458473,0.00090408325,9.1552734e-05,-3.0517578e-05,0.00021362305
0.0013850143,-0.004363836,0.45617807,0.086135864,-0.011962891,9.793823,12.921143,10.383606,-48.18268,0.0885558,-0.01487069,9.806239,-0.0016895756,0.0007540947,-0.0011434555,-3.0517578e-05,-0.00033569336,0.00035095215
0.001375316,-0.004444305,0.45637766,0.086135864,-0.023925781,9.800995,11.598206,9.642029,-48.6557,0.08986992,-0.015780097,9.806226,0.0022649094,-0.0021673143,-0.0009241104,9.1552734e-05,-9.1552734e-05,0.00015258789
0.0013728219,-0.0044356487,0.45636046,0.08375549,-0.021530151,9.817749,12.730408,9.866333,-48.957825,0.08969683,-0.015744405,9.806227,-0.0006720945,0.00019482896,0.0027418137,-3.0517578e-05,-9.1552734e-05,0.000289917
0.0013817522,-0.0044070827,0.456283,0.08375549,-0.01914978,9.800995,11.703491,10.308838,-49.05548,0.08927959,-0.015325095,9.8062315,-0.00096503645,0.0009645233,-0.0015287399,-3.0517578e-05,-3.0517578e-05,0.00016784668
0.001359867,-0.0044388203,0.45638344,0.090927124,-0.01675415,9.8033905,11.34491,11.154175,-48.413086,0.08963582,-0.016001191,9.806228,-0.00036544353,-0.001229858,-0.0021247864,-3.0517578e-05,-0.0002746582,3.0517578e-05
0.0013806438,-0.0044406108,0.45636263,0.090927124,-0.009567261,9.800995,10.995483,10.472107,-48.01178,0.0898534,-0.015652532,9.806226,-0.00059693307,0.00010246597,0.0030527115,0.00015258789,-0.0002746582,-3.0517578e-05
0.0013796245,-0.0044137216,0.45630106,0.086135864,-0.0143585205,9.808182,11.697388,10.012817,-48.43445,0.0893761,-0.015423458,9.806231,-0.0015500933,0.00058990065,-0.0008420944,-3.0517578e-05,-0.00015258789,0.00035095215
0.0014077537,-0.004389914,0.45621166,0.090927124,-0.011962891,9.808182,12.298584,10.778809,-47.77527,0.08921384,-0.014710509,9.806233,-0.0011447668,0.0013115443,0.0002450943,3.0517578e-05,-0.00021362305,0.00010681152
0.0014119947,-0.004372326,0.45616546,0.095718384,-0.026321411,9.8033905,11.782837,9.783936,-46.444702,0.08894558,-0.014474498,9.806236,-0.00063961,0.0005884534,0.0015983582,-3.0517578e-05,-3.0517578e-05,3.0517578e-05
0.0014347062,-0.0043643643,0.45611957,0.088531494,-0.01914978,9.810577,12.574768,9.776306,-48.065186,0.08901054,-0.014002278,9.806236,2.6598573e-06,0.00083257817,-0.0011720657,3.0517578e-05,-3.0517578e-05,0.00010681152
0.0014506159,-0.004376981,0.4561299,0.090927124,-0.007171631,9.812973,12.089539,9.744263,-48.051453,0.08937291,-0.013838499,9.806233,0.00037263334,0.00068408996,2.3841858e-05,-9.1552734e-05,-9.1552734e-05,0.00010681152
0.0014334107,-0.004358655,0.4561078,0.08375549,-0.01675415,9.793823,11.123657,9.677124,-47.798157,0.088899486,-0.013972637,9.806237,-0.001072295,-0.00014376454,-0.0009393692,-3.0517578e-05,-3.0517578e-05,0.00015258789
0.0014422534,-0.004376792,0.45613953,0.088531494,-0.01914978,9.810577,12.567139,9.706116,-48.53363,0.08929464,-0.013983729,9.806233,0.00020881742,-0.00013232138,0.00049495697,3.0517578e-05,-0.00015258789,0.00022888184
0.0014642599,-0.004385654,0.45613378,0.093322754,-0.01675415,9.8033905,12.036133,10.476685,-48.880005,0.08964628,-0.013678338,9.806231,0.00057870895,3.468711e-05,-0.00095176697,0.00015258789,-3.0517578e-05,0.00022888184
0.0014354738,-0.004377119,0.45614845,0.08375549,-0.01675415,9.805786,12.640381,9.640503,-49.00055,0.08923956,-0.014105877,9.806234,-0.0011668056,-0.0004990427,0.00016021729,-9.1552734e-05,-9.1552734e-05,3.0517578e-05
0.0014174798,-0.0044083884,0.4562431,0.093322754,-0.021530151,9.8033905,12.814331,9.870911,-48.81134,0.08962277,-0.014709233,9.80623,0.0003561303,-0.0006127376,0.0002708435,-0.00015258789,-0.00010681152,0.00010681152
0.0014072713,-0.0043809675,0.45619133,0.088531494,-0.0143585205,9.808182,11.831665,9.515381,-48.919678,0.089053705,-0.014636838,9.806234,-0.0014763623,0.00027714204,0.0013008118,-3.0517578e-05,-9.1552734e-05,0.00047302246
0.0013690596,-0.0043884856,0.45625484,0.088531494,-0.026321411,9.800995,12.1536255,9.687805,-49.728394,0.088841945,-0.015377369,9.806236,-0.0010164008,-0.00089044217,-0.0008907318,-0.00015258789,-0.00015258789,0.00010681152
0.0013521913,-0.0044019422,0.45630655,0.095718384,-0.011962891,9.810577,11.508179,9.416199,-48.397827,0.08892492,-0.01579735,9.806234,-0.00039542466,-0.00095644407,0.0029172897,3.0517578e-05,-0.00015258789,0.00016784668
0.0013824317,-0.004385861,0.45623264,0.08375549,-0.011962891,9.7986145,12.34436,10.203552,-48.799133,0.088916175,-0.015118285,9.806235,-0.00061208755,0.0017208168,-0.00075912476,-9.1552734e-05,-0.00015258789,0.00022888184
0.0013724853,-0.004413876,0.45631,0.090927124,-0.01914978,9.793823,12.039185,10.473633,-48.50464,0.08931476,-0.015550335,9.8062315,0.00019126385,-0.0007330943,-0.002579689,-3.0517578e-05,-0.00015258789,0.000289917
0.0014082962,-0.0043630805,0.45614833,0.08375549,-0.01675415,9.800995,12.121582,10.400391,-47.69287,0.088751405,-0.01445462,9.806238,-0.00023575872,0.00040481705,-0.0019464493,-1.5258789e-05,-7.6293945e-05,-1.5258789e-05
0.0014006261,-0.004360536,0.4561516,0.095718384,-0.021530151,9.808182,11.723328,10.594177,-48.165894,0.08863833,-0.014566053,9.806239,0.00013831258,-0.00050979666,0.0030155182,0.00010681152,-1.5258789e-05,-0.0001373291
0.0014430032,-0.0043761465,0.45613712,0.088531494,-0.01914978,9.800995,11.91864,9.437561,-47.731018,0.089290135,-0.013964628,9.806234,0.0021163449,0.00032228045,-0.0011873245,0.00022888184,0.00021362305,0.0
0.0014234707,-0.004363798,0.45613176,0.086135864,-0.011962891,9.805786,12.138367,10.916138,-48.269653,0.088899955,-0.014194534,9.806237,-0.0006055981,-0.0006381273,-0.00015163422,4.5776367e-05,4.5776367e-05,-6.1035156e-05
0.0014539867,-0.004360289,0.45608687,0.093322754,-0.0143585205,9.808182,12.176514,9.973145,-48.61145,0.089112386,-0.013626023,9.806235,0.00013940036,0.0014185132,0.00085639954,-7.6293945e-05,-7.6293945e-05,-0.0002593994
0.0014496441,-0.004380432,0.45613915,0.086135864,-0.021530151,9.8033905,12.3550415,10.272217,-47.87903,0.089424305,-0.013887264,9.806232,0.00055073947,-0.00047268998,-0.0013418198,-1.5258789e-05,-1.5258789e-05,-0.00032043457
0.0014651414,-0.004352205,0.4560546,0.090927124,-0.0143585205,9.800995,12.187195,10.189819,-48.34137,0.08907156,-0.0133557785,9.806236,-0.0007709116,0.0004295921,-0.0008945465,0.00016784668,-1.5258789e-05,0.00018310547
0.0014753356,-0.004366865,0.4560766,0.093322754,-0.009567261,9.800995,10.76355,10.751343,-48.24524,0.08941829,-0.013311186,9.806233,0.0015197843,-0.0008048238,0.0005092621,0.00022888184,0.00021362305,-0.00032043457
0.0014260906,-0.0043994454,0.45621186,0.08375549,-0.021530151,9.812973,12.327576,9.686279,-48.14911,0.08954425,-0.014475779,9.806231,0.00067433715,-0.0020356271,0.000500679,-7.6293945e-05,0.00010681152,-0.0001373291
0.0014053336,-0.004401316,0.4562412,0.090927124,-0.009567261,9.793823,12.1536255,11.051941,-47.032166,0.08939068,-0.014857733,9.8062315,0.0001084581,-0.00093616825,0.00049495697,4.5776367e-05,0.00010681152,0.00012207031
0.0014151576,-0.0043953606,0.45621547,0.095718384,-0.0047912598,9.786652,12.550354,10.935974,-47.451782,0.089375086,-0.014630408,9.806232,0.00037179142,0.00027026143,-0.000790596,4.5776367e-05,0.00010681152,-0.0002593994
0.0014001119,-0.004402142,0.4562494,0.088531494,-0.0143585205,9.805786,12.22229,10.995483,-48.406982,0.08935823,-0.014957083,9.8062315,-9.725243e-05,-0.00059368555,-0.0005273819,-1.5258789e-05,-1.5258789e-05,0.0
0.0013979346,-0.004343539,0.45611513,0.095718384,-0.011962891,9.815353,11.550903,10.368347,-48.431396,0.088318184,-0.01445734,9.806242,-0.0016780347,0.0003403416,-0.00083065033,0.00016784668,0.00010681152,-0.00038146973
0.0013866377,-0.0043726726,0.45619676,0.088531494,-0.01675415,9.805786,11.354065,11.146545,-47.358704,0.08872424,-0.014923289,9.806237,6.055832e-05,-0.0011152392,0.0015230179,4.5776367e-05,-0.00019836426,-0.0001373291
0.0013463955,-0.004346519,0.45618406,0.08375549,-0.01675415,9.800995,11.74469,11.0321045,-48.077393,0.08790794,-0.015390372,9.806244,-0.0010453314,-0.00087717455,-0.00010585785,-1.5258789e-05,0.00015258789,-6.1035156e-05
0.0013122862,-0.004358949,0.45625412,0.08375549,-0.0143585205,9.800995,12.034607,10.47821,-49.10736,0.08781844,-0.016103823,9.806244,0.00024422258,-0.0013682581,0.0011997223,-1.5258789e-05,0.00010681152,4.5776367e-05
0.001307344,-0.0043576243,0.45625696,0.08135986,-0.0143585205,9.8033905,12.77771,10.73761,-47.875977,0.08775104,-0.016178505,9.806244,-0.00041344017,-0.00033081882,0.0017671585,4.5776367e-05,-7.6293945e-05,-6.1035156e-05
0.0013493579,-0.0043568225,0.45620456,0.095718384,-0.01675415,9.810577,11.856079,10.0997925,-49.028015,0.08811391,-0.015432887,9.806242,0.00018899888,0.0013184538,-0.0008955002,4.5776367e-05,-0.0001373291,6.1035156e-05
0.0013855163,-0.0043717017,0.45619586,0.08375549,-0.0143585205,9.808182,12.876892,9.432983,-48.373413,0.08869727,-0.014934078,9.806237,0.0017547086,0.00010289252,0.0005197525,0.00022888184,0.00015258789,-0.00044250488
0.001432682,-0.004356152,0.45610282,0.095718384,-0.009567261,9.805786,12.42218,10.0616455,-48.454285,0.08884936,-0.013962465,9.806238,0.001117818,0.0012821984,-0.0007753372,0.00016784668,0.00021362305,-0.00044250488
0.0014548388,-0.004353881,0.4560709,0.088531494,-0.01675415,9.7986145,12.835693,10.229492,-47.982788,0.089008406,-0.01355223,9.806236,0.0007307753,0.00039881188,-0.00020313263,0.00010681152,0.00010681152,-0.00018310547
0.0014139395,-0.004359168,0.4561324,0.090927124,-0.01675415,9.7986145,11.309814,10.197449,-47.54944,0.08873386,-0.01431953,9.806238,0.0002727583,-0.0017177975,2.4795532e-05,4.5776367e-05,0.00021362305,-0.00019836426
0.0014174865,-0.0043518348,0.456111,0.086135864,-0.0143585205,9.796219,12.225342,9.170532,-48.098755,0.08863794,-0.014189885,9.806239,0.00085975975,7.471908e-05,-0.0006275177,4.5776367e-05,0.0002746582,-0.0002593994
0.0013896966,-0.004367247,0.45618042,0.093322754,-0.01914978,9.808182,12.127686,10.394287,-46.939087,0.08865719,-0.014819726,9.806238,0.00084669143,-0.0009749746,-0.0013771057,-7.6293945e-05,0.00021362305,-0.00032043457
0.0013935956,-0.0043427707,0.45611855,0.090927124,-0.0143585205,9.8033905,12.585449,10.070801,-48.3078,0.088265896,-0.014526539,9.806242,-0.00019653887,0.00016622618,3.6239624e-05,0.00010681152,0.00015258789,-0.0002593994
0.0014253377,-0.0043294365,0.45604926,0.08135986,-0.011962891,9.810577,12.120056,10.476685,-48.205566,0.08831821,-0.013846344,9.806243,0.0011774227,0.0011658464,0.00178051,4.5776367e-05,0.0002746582,-0.00044250488
0.0014007597,-0.004320706,0.4560584,0.088531494,-0.0143585205,9.800995,11.424255,9.336853,-48.55957,0.087945834,-0.014198155,9.806246,-0.0005912706,-0.0013526911,-0.0023231506,0.00016784668,4.5776367e-05,-0.00024414062
0.001367776,-0.0042830994,0.4560102,0.086135864,-0.011962891,9.810577,12.033081,10.554504,-49.69635,0.0869952,-0.014432776,9.806253,-0.0008456707,-0.00088931434,-0.00011730194,0.00010681152,0.0002746582,-0.0002593994
0.0013553128,-0.004301674,0.45606858,0.088531494,-0.021530151,9.7986145,11.190796,9.387207,-47.558594,0.08720698,-0.014822178,9.806252,-0.000101432204,-0.0007279543,0.0011949539,-1.5258789e-05,-0.0001373291,-0.00019836426
0.0013969035,-0.004288735,0.45598835,0.08375549,-0.01675415,9.793823,12.434387,10.279846,-48.10791,0.08735442,-0.013972612,9.806252,0.0002277419,0.0010465039,-0.00080013275,0.00016784668,-1.5258789e-05,-0.00019836426
0.0013709271,-0.0042984267,0.45604223,-0.021530151,0.03111267,9.743576,12.042236,10.545349,-48.490906,0.08729039,-0.014518,9.806251,0.00028840452,-0.0017493004,0.000746727,0.00016784668,0.00010681152,-0.00032043457
0.0013033332,-0.004070536,0.4555907,0.28953552,0.009567261,9.810577,11.961365,10.389709,-47.688293,0.08271502,-0.01361748,9.806292,-0.008543044,0.00044930913,0.0022449493,0.00035095215,0.00015258789,0.00010681152
0.0015644669,-0.0046500103,0.45663023,-0.2033844,-0.04067993,9.815353,12.347412,10.124207,-48.060608,0.095148675,-0.014347486,9.806178,0.024258882,-0.00048519205,-0.0020112991,-0.0002593994,-0.00015258789,-0.00079345703
0.0012352257,-0.004050268,0.45562515,0.33259583,-0.007171631,9.7986145,12.289429,10.632324,-48.031616,0.08175202,-0.014628642,9.806298,-0.024556413,-0.002599544,0.00041103363,0.0005340576,0.000579834,0.00047302246
0.0014551126,-0.0043579456,0.45608005,-0.0382843,-0.021530151,9.789032,12.831116,10.31189,-49.176025,0.09021686,-0.014596905,9.806225,0.01430244,0.003299418,-3.9100647e-05,-0.00032043457,-9.1552734e-05,-0.0006866455
0.0013992845,-0.0041280673,0.45560995,0.16270447,-0.009567261,9.812973,12.539673,10.795593,-48.008728,0.08457656,-0.012458154,9.806277,-0.010863215,0.004552128,0.00081825256,-7.6293945e-05,0.00010681152,-0.00050354004
0.0014491776,-0.0045290748,0.45648673,-0.21296692,-0.0047912598,9.853638,11.784363,10.237122,-48.468018,0.092008494,-0.015261183,9.806207,0.015203334,-0.005799071,-0.0010528564,4.5776367e-05,9.1552734e-05,-0.0005645752
0.0012281515,-0.0037964855,0.4550396,0.4857483,-0.0047912598,9.784256,12.319946,9.539795,-47.95227,0.0772663,-0.012433433,9.806338,-0.027476363,0.0057322877,0.00025844574,-1.5258789e-05,0.0005187988,0.0005340576
0.0014000841,-0.004581009,0.45666695,-0.093322754,-0.0382843,9.815353,11.497498,11.096191,-49.11194,0.09247184,-0.016601598,9.8062,0.028870605,-0.00947923,-0.0004644394,0.000289917,-0.00039672852,-0.00093078613
0.001686473,-0.0046067615,0.45638275,0.0382843,0.01914978,9.805786,11.235046,10.4904175,-48.31848,0.09549001,-0.01180472,9.806178,0.0069370717,0.010369148,0.0020780563,-0.00019836426,0.00022888184,0.0005340576
0.0010884982,-0.004088132,0.45589018,0.26081848,-0.047851562,9.791428,12.666321,10.075378,-48.15979,0.08109667,-0.017552877,9.806299,-0.028200634,-0.012844596,0.000111579895,0.00035095215,0.00015258789,-0.0001373291
0.001721344,-0.004603022,0.45633215,-0.098098755,0.023925781,9.820145,11.392212,10.430908,-48.561096,0.09573751,-0.011157257,9.806176,0.028460614,0.013307949,0.00055503845,-0.0001373291,-0.00021362305,-0.00032043457
0.0011961067,-0.0042902394,0.45623332,0.21057129,-0.06460571,9.8033905,12.341309,9.901428,-47.351074,0.085580066,-0.017514592,9.806261,-0.018561691,-0.013601566,-0.0023527145,0.00022888184,0.00045776367,-0.0001373291
0.0017706054,-0.0048751766,0.4569072,-0.34217834,-0.052642822,9.84407,12.361145,10.33783,-47.262573,0.10091962,-0.012798683,9.806123,0.029302888,0.012319347,-0.0060281754,-0.00074768066,-0.00033569336,-0.00074768066
0.0011643718,-0.004158534,0.45596358,0.21774292,-0.011962891,9.767502,12.4435425,10.421753,-47.77832,0.08300263,-0.016864754,9.806284,-0.03300924,-0.011606183,0.012246132,0.00090026855,0.0007019043,0.000289917
0.0013486991,-0.0040296535,0.45544058,0.20578003,-0.009567261,9.817749,12.19635,10.48584,-48.809814,0.082408726,-0.01244621,9.806296,-0.0024894178,0.010295661,-0.00076293945,-0.00038146973,-0.00033569336,-0.00036621094
0.0014636652,-0.004790675,0.45707944,-0.13400269,-0.04547119,9.805786,11.53717,10.227966,-49.214172,0.09669149,-0.017415002,9.806158,0.028210856,-0.01130094,-0.00051784515,0.00035095215,-9.1552734e-05,-0.00032043457
0.001401106,-0.004041665,0.4554057,0.30867004,0.028717041,9.815353,11.868286,10.165405,-47.88208,0.083087035,-0.011635184,9.806292,-0.026378222,0.011636319,0.00093364716,-1.5258789e-05,0.00021362305,0.00047302246
0.0013096608,-0.0045662783,0.45674136,-0.035888672,-0.06460571,9.800995,12.339783,10.057068,-48.602295,0.091403425,-0.018055048,9.806208,0.015558548,-0.0120958965,-0.0016126633,-0.00019836426,-0.0002746582,-0.0006866455
0.0018188898,-0.0049893963,0.4571151,-0.21534729,-0.026321411,9.88475,12.666321,10.302734,-49.397278,0.103341885,-0.013004072,9.806097,0.023258023,0.011812252,-0.0031366348,-0.00044250488,-0.00015258789,-1.5258789e-05
0.001019869,-0.0040442743,0.45587012,0.19381714,-0.035888672,9.82254,11.741638,10.88562,-47.805786,0.07971786,-0.018356934,9.806309,-0.043823317,-0.013703132,0.0014047623,0.00077819824,0.00088500977,4.5776367e-05
0.0014520392,-0.004084419,0.45544454,0.16749573,0.01914978,9.805786,12.95166,9.675598,-50.74463,0.08428801,-0.0111313965,9.806282,0.008079581,0.015921846,-2.5749207e-05,-0.00038146973,-0.0002746582,-1.5258789e-05
0.0012972417,-0.004687292,0.45703867,-0.08375549,-0.06460571,9.777069,12.071228,9.457397,-48.638916,0.09339704,-0.01938703,9.806186,0.018344477,-0.017936261,0.0009384155,0.00036621094,3.0517578e-05,-0.00024414062
0.0014506745,-0.0040444816,0.45535278,0.26560974,0.052642822,9.805786,12.042236,10.469055,-47.976685,0.08357959,-0.01078985,9.806288,-0.019217916,0.018205607,0.0004720688,-0.0002593994,0.00010681152,0.00030517578
0.0012500571,-0.004566179,0.4568129,-0.033493042,-0.088531494,9.796219,11.805725,10.676575,-48.303223,0.090866216,-0.01910141,9.8062105,0.013717994,-0.01727885,-0.0035181046,0.00016784668,-0.00021362305,-0.00050354004
0.001600708,-0.004734601,0.4567839,-0.35891724,-0.062210083,9.848862,11.555481,10.36377,-47.828674,0.09694671,-0.0144894775,9.80616,0.012627952,0.01113463,0.0061178207,-0.00050354004,0.00010681152,-0.00038146973
0.0010425922,-0.0034917213,0.45454806,0.5790558,0.007171631,9.865616,12.518311,10.279846,-47.73407,0.070294775,-0.012915416,9.80639,-0.051608957,-0.0014475714,-0.009174347,0.0012054443,0.00045776367,0.001083374
0.0016867415,-0.0047016283,0.45660362,-0.22732544,-0.01914978,9.815353,11.741638,10.884094,-47.579956,0.09714478,-0.012673341,9.806161,0.05075273,0.003575895,0.0013895035,-0.0008087158,-0.00076293945,-0.000869751
0.0013381719,-0.0043443185,0.4561888,0.15074158,-0.01675415,9.817749,12.353516,10.272217,-48.10791,0.087795876,-0.015514682,9.806245,-0.016939394,-0.008186666,-0.00051498413,0.00065612793,0.00045776367,0.00035095215
0.0013348734,-0.003991484,0.4553679,0.22013855,0.0023956299,9.7986145,12.271118,10.192871,-47.89276,0.081619784,-0.012339998,9.806303,-0.0119798705,0.008034894,0.0023622513,-0.00044250488,9.1552734e-05,-0.00044250488
0.0014797025,-0.0046661044,0.4567697,-0.112457275,-0.04307556,9.808182,12.431335,10.281372,-48.48633,0.094667844,-0.015985504,9.80618,0.0261909,-0.008432679,-0.0019254684,0.000289917,3.0517578e-05,-0.00062561035
0.001118863,-0.0043257726,0.4564093,-0.062210083,-0.124420166,9.970886,11.083984,10.697937,-48.11859,0.085505225,-0.019197593,9.806258,-0.015355185,-0.0044921096,-0.0030527115,-0.00050354004,0.00077819824,-0.00038146973
0.0012321927,-0.0035170612,0.45437986,0.5407715,0.090927124,9.939789,12.727356,9.642029,-48.399353,0.07242961,-0.009815362,9.806377,-0.026466615,0.0148329595,0.0033855438,0.0010223389,-9.1552734e-05,0.00035095215
0.0016756947,-0.0050358227,0.45739537,-0.33738708,-0.095718384,9.86322,12.350464,10.197449,-47.894287,0.102862895,-0.015950603,9.806097,0.05820453,-0.008467518,-0.0004415512,-0.0009918213,-0.0006866455,-0.0006866455
0.0014144402,-0.004023798,0.45534793,0.29193115,0.052642822,9.817749,11.558533,10.360718,-47.528076,0.08289489,-0.011237382,9.8062935,-0.03741868,0.0064454414,0.004160881,0.00077819824,0.00064086914,0.00065612793
0.0013465119,-0.004172205,0.45577657,0.105285645,-0.062210083,9.793823,11.122131,9.829712,-48.67401,0.08487301,-0.013789827,9.806273,0.0027179047,-0.0020039082,-0.0001001358,-0.0008087158,-0.00032043457,-0.00050354004
0.0016726478,-0.004525586,0.45621002,-0.071777344,0.011962891,9.7986145,11.442566,9.62677,-48.0484,0.09395187,-0.011301123,9.806193,0.01827982,0.0024506282,0.00041007996,0.00065612793,3.0517578e-05,4.5776367e-05
0.0014980128,-0.004414095,0.45615962,-0.19381714,0.0047912598,9.86322,10.954285,9.521484,-48.049927,0.09044425,-0.013346297,9.806224,-0.0075983256,-0.0060399994,-0.013489723,0.001449585,0.0010681152,-0.00062561035
0.0011001792,-0.0035018502,0.45450267,0.43070984,-0.011962891,9.839294,12.780762,10.8078,-47.712708,0.07098573,-0.011996064,9.806386,-0.038205124,0.006733563,0.014454842,-0.0010528564,0.00015258789,0.00024414062
0.0014298529,-0.004711033,0.45693445,-0.17228699,-0.04307556,9.841675,11.637878,10.517883,-48.480225,0.095001936,-0.017275356,9.806175,0.046675123,-0.013595803,-0.0063123703,0.00077819824,-0.00033569336,-0.000869751
0.0015158214,-0.0040501817,0.4552879,0.17706299,0.0382843,9.815353,12.077332,9.603882,-48.835754,0.084261656,-0.009697046,9.806283,-0.019894853,0.016869832,0.005522728,-0.00044250488,0.00039672852,0.00022888184
0.0010501725,-0.004199818,0.45619753,0.15553284,-0.07417297,9.7986145,12.426758,10.284424,-49.014282,0.08269693,-0.019249115,9.806283,-0.0037351474,-0.020941963,-0.0017490387,0.00047302246,-0.00015258789,-0.00038146973
0.0021926917,-0.0054641366,0.45776948,-0.50727844,-0.021530151,9.793823,12.185669,10.113525,-48.05603,0.11496621,-0.010824567,9.80597,0.06264655,0.0211032,-0.011676788,-0.0011138916,-0.00045776367,-0.0009918213
0.00084456446,-0.0038229274,0.4555627,0.20817566,-0.026321411,10.076172,12.414551,9.840393,-48.272705,0.074293286,-0.019412383,9.80635,-0.07548465,-0.024135893,0.011487961,0.0018157959,0.0014953613,0.00035095215
0.001378362,-0.0036070773,0.4544155,0.3062744,0.093322754,9.891922,12.667847,10.3012085,-49.171448,0.07530461,-0.008066805,9.806357,0.0003168732,0.027689721,6.67572e-06,-0.0012969971,-0.00044250488,-1.5258789e-05
0.0012643472,-0.004933328,0.4576519,-0.20100403,-0.119644165,9.829712,11.962891,10.464478,-47.824097,0.09737878,-0.02223353,9.806142,0.044296876,-0.030656414,-0.0033435822,0.0005950928,4.5776367e-05,-0.00044250488
0.0015740833,-0.0038089587,0.45465362,0.29670715,0.119644165,9.810577,12.10022,9.963989,-47.932434,0.08057429,-0.0064681843,9.806317,-0.03202089,0.03182952,0.0066976547,-7.6293945e-05,0.00039672852,0.00035095215
0.0009659671,-0.0045247907,0.45705843,0.25602722,-0.07417297,9.9039,12.194824,10.18219,-47.286987,0.08759229,-0.02371128,9.806231,0.013398632,-0.0344422,-0.0057458878,-1.5258789e-05,-0.00015258789,-0.0006866455
0.0014689794,-0.0036651234,0.45444283,0.6699829,0.13160706,10.19342,13.165283,10.473633,-48.40088,0.07712614,-0.00700333,9.806344,-0.019647561,0.030207908,-0.009259224,0.0008392334,0.00035095215,0.00061035156
0.0014525029,-0.005068838,0.45774087,-0.4091797,-0.16749573,9.877579,11.86676,10.166931,-48.109436,0.10142865,-0.020178901,9.806105,0.04621844,-0.019540334,0.010275841,-0.0017852783,-0.00064086914,-0.0015411377
0.0014909434,-0.004104802,0.45544547,0.26081848,0.08135986,9.858429,11.465454,10.137939,-47.94464,0.0849914,-0.010634267,9.806276,-0.029229052,0.01206775,-0.00067424774,0.0018310547,0.0009460449,0.00090026855
0.0011510684,-0.004143223,0.4559438,0.16989136,-0.102890015,9.786652,12.8479,10.449219,-47.938538,0.08261678,-0.01695821,9.806288,-0.005087748,-0.0079286955,0.0017910004,-0.0012359619,-9.1552734e-05,-0.0005645752
0.0015921068,-0.0046542184,0.45660684,-0.107681274,0.028717041,9.779465,11.787415,10.159302,-47.80426,0.095470004,-0.0139003815,9.806175,0.02607277,0.0016946215,0.0013532639,0.0011444092,9.1552734e-05,-0.00032043457
0.0012623793,-0.004093139,0.4556928,0.18424988,0.1651001,9.492325,11.351013,9.555054,-48.965454,0.08274204,-0.014543974,9.806291,-0.024375685,0.002339363,0.0016937256,-0.00093078613,0.0002746582,0.00012207031
0.00071201305,-0.0034148814,0.45476508,0.66041565,-0.14117432,9.635895,12.548828,9.115601,-47.595215,0.06600087,-0.018021617,9.806412,-0.031273983,-0.007590385,-0.011481285,0.00016784668,0.0005950928,-0.0002593994
0.0019615744,-0.0049730167,0.45690557,-0.31825256,0.026321411,9.812973,12.510681,10.134888,-47.98889,0.104337834,-0.010343668,9.80609,0.07347787,0.013208796,0.0011301041,0.0005493164,-0.0008239746,-0.0008087158
0.0014209735,-0.0045645456,0.4566034,0.15074158,-0.093322754,9.722046,12.194824,10.334778,-48.16284,0.09237283,-0.01608305,9.806202,-0.02036152,-0.009519426,0.009032249,-0.00050354004,0.00090026855,0.00065612793
0.0012878947,-0.0039800103,0.45539746,0.24645996,0.028717041,9.726822,12.290955,10.707092,-48.242188,0.08099942,-0.01306053,9.806307,-0.022148833,0.0032520024,0.0023565292,0.0007171631,0.00015258789,-0.0008087158
0.0015826932,-0.004817025,0.45699766,-0.13400269,-0.055038452,9.774673,12.583923,9.843445,-47.146606,0.09821961,-0.015565844,9.806146,0.03408713,-0.002375722,-0.0011434555,-0.0006866455,-9.1552734e-05,-0.0001373291
0.0016488975,-0.0043130163,0.45574236,0.5359955,0.086135864,9.851257,12.463379,10.786438,-47.402954,0.090034604,-0.009766266,9.8062315,-0.017108925,0.010977904,0.009127617,0.00016784668,-0.00021362305,0.0008392334
0.0014205554,-0.0053930194,0.45853359,-0.4091797,-0.07417297,9.8033905,12.503052,10.140991,-48.893738,0.10677344,-0.023741707,9.80604,0.033614665,-0.029129902,-0.0001411438,0.000289917,3.0517578e-05,-0.0012207031
0.0012620204,-0.0034509897,0.45418912,0.3637085,0.15792847,9.652649,11.843872,9.73053,-48.498535,0.07154294,-0.008690082,9.806385,-0.06555268,0.029273117,-0.014466286,0.00022888184,0.0013122559,0.00047302246
0.000894886,-0.0042292885,0.45645344,0.100494385,-0.12921143,9.793823,12.353516,10.345459,-48.316956,0.08181546,-0.022246588,9.806284,0.01871778,-0.026576841,-0.007086754,-0.0001373291,-0.00045776367,-0.00044250488
0.0018165138,-0.004457922,0.45587942,-0.090927124,0.117248535,9.829712,12.034607,10.324097,-48.158264,0.094061255,-0.008149832,9.806196,0.024643674,0.027297698,0.0045309067,0.00022888184,3.0517578e-05,0.00010681152
0.00095454295,-0.0041206884,0.45612755,0.29910278,-0.12921143,9.805786,11.860657,10.173035,-48.936462,0.08046184,-0.02020381,9.806299,-0.026607737,-0.021915745,-0.0003376007,-0.0005645752,0.00015258789,0.00022888184
0.0017175885,-0.004355872,0.45575997,-0.61016846,0.009567261,10.626526,11.943054,10.02655,-47.912598,0.09139657,-0.008951965,9.80622,0.021782026,0.019953143,0.0040864944,0.00065612793,-3.0517578e-05,-0.00050354004
0.0012370995,-0.004170318,0.45590368,0.5168457,-0.088531494,9.415756,11.84845,9.957886,-49.4339,0.08385977,-0.01569499,9.806279,-0.011677228,-0.010610871,0.020415306,-0.00074768066,0.0008392334,0.0011444092
0.00093660643,-0.0037402734,0.45525828,0.3517456,-0.03111267,9.408585,11.468506,10.133362,-47.416687,0.07367843,-0.017041642,9.806358,-0.02082394,-0.0071207676,-0.010632515,0.0011444092,-9.1552734e-05,-0.0014801025
0.0009855442,-0.0042791753,0.45646092,0.29910278,-0.07896423,9.707687,11.378479,10.063171,-48.335266,0.08349744,-0.021111866,9.8062725,-0.038698994,-0.02316511,-0.012496948,0.0010375977,0.00076293945,0.0007171631
0.001518506,-0.0040972712,0.45539477,0.088531494,0.059814453,9.769897,11.265564,9.40094,-48.464966,0.0851067,-0.010080887,9.806276,0.0017849654,0.0251538,0.0050725937,-0.0008087158,-0.00038146973,-0.00038146973
0.0012557609,-0.004838823,0.457442,-0.055038452,-0.119644165,9.796219,12.133789,10.771179,-48.22235,0.09565881,-0.021512382,9.80616,0.021167316,-0.024199074,-0.0052251816,0.00035095215,3.0517578e-05,-1.5258789e-05
0.0015395638,-0.003933778,0.45498714,0.2679901,0.110076904,9.8033905,11.878967,10.536194,-48.713684,0.082443796,-0.008215135,9.8063,-0.025239341,0.026402164,0.0071935654,4.5776367e-05,0.000289917,0.00010681152
0.0011325442,-0.004675271,0.457209,-0.021530151,-0.13400269,9.789032,12.437439,10.50415,-49.043274,0.091706775,-0.02216993,9.806196,0.017679267,-0.027839478,-0.0023736954,-1.5258789e-05,-0.00021362305,4.5776367e-05
0.0017431132,-0.004182541,0.45532453,0.114852905,0.110076904,9.824936,12.496948,9.767151,-47.68524,0.08860224,-0.0069135968,9.806248,-0.0055647865,0.028214935,0.0059108734,0.0005950928,0.00015258789,0.00022888184
0.001058716,-0.004412756,0.45668498,0.12921143,-0.12921143,9.800995,12.107849,10.26001,-48.477173,0.08647822,-0.021052675,9.806247,-0.0046311766,-0.02632931,-0.00340271,-0.00050354004,-9.1552734e-05,0.0
0.0017261725,-0.0043032444,0.4556268,0.0143585205,0.100494385,9.82254,11.151123,10.33783,-48.043823,0.09055582,-0.008318116,9.806229,0.008283526,0.024110213,0.0014028549,0.00035095215,3.0517578e-05,-0.00012207031
0.0010706332,-0.0043813353,0.45659724,0.16270447,-0.1268158,9.796219,12.051392,10.688782,-48.085022,0.08603877,-0.020554814,9.806252,-0.008241296,-0.022755226,-0.0035324097,-0.00044250488,0.00021362305,0.00010681152
0.0016413871,-0.0042521046,0.4556091,0.04547119,0.088531494,9.805786,12.045288,10.542297,-48.03772,0.08890551,-0.009339596,9.806243,0.006108083,0.020339884,0.0025863647,0.0005340576,9.1552734e-05,-0.00032043457
0.0012058851,-0.004471193,0.4566443,0.093322754,-0.117248535,9.805786,11.77063,9.796143,-48.02704,0.08881688,-0.019004198,9.80623,0.00022178143,-0.01784982,-0.0014705658,-0.00038146973,0.00010681152,0.00010681152
0.0015470203,-0.0041764714,0.4555457,0.112457275,0.07417297,9.810577,11.657715,9.133911,-48.46039,0.086742535,-0.010305104,9.806261,-0.003471367,0.015568916,0.003329277,0.00047302246,0.00016784668,4.5776367e-05
0.0012575964,-0.0044224435,0.45646822,0.062210083,-0.100494385,9.7986145,12.986755,10.023499,-48.184204,0.088432916,-0.017647779,9.806235,0.0034723282,-0.012506945,-0.0028867722,-0.0005645752,3.0517578e-05,-6.1035156e-05
0.0015000282,-0.0042140367,0.4556899,0.114852905,0.059814453,9.805786,11.865234,10.017395,-47.610474,0.0869767,-0.011475311,9.806258,-0.0017793179,0.010284127,0.0020589828,0.0005340576,0.000289917,-6.1035156e-05
0.0012722973,-0.0043445113,0.4562685,0.0765686,-0.08135986,9.793823,13.633728,10.292053,-49.06006,0.087208346,-0.01667394,9.806248,0.00039125234,-0.008688873,-0.0014953613,-0.00044250488,-1.5258789e-05,-1.5258789e-05
0.0014746845,-0.0042436663,0.45578957,0.08375549,0.033493042,9.810577,11.723328,10.369873,-47.305298,0.087266095,-0.012192361,9.806254,0.00055053085,0.006683618,0.002673149,0.0005950928,0.00010681152,0.00024414062
0.0012797873,-0.00433247,0.45623136,0.102890015,-0.062210083,9.7986145,11.096191,10.916138,-47.84851,0.08706591,-0.016431829,9.80625,-0.00021497905,-0.006303372,0.0009794235,-0.0005645752,4.5776367e-05,4.5776367e-05
0.001381671,-0.004350407,0.45615074,0.07896423,0.023925781,9.812973,12.197876,10.48584,-48.735046,0.088291965,-0.014806178,9.806241,0.0028741434,0.002126988,0.00065135956,0.000289917,0.00010681152,0.00010681152
0.0013109304,-0.004356259,0.45624948,0.100494385,-0.04067993,9.8033905,12.583923,10.148621,-48.971558,0.08775944,-0.016102957,9.806245,-0.0011344403,-0.0008802321,-0.0013246536,-0.00044250488,-1.5258789e-05,0.00022888184
0.0013684426,-0.00437114,0.45621505,0.08375549,0.009567261,9.796219,12.194824,10.333252,-48.16284,0.088534385,-0.015228958,9.806239,0.002145432,0.00062684156,0.00087451935,0.000289917,0.00015258789,-7.6293945e-05
0.0013672085,-0.004347033,0.45616025,0.08135986,-0.033493042,9.805786,11.759949,9.802246,-49.157715,0.08810353,-0.015029355,9.806243,-0.00028636307,0.0016316539,-0.0013303757,-0.00032043457,0.00015258789,-0.0001373291
0.0013544214,-0.0043360153,0.45614988,0.088531494,-0.0023956299,9.810577,12.117004,10.2508545,-47.195435,0.087797016,-0.015152941,9.806246,2.4855137e-05,-0.0018313909,-0.0010519028,0.0004119873,0.00016784668,6.1035156e-05
0.001438242,-0.004312542,0.45599428,0.0765686,-0.01675415,9.7986145,10.475159,9.713745,-48.594666,0.08813958,-0.013464543,9.806245,0.0006374419,0.003897069,0.0013742447,-0.0001373291,-1.5258789e-05,-0.00019836426
0.0013620469,-0.0042882864,0.4560292,0.100494385,-0.01914978,9.812973,12.324524,9.384155,-46.62323,0.08703419,-0.014581027,9.806253,-0.0016174018,-0.0028899657,0.00075149536,0.00016784668,0.00015258789,-0.0002593994
0.0014578804,-0.0042919344,0.45592254,0.08375549,-0.009567261,9.82254,12.739563,10.012817,-48.854065,0.087956555,-0.012930352,9.806248,0.0017811805,0.0038359975,-0.0006170273,-0.0001373291,-1.5258789e-05,0.00012207031
0.0013373536,-0.004358602,0.45622316,0.095718384,-0.021530151,9.7986145,12.063599,11.134338,-48.976135,0.088037245,-0.015660165,9.806243,0.00074239075,-0.0056418143,-0.0007286072,4.5776367e-05,0.00015258789,-0.00019836426
0.0013409185,-0.0041217846,0.4556654,0.047851562,0.0143585205,9.853638,11.46698,10.136414,-47.644043,0.08394449,-0.013426258,9.806282,0.0053182393,0.0036126068,-0.0024375916,0.00022888184,0.0035247803,0.0005950928
2.703625e-05,-0.0056782467,0.4497131,0.7010956,0.14596558,11.064407,11.6622925,11.103821,-48.513794,0.099708386,-0.049610555,9.806017,-0.010751985,-0.014490601,0.015798569,-0.01576233,-0.01083374,-0.071899414
0.04022355,-0.043018807,0.43502262,4.536789,1.3184509,13.605591,7.777405,7.2128296,-50.201416,1.1012903,0.34178838,9.73862,-0.15200043,-0.59036416,1.2154846,0.21325684,-0.5293884,-0.12432861
0.05052628,-0.058349684,0.36134782,5.1349945,0.20100403,8.645264,8.956909,4.4387817,-48.703003,1.4215307,0.5073186,9.689802,3.0757217,0.92129755,0.67532253,-0.06311035,-0.1318512,-0.96824646
0.05328332,-0.057758003,0.190626,-0.19381714,-0.79681396,8.128418,11.727905,8.694458,-47.41974,1.3076994,0.80666006,9.685536,3.383191,-0.16492134,0.11257553,-0.13439941,-0.0023498535,-2.1987762
0.06641381,-0.072159514,-0.028444838,-1.0983124,0.04067993,7.6546326,4.1366577,13.206482,-45.585632,1.3708363,1.3360428,9.618013,-1.9858068,-1.3740845,-1.0855742,-0.008010864,-0.280838,-1.820343
0.04910993,-0.04379352,-0.035374407,1.306488,-0.7920227,10.0785675,2.5543213,13.449097,-43.659973,0.8224624,0.9909005,9.721731,-1.1910684,-0.5223114,-0.7147074,-0.1915741,0.23143005,-0.17880249
0.029523715,-0.029074367,0.0032649448,-0.04307556,0.105285645,9.08316,4.9179077,15.785217,-42.44995,0.5716421,0.57669526,9.772975,-0.083826125,-0.8387911,0.35022736,-0.1793518,0.1435852,0.20077515
0.006393436,-0.022288604,0.031421386,1.0600128,-0.0765686,8.547165,8.106995,18.536377,-41.038513,0.44075975,0.11156477,9.796104,-0.4170441,-0.1388909,-0.25672054,-0.23023987,0.06259155,0.14994812
-0.022993306,-0.034178186,0.045326255,-1.1509552,-1.385437,9.860825,7.801819,21.917725,-37.54425,0.64864755,-0.48051226,9.77337,0.15914208,0.11656734,-0.5878773,-0.3128357,-0.100997925,-0.041427612
-0.04244977,-0.0077257156,0.06324186,-1.3280182,0.23449707,11.028519,9.898376,22.131348,-37.8891,0.09842815,-0.83971936,9.770137,0.19894922,-0.6903668,0.8976574,-0.1703186,0.29136658,0.010681152
0.020115973,0.048539016,0.042430975,-3.0771637,-0.007171631,10.676773,15.6311035,19.320679,-40.130615,-0.933096,0.4340346,9.752504,0.16754746,-0.28532138,0.11812878,0.6871033,0.5488434,-0.35621643
0.03001305,0.0990176,0.019800106,-2.1439667,0.87098694,9.657425,16.098022,17.626953,-43.136597,-1.9196005,0.62383264,9.596684,-0.11980522,-0.80053544,-0.11203003,0.18331909,0.48666382,-0.4177246
0.032854043,0.11545357,0.015166759,-2.148758,0.47616577,9.355942,15.783691,19.03534,-39.590454,-2.238017,0.6739863,9.524044,0.09661126,0.055923343,0.19347,0.065841675,0.16052246,-0.18382263
0.016509147,0.117958024,0.010935812,-2.148758,0.086135864,9.3703,13.485718,19.448853,-37.449646,-2.2933965,0.34677488,9.528403,-0.05082202,0.25064635,0.11259842,-0.14050293,0.019348145,-0.17019653
0.0096826665,0.11958958,0.011388251,-2.4143524,0.122039795,9.564117,15.8203125,21.43097,-37.971497,-2.3262866,0.21523644,9.524308,0.079992294,-0.047750294,-0.09051323,-0.049606323,0.01676941,-0.07978821
0.009375155,0.11864339,0.017101696,-2.2420807,0.23210144,9.43251,15.577698,21.263123,-37.2406,-2.3069625,0.22233923,9.528845,-0.06216955,-0.08207798,-0.043061256,0.016738892,-0.013214111,-0.04374695
0.014439712,0.118199766,0.019395614,-2.325821,0.35653687,9.4253235,14.347839,19.151306,-38.601685,-2.2958603,0.32610628,9.52854,0.018029213,-0.09043485,-0.022368431,0.07525635,-0.007659912,-0.0716095
0.022992207,0.11542779,0.03278406,-2.285141,0.5886383,9.442078,13.98468,18.330383,-39.283752,-2.2321756,0.5217952,9.534963,-0.04310155,-0.19113153,-0.07481003,0.10908508,-0.035446167,0.00390625
0.057809494,0.105218954,0.035445247,-1.9142609,2.3521423,11.284546,10.51178,12.940979,-41.52069,-2.0072696,1.1980647,9.523964,-0.24232244,-0.5319468,-0.12931919,0.3820343,-0.13050842,-0.03060913
0.16651534,-0.036744006,-0.0022568197,3.1202393,4.134796,7.199997,-8.441162,4.9942017,-44.02466,0.70274377,3.2197006,9.236344,-2.0474417,-0.8223202,1.2179718,1.1187439,-1.5250549,-0.04032898
0.18822607,-0.17142802,-0.015053814,2.0817566,2.2875366,9.688538,-9.326172,6.83136,-43.992615,3.19551,3.6202698,8.535382,-0.17710018,0.14536,-1.200635,0.25448608,-1.3484497,0.18562317
0.14515206,-0.13567755,-0.08132993,2.0195465,2.9742737,8.985046,-12.858582,10.4522705,-42.8833,2.3674946,2.9969528,9.032366,-0.38808393,-0.227489,0.46560192,-0.5908966,0.19699097,-0.69487
0.091321625,-0.0898927,-0.129446,-0.24885559,0.46180725,10.205383,-3.6056519,15.797424,-41.871643,1.501746,1.9893816,9.484593,0.86910105,0.6956817,-0.5746889,-0.68777466,0.34848022,-0.5523529
0.053567935,0.0933098,-0.16406453,-6.3098755,1.4285126,6.891327,11.116028,15.603638,-41.079712,-1.966917,0.7299674,9.579601,2.3330114,0.32403243,0.4032297,-0.66096497,1.7853088,-0.7670746
0.12407586,0.23214597,-0.28642464,-9.286545,2.1439667,4.5511475,19.134521,12.762451,-38.513184,-4.891546,0.93772614,8.447712,0.278852,0.13178188,-0.09276581,0.7048187,1.5175629,-1.4593201
0.29487196,0.35445443,-0.35282797,-6.340973,1.4452667,-1.9142609,35.82611,1.8783569,-24.34845,-7.7008996,2.2559986,5.6371093,0.19161749,-1.4977119,1.6718812,1.6391449,1.8740082,-0.72340393
0.35516727,0.7098399,-0.0665686,-7.8556366,1.9932251,0.5790558,39.857483,6.903076,20.155334,-8.8812685,3.2849205,-2.5500515,0.14350891,-1.4132257,3.8871462,-1.0188751,5.0548706,0.6105499
0.5358886,0.8063084,-0.050548527,4.790436,-6.1447754,-11.303696,29.034424,7.4005127,32.626343,-4.409361,1.7780483,-8.57709,-4.1286144,-0.27687132,4.9564114,2.646469,3.4035034,1.5374908
0.38643017,0.89492893,0.12435096,-0.37327576,-0.928421,-4.9340057,19.160461,8.21228,40.67383,-2.3088043,3.586574,-8.830419,-0.9102354,-4.121768,-2.4737892,-1.5656738,1.6340485,-1.4719086
-0.19915092,-0.9614788,-0.102135345,4.3286133,2.778061,1.4069824,0.5859375,15.41748,42.904663,3.4082603,1.3027256,-9.102585,-1.5596929,-2.0160933,-3.462966,0.5723877,2.2886047,-0.5028229
-0.17531857,-0.6667737,-0.23329943,-4.4027863,-7.9872437,7.101898,-39.590454,13.441467,19.30542,9.770152,0.6930144,0.4839834,-6.3550663,0.6608293,-4.6263537,-1.2470398,6.443863,1.0858765
-0.37197295,0.43946913,-0.37456423,-6.570694,-11.44487,2.4885406,-15.090942,42.510986,5.644226,-3.5317326,-8.53082,3.3049002,0.21685886,-4.6154604,2.0911279,-6.0147552,6.389435,5.8000793
-0.23781855,0.50476307,-0.1346614,-5.1134644,-9.789032,1.2107697,20.223999,36.450195,18.441772,-7.4786024,-5.1526284,3.7001789,-1.7803078,-7.63047,0.18981934,-0.023773193,-0.3905487,3.087326
-0.3612526,0.38997406,-0.39859146,0.5670929,-12.2560425,4.6133575,0.6011963,45.339966,10.71167,-2.8921266,-8.343985,4.264261,-3.0882273,-3.8951426,-2.2169597,0.40151978,-0.27729797,-3.334137
-0.2762243,0.32740927,-0.54946345,2.0195465,-19.0038,2.4311066,-22.351074,46.13037,3.3569336,-1.6297158,-7.414795,6.207674,1.4561559,-7.8434696,0.9062462,1.5480042,0.6346741,-1.0843658
-0.39730728,-0.010103787,-0.888816,-4.0821533,4.718643,1.2227325,-41.42151,-5.8135986,-13.838196,6.9713163,-1.6016995,6.7086277,-2.6528163,-16.446762,-0.06380558,1.4930267,-1.057373,-7.757141
0.08083832,0.3388144,0.8341012,0.20817566,4.709076,8.853439,16.93573,-38.542175,-15.748596,-1.5198478,6.220981,7.426968,-5.9910936,-2.0417247,-0.17328262,-0.27496338,1.3410187,-8.804428
0.1065132,0.3263382,0.837929,-4.852646,10.430313,-1.1222382,21.194458,-36.49597,-17.547607,-0.96528566,6.249624,7.4953856,-4.065063,3.1218777,5.2476163,0.14250183,-0.5177307,0.10713196
0.22585157,0.4438594,0.80455285,4.125229,8.982651,0.33499146,15.621948,-44.76471,-4.7317505,0.74737746,8.437233,4.9421577,-3.4560409,1.7486753,1.9017243,1.7982635,-0.67393494,0.83865356
0.3847285,0.62156373,0.68198997,6.558731,13.765915,0.49771118,-8.435059,-41.734314,18.844604,4.8649344,8.488152,-0.673864,0.7103839,4.237669,0.78854525,3.2292938,-0.2144928,2.3493347
0.33105206,0.6069285,0.7130277,-0.1651001,4.2544403,0.7848511,2.5741577,-41.490173,15.953064,3.239764,9.24594,0.4323219,4.360933,6.915715,-0.9647362,-0.60702515,0.17506409,-1.0305481
0.1766806,0.60247195,0.6294112,-6.623337,11.069199,1.2370911,29.289246,-35.917664,5.645752,-3.2294161,9.024097,2.0753133,1.363649,0.02990961,0.81249475,-0.8052521,-0.85713196,-3.6367035
0.29528412,0.5722676,0.75267494,3.1178436,11.021347,2.9527435,4.5303345,-46.14258,8.753967,2.820248,9.242105,1.6733502,-4.965036,5.224901,0.7253976,0.2424469,0.6091919,3.6801758
0.0064179064,0.66566753,0.4564094,-3.5581207,-3.2350922,-0.21296692,35.968018,-0.9033203,9.580994,-7.6503744,6.0331664,1.1149281,6.9356246,6.1066847,2.0988467,0.75723267,-0.94111633,-6.7273407
-0.43673196,0.3529499,0.011066315,-4.37648,-10.676773,6.262024,13.774109,40.594482,14.483643,-5.822387,-7.010587,3.622411,-2.506748,0.0849781,-2.0338857,-0.7013397,-1.9851074,-7.71994
-0.44236374,0.35965544,0.034544565,-4.7282104,-7.9824524,2.6201477,14.222717,42.126465,7.1868896,-6.0899057,-6.878054,3.4315877,-1.9189765,-7.5694427,-0.05113077,0.04348755,0.013000488,0.339386
-0.413474,0.17047195,-0.1453805,-1.5481567,-6.6592255,8.063812,-6.7108154,44.796753,0.35705566,-1.7717481,-7.642965,5.88357,-3.1142223,-4.0700054,0.2794087,0.99308777,-1.5467377,-2.1109314
-0.41537073,0.18291995,-0.26290837,-3.9649048,-7.2095795,4.4602203,-6.529236,45.0943,1.3168335,-0.9126875,-7.879427,5.7664566,0.7109649,-1.2010174,0.105234385,0.02229309,0.6699219,-1.045517
-0.49928057,0.41352567,-0.058321144,-4.1563263,-14.072189,0.3134613,13.417053,37.73651,21.276855,-5.586081,-7.907061,1.5634826,0.19327474,-3.5172892,1.5267446,-2.0117798,1.6777344,2.2123718
-0.5521234,0.31454045,0.12906858,-4.393219,-9.310471,1.3710938,-15.692139,36.78589,23.149109,-6.0942225,-7.4477544,1.8872714,-1.1082306,-9.0454445,-0.9642104,-0.90745544,-1.4811401,0.82099915
-0.6695141,0.13541317,-0.1292975,3.373886,-9.317657,-0.44267273,-36.634827,24.656677,16.329956,-0.2112479,-9.782447,0.6553613,-3.6835093,-4.0674677,0.8434591,-0.8648071,-0.09513855,-3.458023
-0.6602265,0.025237534,-0.371329,5.7882385,-4.3262177,0.32063293,-43.763733,10.261536,-12.059021,4.485507,-8.631411,1.2447383,-0.47188354,-3.076035,-1.4524697,0.25442505,0.49642944,-2.6530151
-0.14489903,-0.11123247,-0.75013584,4.220932,2.7230377,7.1593323,-37.379456,-1.3122559,-25.552368,3.5183928,-0.16968589,9.152186,2.7795904,-1.9734356,1.2930946,1.9946594,2.011139,-0.91516113
-0.05419003,-0.14078476,-0.77020216,2.9168549,2.4550323,10.449463,-33.96454,-5.279541,-29.595947,2.5297625,1.468075,9.3603115,2.3786788,0.5054629,2.7009292,0.7859955,0.5806122,-0.34265137
-0.010563297,-0.17095928,-0.771366,0.27278137,4.319046,10.839493,-32.86438,-6.8237305,-31.544495,2.2149384,2.4594657,9.231222,2.54669,1.9421239,2.437675,0.43951416,0.19429016,-0.23947144
0.034299683,-0.10322293,-0.7756727,-3.5437775,0.7034912,9.291336,-27.319336,-6.4300537,-34.710693,0.7368227,1.9886127,9.574596,0.10401988,2.8957286,2.541009,-0.36653137,0.7606964,-0.14112854
0.025876658,-0.0008354636,-0.85340554,-0.9690857,-0.5862427,7.4153595,-24.731445,-6.1904907,-34.240723,-0.42459536,0.2782046,9.793504,-1.9834651,0.8116976,1.852633,-0.93133545,0.368515,-1.5090942
0.084112495,-0.06704472,-0.9540658,-0.6795654,1.4333038,8.786438,-18.391418,-23.6557,-30.657959,-1.2062505,1.7158656,9.579726,-0.19331771,-1.9157772,1.08535,1.0550232,0.16693115,-2.7131348
-0.07112494,0.030142857,0.996826,-2.8570251,2.244461,11.913864,-0.35705566,-30.848694,-29.614258,-1.4019486,0.5624685,9.6896105,0.59893906,0.8196829,0.9018359,-0.15174866,-0.306427,-3.2031708
-0.09668538,0.027544934,0.9485356,-2.210968,2.1511536,9.927826,21.661377,-27.349854,-26.574707,-1.9609566,-0.056999993,9.608422,-0.104650736,1.770303,3.087677,0.10884094,0.25727844,-2.9251556
-0.113442995,0.04249793,0.87393945,-0.3134613,-0.44984436,8.0686035,30.958557,-20.751953,-26.8219,-2.3368442,-0.3188438,9.518817,-0.4745208,2.7245493,3.155901,0.16664124,0.2632599,-1.8045197
-0.064122684,0.014010781,0.86606944,3.0556335,-0.4283142,9.5282135,26.493835,-18.971252,-31.710815,-1.2254074,-0.3852966,9.722156,-0.18406957,1.9096591,0.9483652,-0.03152466,-0.5792389,-0.2828369
0.019931281,-0.004555704,0.8740262,0.550354,1.6103668,9.418152,20.881653,-17.626953,-36.71875,0.38504875,0.11167431,9.798452,1.5953493,0.16526924,1.6638193,0.25405884,-0.78578186,0.078125
0.0076908995,-0.05577204,0.8596827,-1.5050812,0.63648987,9.22673,17.442322,-9.153748,-40.441895,0.6850556,-0.8637984,9.744482,-0.5586187,2.2744265,0.9023919,-0.6017151,-0.16654968,-0.20947266
-0.008904947,-0.06101921,0.87920445,-1.421341,-1.861618,15.108276,12.872314,-8.647156,-41.282654,0.41184938,-1.1347351,9.732068,-1.0171462,1.6355226,2.2227316,-0.17684937,0.052520752,0.44458008
-0.011985879,-0.060609158,0.8797243,-1.8496552,0.22492981,9.377472,12.026978,-11.932373,-38.67035,0.3536299,-1.156599,9.731785,-0.6183049,-0.47142953,3.8209934,-0.012954712,0.012130737,-0.056152344
0.01311439,-0.042939235,0.85398793,-0.3014984,0.50727844,7.101898,12.928772,-13.786316,-35.98938,0.6562056,-0.58588296,9.767115,-0.96084183,-0.017976463,0.49621964,0.2607727,-0.12916565,-0.67678833
-0.01679986,-0.040432453,0.85014266,-1.552948,-0.44506836,12.028717,16.308594,-12.414551,-33.73413,0.13599469,-0.8470735,9.769052,-0.6040121,1.0233045,0.6006098,-0.17953491,0.25935364,-0.13935852
-0.013041563,-0.041032977,0.86782676,-1.701294,0.447464,11.887543,14.550781,-15.887451,-33.084106,0.17639065,-0.8250347,9.770291,-1.1938688,0.6994865,2.4331684,-0.013076782,-0.08432007,0.25801086
-0.0007357471,-0.0069446363,0.8917134,1.450058,-0.3134613,8.3198395,15.287781,-17.518616,-32.91931,0.048772324,-0.12798826,9.805694,-1.5525706,0.13605055,1.0969257,0.36206055,-0.00044250488,0.32148743
-0.027894104,0.0027612275,0.9072698,-0.7657013,-0.6771698,10.107285,15.963745,-19.180298,-33.48236,-0.5190881,-0.18043406,9.79124,0.5484092,0.16359039,0.85441875,-0.039276123,0.31036377,0.31115723
-0.015955247,-0.020577336,0.92000014,-1.7132568,-2.6249237,9.911072,14.883423,-16.11023,-34.552002,-0.13007575,-0.49367628,9.793352,-0.62758857,0.08174473,1.2348185,-0.17581177,-0.22756958,0.20199585
-0.060087495,-0.04836457,0.91567075,-0.26081848,-1.2394867,9.343979,18.225098,-13.18512,-35.073853,-0.70495206,-1.3334699,9.689959,-1.3975189,-0.12851298,1.3950853,-0.4356842,0.27450562,-0.13031006
-0.08800114,-0.03499814,0.90332884,-0.5623169,-0.75852966,9.245865,21.514893,-13.934326,-32.41577,-1.2719623,-1.3421633,9.630737,0.21962905,0.15952754,-0.034305573,0.019363403,0.34475708,-0.2700653
-0.08187523,-0.0044189603,0.9054161,-2.8163452,-0.4665985,8.956329,21.302795,-15.116882,-32.04193,-1.4178555,-0.7473575,9.674788,-0.07894647,0.06480968,1.2094889,0.30596924,0.079574585,0.016235352
-0.08171536,-0.013945178,0.90375155,-2.2899323,-1.1174469,7.9417725,22.04895,-11.218262,-30.37262,-1.3335876,-0.9202493,9.671869,-1.5535638,-0.08311999,0.65498257,-0.072525024,-0.07815552,-0.13421631
-0.10156929,-0.026351724,0.8850449,-0.7728882,-1.832901,7.3698883,22.389221,-6.958008,-31.785583,-1.528704,-1.3609015,9.590693,-1.1031964,0.42139554,0.7886982,-0.19255066,0.12130737,-0.39878845
-0.07495674,-0.06648335,0.88769567,-3.5030975,-3.488739,10.097717,20.509338,-1.7456055,-33.668518,-0.7190499,-1.8181986,9.609761,-0.84843844,-0.5761851,0.22415257,-0.21838379,-0.4468689,-0.0342865
-0.101767905,-0.11267836,0.87920016,-1.1006927,-3.5485535,5.716461,18.804932,1.9470215,-35.639954,-0.75682616,-2.8444483,9.354503,-2.2340226,-1.3340418,1.4228325,-0.5175934,-0.01687622,-0.10984802
-0.12701401,-0.11266889,0.9032627,-0.92123413,-3.000595,9.049652,19.9234,0.05645752,-36.29608,-1.37936,-2.977726,9.241261,-1.3997428,-0.7813325,-0.26107597,-0.11723328,0.10205078,0.6098175
-0.14087495,-0.08947279,0.89889497,-2.1320038,-2.0410767,8.161911,27.030945,-1.9073486,-32.156372,-1.7727082,-2.696837,9.260397,0.25422847,-0.86864734,1.2638378,0.17990112,0.24389648,-0.04319763
-0.21028852,-0.0022338417,0.88793266,-3.2183533,-1.0384827,8.673981,32.403564,-7.369995,-24.502563,-3.6443124,-1.7261484,8.939227,1.1643984,-0.87687135,0.7676344,0.500473,1.0361938,0.21696472
-0.28535166,0.16174005,0.89973676,-6.908081,2.5052795,7.996811,33.647156,-14.839172,-19.050598,-5.9488487,1.2428907,7.6965446,-0.054445267,-0.58183634,0.4544525,0.32008362,0.2826233,0.7988739
-0.2789852,0.20893107,0.902455,-7.1114655,1.2394867,5.864807,31.085205,-18.823242,-15.679932,-5.9754786,2.3128586,7.4239297,-1.6419396,-0.25670314,1.1690164,0.3594818,0.11341858,0.49736023
-0.3315903,0.11936621,0.8609051,-7.7862396,-8.882156,8.188232,32.93152,-17.176819,-14.816284,-6.458023,-0.3708758,7.3706703,-0.7416258,1.5652671,-1.1464047,-0.6678009,0.1038208,-1.452179
-0.37419382,-0.08365094,0.71543175,-4.2520447,-6.0849457,5.5082703,33.714294,6.741333,-18.362427,-4.2924113,-5.460388,6.9231324,-3.3862157,2.1026154,-0.51815367,-1.2507019,-0.31730652,-3.1016998
-0.1639051,-0.16173036,0.67878866,3.7519531,-1.804184,11.949753,21.835327,17.36145,-23.262024,0.029759632,-4.39478,8.766722,-3.9880672,-2.0816827,-1.6842508,1.2660828,-1.7022705,-1.7417908
0.0033425845,-0.17638344,0.5484951,3.5365906,-0.44506836,10.449463,9.555054,13.983154,-31.147766,2.8634858,-1.8439142,9.196239,0.02426362,-0.19262254,1.3339043,1.0399933,-0.8694763,-2.1079407
0.012316825,-0.2107021,0.40645358,3.5102692,0.6795654,8.73381,-2.0248413,16.13617,-32.121277,3.7718687,-1.4649462,8.932935,0.062494278,0.3161862,0.7592583,-0.3486328,-0.2806549,-1.4513855
-0.0030950126,-0.17492148,0.3281724,4.216156,-0.9140625,7.697708,-2.5253296,15.663147,-31.895447,3.1647954,-1.1822392,9.206344,1.1936986,0.35221684,0.36294937,-0.1905365,0.49386597,-0.83872986
-0.03733257,-0.11322561,0.25527397,0.830307,-0.9068756,10.478165,-1.5762329,17.262268,-32.592773,1.9438511,-1.269447,9.527871,1.4903566,-0.042559624,-0.13499165,-0.26231384,0.80859375,-0.7859497
-0.01603146,-0.085219115,0.17341153,-0.06700134,0.102890015,9.896713,-2.2872925,17.27295,-30.747986,1.5851862,-0.5983083,9.659172,-0.2687204,-0.49830902,0.91513157,0.22729492,0.26112366,-0.7974396
0.004698002,-0.029791841,0.15528283,0.45942688,-0.3134613,10.597809,-1.7272949,15.419006,-31.22406,0.5912678,0.0002488985,9.78881,0.16114587,-0.13735305,0.6746397,0.2877655,0.5267334,-0.18119812
0.010427519,-0.024078911,0.16262409,0.70588684,0.026321411,10.487747,1.1993408,14.306641,-31.721497,0.4990749,0.12492219,9.793146,0.1901755,-0.093899325,0.3883705,0.07170105,0.05404663,0.09185791
0.0040861643,-0.020358201,0.16253024,0.58384705,-0.17706299,9.865616,0.71258545,14.349365,-31.994629,0.4069208,0.01416309,9.798194,0.12548447,0.09051535,0.40756512,-0.057800293,0.05140686,0.04837036
-0.0034620266,-0.025462203,0.15483247,-0.007171631,-0.07896423,9.800995,0.46691895,15.853882,-30.847168,0.48269513,-0.14438322,9.793699,0.12270042,-0.013936922,0.36486912,-0.08265686,-0.036239624,-0.011306763
-0.0064581153,-0.0021788364,0.15289359,0.06700134,-0.13400269,9.76033,2.3330688,16.122437,-30.567932,0.022864468,-0.13170652,9.805739,0.053600855,-0.018396482,0.43087482,0.006958008,0.24066162,0.0021972656
-0.006464083,-0.0022514807,0.14846957,0.06460571,-0.14356995,9.793823,2.0095825,14.582825,-32.302856,0.024845237,-0.13193013,9.805731,0.04732942,-0.018901125,0.34043884,0.000289917,0.000289917,-1.5258789e-05
-0.0065145288,-0.0022495538,0.13467309,0.04307556,-0.18185425,9.832108,1.1154175,15.817261,-29.977417,0.026510809,-0.13254629,9.805718,0.04375303,-0.021659628,0.32681847,0.00016784668,0.00035095215,-0.0001373291
-0.0065769283,-0.0022750227,0.12829223,0.06939697,-0.17706299,9.82254,2.166748,14.44397,-31.809998,0.027701791,-0.13365063,9.805699,0.03896968,-0.019652054,0.31026077,-0.0001373291,0.00045776367,-1.5258789e-05
-0.006730381,-0.0029952235,0.12435307,0.052642822,-0.1986084,9.84407,2.5497437,15.553284,-30.465698,0.0418734,-0.13828203,9.805586,0.028883085,-0.011801258,0.20444965,-1.5258789e-05,0.00015258789,-0.00019836426
-0.0069410517,-0.0033935239,0.117083564,0.04547119,-0.13877869,9.817749,1.550293,14.830017,-30.570984,0.050159026,-0.14298938,9.80548,0.017546088,-0.011436924,0.1398077,4.5776367e-05,0.00016784668,-0.00044250488
-0.0069889957,-0.0036480117,0.10993161,0.06700134,-0.17945862,9.817749,1.6265869,14.915466,-31.539917,0.056044538,-0.14410774,9.805431,0.014357947,-0.0032270253,0.088727,-7.6293945e-05,0.0005950928,-0.00032043457
-0.0071674935,-0.0038581546,0.10443496,0.07417297,-0.17468262,9.820145,2.9632568,15.950012,-31.233215,0.06057355,-0.1477075,9.80535,0.010640226,-0.006850645,0.06234932,-0.00032043457,0.00033569336,6.1035156e-05
-0.007203372,-0.0040013194,0.102484204,0.06460571,-0.15792847,9.82254,2.4291992,14.822388,-31.36444,0.063584015,-0.14857605,9.805319,0.0031197593,4.900992e-05,0.028241158,-7.6293945e-05,4.5776367e-05,-0.0001373291
-0.0072760275,-0.004042434,0.09469548,0.06939697,-0.13400269,9.810577,1.1077881,15.74707,-30.519104,0.06541273,-0.14956863,9.805291,0.004336469,-0.0021873862,0.017076492,-1.5258789e-05,0.00015258789,-0.00019836426
-0.0073803277,-0.0040394226,0.091866225,0.071777344,-0.14596558,9.8033905,2.0889282,15.87677,-29.400635,0.065590695,-0.15141356,9.805262,0.0010187849,-0.0035894662,0.012656212,-7.6293945e-05,0.00015258789,-0.0001373291
-0.0072644474,-0.004079021,0.08972968,0.06700134,-0.122039795,9.793823,2.0568848,15.45105,-31.071472,0.066892885,-0.14907873,9.805288,0.0027969107,0.0041608512,0.005566597,0.00010681152,4.5776367e-05,-0.00030517578
-0.007361624,-0.0040284465,0.088957,0.062210083,-0.1483612,9.817749,2.1728516,14.512634,-31.41632,0.06585097,-0.15083681,9.805269,-0.00073527545,-0.003102228,0.0076990128,-0.0001373291,0.00033569336,0.0
-0.007408095,-0.003992172,0.084165975,0.06939697,-0.1268158,9.791428,1.2084961,14.445496,-30.93872,0.06578998,-0.15136665,9.805262,0.00074006617,-0.0010924786,0.0059251785,-1.5258789e-05,0.00021362305,-1.5258789e-05
-0.007378788,-0.004035714,0.083012275,0.07417297,-0.1483612,9.7986145,1.9500732,14.863586,-31.262207,0.06686394,-0.15078849,9.8052635,0.0034954026,0.0014444292,0.00027656555,-7.6293945e-05,0.00035095215,0.0
-0.0074174083,-0.004055155,0.083059095,0.06700134,-0.13639832,9.7986145,2.29187,15.397644,-31.391907,0.067173876,-0.15157807,9.805249,0.0017400533,-0.001342088,0.0032243729,-7.6293945e-05,0.000289917,-0.00018310547
-0.0073831175,-0.0040599206,0.08308298,0.07417297,-0.15553284,9.82254,2.4917603,14.466858,-31.741333,0.067319274,-0.15091726,9.805258,0.00087400526,0.0008889288,0.0010271072,0.00010681152,0.00015258789,-0.00019836426
-0.00739219,-0.0040538036,0.08465203,0.055038452,-0.1268158,9.516251,0.13580322,13.8671875,-31.315613,0.066946946,-0.1511902,9.805256,0.0002984777,-0.00026839972,0.00052165985,-7.6293945e-05,0.0002746582,-0.00032043457
-0.007347883,-0.004078774,0.084695786,0.06700134,-0.1531372,9.784256,2.670288,14.915466,-31.809998,0.067501895,-0.15036882,9.805265,0.001189366,0.0019821078,-0.003323555,-7.6293945e-05,3.0517578e-05,-0.0002593994
-0.00740625,-0.004067854,0.08468368,0.08135986,-0.13877869,9.827316,2.3284912,14.379883,-31.75354,0.06719335,-0.1514904,9.805249,0.00050631166,-0.0023214966,0.0087890625,-1.5258789e-05,0.0002746582,-6.1035156e-05
-0.007429773,-0.0039713914,0.08448798,0.071777344,-0.1651001,9.9015045,0.87890625,14.584351,-32.859802,0.06529903,-0.1517771,9.805259,-0.0012290627,0.00022003055,0.013356209,-0.0002593994,0.00064086914,-0.00019836426
-0.007327298,-0.0040050973,0.08453941,0.052642822,-0.1268158,9.870392,1.8951416,15.592957,-31.942749,0.06611985,-0.14983384,9.805283,0.0013691857,0.003362015,-0.023154259,0.00022888184,-3.0517578e-05,0.0
-0.00732234,-0.0039769853,0.08448027,0.07896423,-0.13639832,9.568893,2.1148682,15.248108,-32.774353,0.065587595,-0.14968646,9.805288,-9.343028e-06,-0.0001347214,0.0009880066,0.00010681152,0.0002746582,-0.0001373291
-0.0073162266,-0.0039499532,0.084423155,0.057434082,-0.16270447,9.623932,1.3748169,14.683533,-31.877136,0.06507803,-0.14951849,9.805294,1.7151237e-05,0.0011195093,-0.001578331,-0.00019836426,0.0002746582,-0.00019836426
-0.007342751,-0.003991697,0.084514424,0.0765686,-0.15074158,9.511475,1.9699097,15.377808,-31.533813,0.06583612,-0.15011196,9.805281,0.0016513616,-0.000903666,0.0010242462,-7.6293945e-05,3.0517578e-05,0.00018310547
-0.0074226386,-0.0040243403,0.08459645,0.06939697,-0.13400269,9.769897,2.2659302,14.889526,-31.947327,0.06632907,-0.15173261,9.805252,0.002324611,-0.00305821,0.007060051,-7.6293945e-05,0.00033569336,-6.1035156e-05
-0.008145369,-0.0016398962,0.08645185,0.047851562,-0.1603241,9.683746,2.1514893,14.382935,-33.407593,0.018230904,-0.16193451,9.805296,0.034417897,0.013520226,-0.009449005,-0.008804321,0.034057617,0.0018920898
-0.007846126,-0.0030908212,0.08496305,0.047851562,-0.110076904,9.690933,3.211975,16.18805,-31.57196,0.047325015,-0.15847707,9.805256,-0.011186201,-0.0047357827,0.0039253235,0.0030059814,-0.018005371,-0.00038146973
-0.007883099,-0.0029964168,0.08753523,0.04547119,-0.17228699,9.8033905,1.7944336,15.074158,-31.741333,0.04500779,-0.15915896,9.805254,-0.007189844,-0.0014176071,-0.00041103363,1.5258789e-05,-0.00065612793,-7.6293945e-05
-0.007961858,-0.002800013,0.08437417,0.0047912598,-0.19381714,10.447067,2.3712158,15.406799,-31.924438,0.041543975,-0.16022952,9.805253,-0.007319577,-0.0029591173,0.003394127,0.00019836426,-0.00010681152,6.1035156e-05
-0.007999114,-0.0027563553,0.084116586,0.035888672,-0.15792847,9.839294,1.8981934,15.589905,-31.565857,0.040670715,-0.16087478,9.805245,-0.0024090596,-0.0017553568,0.010399818,7.6293945e-05,-0.00018310547,-1.5258789e-05
-0.008064117,-0.002810714,0.08194208,0.04067993,-0.13400269,9.8033905,1.9424438,14.86969,-32.167053,0.04197969,-0.16214353,9.80522,-7.308647e-05,-0.0011901408,-0.027991295,-0.00022888184,-0.0006713867,0.00024414062
-0.008005867,-0.0026771303,0.08038374,0.055038452,-0.15792847,9.702896,2.6870728,15.2786255,-31.736755,0.0397136,-0.16072848,9.805253,-0.003780283,0.0021463037,-0.0049533844,0.00019836426,0.00019836426,6.1035156e-05