timestamp,rotationVector_x,rotationVector_y,rotationVector_z,accelerometer_x,accelerometer_y,accelerometer_z,magneticField_x,magneticField_y,magneticField_z,gravity_x,gravity_y,gravity_z,linearAcceleration_x,linearAcceleration_y,linearAcceleration_z,gyroscope_x,gyroscope_y,gyroscope_z
2019-07-01T20:08:14.445Z,0.010958756,-0.012250605,0.99383533,0.23736572,-0.21679688,9.802444,2.5497437,-15.629578,-37.597656,0.23995632,-0.21522766,9.801352,-0.0009468496,0.00038455427,0.0020551682,-4.5776367e-05,-0.00022888184,0.00032043457
2019-07-01T20:08:14.650Z,0.010938568,-0.012277674,0.99384105,0.2416687,-0.2163086,9.8029175,2.2247314,-15.576172,-38.175964,0.23960945,-0.21581143,9.801346,-0.0017873645,-0.0011855662,-0.000207901,0.00019836426,-6.1035156e-05,0.00018310547
2019-07-01T20:08:14.847Z,0.010963377,-0.01227985,0.9938346,0.23808289,-0.21655273,9.804596,2.168274,-16.741943,-38.789368,0.2401098,-0.215787,9.801335,0.0010435432,-0.00023941696,0.00081539154,-4.5776367e-05,-6.1035156e-05,0.00044250488
2019-07-01T20:08:15.054Z,0.010938978,-0.012291821,0.99384123,0.23976135,-0.21487427,9.804352,3.2531738,-15.715027,-39.605713,0.23964722,-0.21608694,9.801339,-0.001126647,-0.00042018294,0.0006990433,-4.5776367e-05,0.0,-6.1035156e-05
2019-07-01T20:08:15.258Z,0.010933254,-0.012281382,0.99384254,0.237854,-0.21440125,9.802673,2.9022217,-16.395569,-39.352417,0.23951104,-0.21589832,9.801348,-0.0007533878,0.0005739778,-0.0006380081,1.5258789e-05,-0.00022888184,0.00038146973
2019-07-01T20:08:15.461Z,0.010927874,-0.012241352,0.99384326,0.23904419,-0.21368408,9.803635,2.6794434,-16.201782,-38.16986,0.23931986,-0.21513014,9.801369,-0.0005699247,0.0017352402,0.0006866455,-4.5776367e-05,-6.1035156e-05,0.0002593994
2019-07-01T20:08:15.662Z,0.010919359,-0.012226246,0.9938452,0.23640442,-0.21774292,9.800278,3.251648,-15.866089,-38.72986,0.23911813,-0.21485774,9.801379,-0.0008445531,0.0005045235,0.0003080368,-0.00010681152,0.0,0.0001373291
2019-07-01T20:08:15.862Z,0.010868827,-0.01227547,0.9938593,0.23976135,-0.21583557,9.804108,2.2720337,-16.30249,-38.172913,0.23821118,-0.21595645,9.801378,-0.0018430799,-0.0017535537,-0.0013885498,-0.00010681152,-0.00018310547,0.0002593994
2019-07-01T20:08:16.065Z,0.010911431,-0.012286224,0.9938483,0.23664856,-0.2141571,9.801239,3.981018,-15.8203125,-38.523865,0.23908503,-0.21605188,9.801354,0.00063923,0.00024981797,4.2915344e-05,-4.5776367e-05,-6.1035156e-05,6.1035156e-05
2019-07-01T20:08:16.271Z,0.01086919,-0.012263414,0.993859,0.24047852,-0.21606445,9.80603,2.8945923,-15.100098,-37.50305,0.23819327,-0.21571976,9.801384,-0.0018118024,0.000866279,-0.0010890961,7.6293945e-05,6.1035156e-05,0.0
2019-07-01T20:08:16.468Z,0.0109062195,-0.01225555,0.99384916,0.24047852,-0.21343994,9.802673,2.6809692,-16.127014,-38.381958,0.23891683,-0.21546617,9.801372,0.0015081912,-7.70092e-05,0.0024642944,-0.00010681152,-6.1035156e-05,0.0001373291
2019-07-01T20:08:16.668Z,0.010942616,-0.012220352,0.9938391,0.24095154,-0.21559143,9.8029175,2.4719238,-15.261841,-39.02893,0.23957054,-0.21467972,9.801373,0.0015689284,0.001534313,0.00020599365,0.0001373291,-6.1035156e-05,0.0001373291
2019-07-01T20:08:16.890Z,0.010978565,-0.012244032,0.99383,0.23641968,-0.21463013,9.803635,2.8045654,-15.248108,-37.831116,0.24033839,-0.21504559,9.801346,0.0008163005,-0.0005091727,-0.0012903214,-4.5776367e-05,-6.1035156e-05,0.0002593994
2019-07-01T20:08:17.080Z,0.010893615,-0.012227566,0.993852,0.24047852,-0.21678162,9.805313,4.2770386,-14.788818,-37.420654,0.23860648,-0.21495298,9.80139,-0.003196612,0.00036653876,0.00072574615,1.5258789e-05,6.1035156e-05,0.0002593994
2019-07-01T20:08:17.279Z,0.010938827,-0.01226712,0.9938408,0.2400055,-0.21583557,9.802429,3.2974243,-15.071106,-37.513733,0.2395926,-0.2156044,9.801352,0.0020147264,-0.0013661236,0.0009613037,0.0001373291,0.0,6.1035156e-05
2019-07-01T20:08:17.481Z,0.010904746,-0.012254723,0.9938495,0.23880005,-0.21606445,9.805313,3.3493042,-15.802002,-36.984253,0.23888566,-0.21545398,9.801373,-0.00014659762,0.00039060414,0.00047588348,1.5258789e-05,-0.00012207031,0.00012207031
2019-07-01T20:08:17.690Z,0.010908331,-0.012267615,0.9938488,0.24072266,-0.2141571,9.803635,2.5375366,-15.771484,-38.4552,0.23898421,-0.21569636,9.801365,-0.00025111437,-0.00030766428,0.00048542023,-4.5776367e-05,0.0,7.6293945e-05
2019-07-01T20:08:17.896Z,0.010945708,-0.012248882,0.9938387,0.2368927,-0.21583557,9.804108,3.6239624,-16.26587,-40.56244,0.23969196,-0.21522921,9.801357,0.0011923015,0.0008883774,-9.536743e-07,7.6293945e-05,0.0,0.00019836426
2019-07-01T20:08:18.093Z,0.010865649,-0.012250933,0.9938597,0.23664856,-0.2141571,9.801239,3.8711548,-16.255188,-39.665222,0.23809645,-0.21548523,9.801391,-0.0029444546,-0.00053815544,-0.00031852722,-4.5776367e-05,0.0,0.0
2019-07-01T20:08:18.405Z,0.010864858,-0.012223178,0.99385947,0.23857117,-0.21583557,9.801483,2.217102,-15.72113,-38.354492,0.23802271,-0.21494469,9.801405,-0.00020483136,0.0010643452,-0.00212574,1.5258789e-05,0.00018310547,0.00012207031
2019-07-01T20:08:18.610Z,0.0108441645,-0.012228621,0.99386495,0.23904419,-0.21368408,9.8033905,3.8772583,-16.41388,-38.186646,0.23762056,-0.21510683,9.801411,0.00019522011,2.3022294e-05,0.0001745224,3.0517578e-05,0.0001373291,-4.5776367e-05
2019-07-01T20:08:18.815Z,0.010879208,-0.012222902,0.9938557,0.23951721,-0.21368408,9.804352,2.7023315,-15.461731,-39.305115,0.2383089,-0.21490064,9.801399,0.0014182925,5.7190657e-05,-0.000374794,-9.1552734e-05,-0.00010681152,-4.5776367e-05
2019-07-01T20:08:19.020Z,0.0108919665,-0.012200833,0.993852,0.23808289,-0.21559143,9.803879,3.3493042,-15.344238,-39.53247,0.23851773,-0.21443476,9.801404,0.00048574805,0.0015044212,0.0005578995,-9.1552734e-05,0.0001373291,-0.00018310547
2019-07-01T20:08:19.109Z,0.01088027,-0.012227533,0.9938555,0.23832703,-0.21440125,9.8029175,3.9169312,-15.309143,-39.09607,0.23833977,-0.21498832,9.801395,-6.403029e-05,-0.0012740195,0.0008468628,-3.0517578e-05,-4.5776367e-05,-0.00018310547
2019-07-01T20:08:19.308Z,0.010878892,-0.012218337,0.9938557,0.23713684,-0.21440125,9.801956,3.4255981,-15.715027,-38.179016,0.23829304,-0.21481223,9.801401,-0.0002642274,0.00070388615,0.0002527237,-3.0517578e-05,7.6293945e-05,7.6293945e-05
2019-07-01T20:08:19.523Z,0.010864008,-0.012207371,0.9938594,0.2368927,-0.21606445,9.802673,2.1270752,-15.94696,-38.095093,0.23797274,-0.21463792,9.801413,-0.00039352477,0.0005084425,-0.0019083023,3.0517578e-05,1.5258789e-05,1.5258789e-05
2019-07-01T20:08:19.720Z,0.010836377,-0.012209401,0.9938667,0.23857117,-0.21104431,9.8029175,3.0166626,-15.965271,-37.609863,0.23742488,-0.214752,9.801424,-0.0008048415,-0.00034061074,-0.00015640259,-9.1552734e-05,0.0001373291,7.6293945e-05
2019-07-01T20:08:19.921Z,0.010846138,-0.012169286,0.99386346,0.23880005,-0.21583557,9.801239,2.307129,-15.646362,-37.590027,0.23753619,-0.21394137,9.801438,0.0007580817,0.0019652396,0.00037193298,-9.1552734e-05,7.6293945e-05,-0.00012207031
2019-07-01T20:08:20.124Z,0.010851168,-0.012199772,0.9938626,0.2368927,-0.21534729,9.8033905,3.1738281,-15.950012,-38.290405,0.23770033,-0.21452391,9.801422,0.00060223043,-0.00080129504,-0.00071811676,-9.1552734e-05,1.5258789e-05,-0.00018310547
2019-07-01T20:08:20.324Z,0.010845805,-0.012226518,0.9938645,0.24072266,-0.21583557,9.805069,2.7008057,-15.765381,-37.931824,0.23764896,-0.2150613,9.801412,-6.389618e-05,-0.0009807199,1.04904175e-05,9.1552734e-05,1.5258789e-05,-0.00036621094
2019-07-01T20:08:20.525Z,0.010889907,-0.012233436,0.9938531,0.23857117,-0.21559143,9.80101,2.84729,-16.044617,-38.145447,0.23854469,-0.21507777,9.80139,0.0018791109,-0.0007084459,0.0023927689,0.00015258789,-4.5776367e-05,1.5258789e-05
2019-07-01T20:08:20.728Z,0.010896868,-0.012233176,0.99385124,0.23808289,-0.21583557,9.804596,3.6773682,-15.405273,-38.275146,0.23868322,-0.21505392,9.801386,7.742643e-05,-0.000502035,-0.0012760162,9.1552734e-05,1.5258789e-05,1.5258789e-05
2019-07-01T20:08:20.935Z,0.010876691,-0.012236627,0.9938566,0.23617554,-0.2141571,9.803879,1.9760132,-15.663147,-38.485718,0.23828726,-0.21517578,9.8013935,-0.00047956407,-0.00037384033,0.00058078766,3.0517578e-05,0.00019836426,0.00012207031
2019-07-01T20:08:21.182Z,0.010849894,-0.012212774,0.99386317,0.24023438,-0.21607971,9.806503,2.2781372,-16.152954,-38.36975,0.23770198,-0.21478154,9.801415,-0.0011037439,0.00089877844,0.00038814545,-3.0517578e-05,-4.5776367e-05,-4.5776367e-05
2019-07-01T20:08:21.337Z,0.01087931,-0.012231499,0.99385583,0.23713684,-0.21559143,9.802673,1.3031006,-15.074158,-35.39276,0.23832887,-0.21506844,9.801394,0.0013628006,-0.0009483844,0.0015268326,9.1552734e-05,1.5258789e-05,1.5258789e-05
2019-07-01T20:08:21.543Z,0.010870706,-0.012220181,0.99385786,0.23760986,-0.2115326,9.802444,1.6220093,-16.4917,-38.035583,0.23813334,-0.21487035,9.801404,-0.00058586895,5.237758e-05,-0.00058078766,3.0517578e-05,1.5258789e-05,7.6293945e-05
2019-07-01T20:08:21.748Z,0.010847621,-0.012189974,0.9938634,0.23760986,-0.21559143,9.804108,2.7160645,-15.473938,-37.571716,0.23760898,-0.2143419,9.801428,-0.0010114759,0.001665175,-0.0008611679,-9.1552734e-05,-4.5776367e-05,-4.5776367e-05
2019-07-01T20:08:21.946Z,0.010851487,-0.012208762,0.9938627,0.23808289,-0.21559143,9.8029175,2.7557373,-16.343689,-37.825012,0.23772544,-0.21469882,9.801417,7.264316e-05,-0.0005979687,0.00038433075,0.00015258789,1.5258789e-05,7.6293945e-05
2019-07-01T20:08:22.157Z,0.010852174,-0.012209568,0.99386257,0.23808289,-0.21679688,9.801727,2.1392822,-15.652466,-38.264465,0.23774086,-0.21471274,9.801416,0.00053848326,-0.0006067455,-0.00070858,-3.0517578e-05,0.0001373291,-0.00018310547
2019-07-01T20:08:22.354Z,0.010848679,-0.012254131,0.9938642,0.23880005,-0.21463013,9.804352,4.1397095,-15.579224,-40.293884,0.23776402,-0.21559349,9.801397,0.0007569939,-0.0016447753,-0.0011081696,3.0517578e-05,7.6293945e-05,-0.00018310547
2019-07-01T20:08:22.564Z,0.010862612,-0.012228368,0.9938601,0.23617554,-0.21559143,9.798843,3.414917,-15.856934,-38.658142,0.23798867,-0.21505222,9.801403,0.0002913326,0.00093761086,0.0010118484,3.0517578e-05,-4.5776367e-05,-0.00018310547
2019-07-01T20:08:22.758Z,0.010831739,-0.012231355,0.99386823,0.24047852,-0.21751404,9.804825,2.2888184,-15.783691,-39.201355,0.23737797,-0.2151937,9.8014145,-0.0014684647,-0.00037789345,-0.002040863,3.0517578e-05,1.5258789e-05,-0.00012207031
2019-07-01T20:08:22.963Z,0.010896444,-0.01227646,0.9938521,0.23760986,-0.21655273,9.804352,3.993225,-15.52887,-38.54065,0.23876515,-0.21590139,9.801366,0.0026309937,-0.0022903234,0.001666069,0.00015258789,-0.00010681152,-0.00024414062
2019-07-01T20:08:23.168Z,0.010863063,-0.012284255,0.9938609,0.23664856,-0.21798706,9.804352,3.1280518,-15.226746,-37.91504,0.23811431,-0.21614374,9.801376,-0.0012629926,-0.00061558187,-0.00016212463,9.1552734e-05,7.6293945e-05,-0.00024414062
2019-07-01T20:08:23.358Z,0.010828915,-0.012291242,0.99386996,0.23832703,-0.21679688,9.8022,2.531433,-15.995789,-37.820435,0.23744643,-0.21637225,9.801387,-0.0013125986,-0.00061550736,5.340576e-05,-9.1552734e-05,-4.5776367e-05,-0.00024414062
2019-07-01T20:08:23.561Z,0.010853648,-0.012290727,0.99386346,0.23904419,-0.21391296,9.800522,2.9464722,-15.67688,-37.69684,0.23793964,-0.21629563,9.801376,0.0005852878,2.9057264e-05,0.00035381317,0.00015258789,-4.5776367e-05,-4.5776367e-05
2019-07-01T20:08:23.808Z,0.010885657,-0.012268848,0.99385476,0.23832703,-0.21655273,9.802444,3.2608032,-15.722656,-38.549805,0.23853369,-0.21578163,9.801374,0.0011997819,0.0009325743,-0.0015249252,9.1552734e-05,1.5258789e-05,-0.00024414062
2019-07-01T20:08:23.967Z,0.010864736,-0.012256787,0.99386,0.23951721,-0.21440125,9.803635,3.9871216,-15.675354,-38.64441,0.23809043,-0.21560216,9.801389,0.0009417683,-0.00093972683,-0.00015544891,9.1552734e-05,7.6293945e-05,-0.00024414062
2019-07-01T20:08:24.186Z,0.010897559,-0.012233618,0.99385107,0.24023438,-0.21487427,9.803162,2.3040771,-15.646362,-37.965393,0.23869793,-0.21506067,9.801385,0.0012831837,0.000925526,0.001004219,-9.1552734e-05,1.5258789e-05,-0.00030517578
2019-07-01T20:08:24.382Z,0.010909471,-0.01223739,0.993848,0.2400055,-0.21391296,9.802444,2.470398,-15.637207,-37.36725,0.23894386,-0.21510233,9.801379,0.00054450333,9.909272e-06,0.00035476685,3.0517578e-05,7.6293945e-05,-0.00016784668
2019-07-01T20:08:24.644Z,0.010920095,-0.012214895,0.99384487,0.24072266,-0.21511841,9.800766,2.6992798,-15.763855,-38.15918,0.23910914,-0.21463382,9.801385,0.00085298717,0.0009886771,0.0011892319,-0.00015258789,-9.1552734e-05,-0.0004272461
2019-07-01T20:08:24.838Z,0.010967524,-0.012236043,0.9938328,0.23951721,-0.21559143,9.8033905,2.468872,-15.563965,-37.654114,0.24010107,-0.21491925,9.801355,0.0013220459,-0.00042831898,-0.0022325516,9.1552734e-05,1.5258789e-05,-0.00012207031
2019-07-01T20:08:25.036Z,0.010943144,-0.012245095,0.9938393,0.23904419,-0.2163086,9.8022,3.3950806,-14.552307,-38.165283,0.23963283,-0.21516211,9.801361,-0.0008623302,-0.0004027784,0.0010652542,-3.0517578e-05,0.0001373291,-0.00024414062
2019-07-01T20:08:25.240Z,0.010914774,-0.012266163,0.99384713,0.23928833,-0.21440125,9.802444,2.6397705,-15.179443,-38.941956,0.23910995,-0.2156506,9.801363,-0.00056144595,-0.0008816868,-0.0005645752,-3.0517578e-05,7.6293945e-05,-0.00024414062
2019-07-01T20:08:25.445Z,0.010921337,-0.012254936,0.9938452,0.23880005,-0.21534729,9.801956,2.39563,-15.420532,-37.924194,0.23921762,-0.21541336,9.801365,0.0005121082,0.0003234297,0.00072956085,9.1552734e-05,-0.00010681152,-0.00024414062
2019-07-01T20:08:25.647Z,0.010929209,-0.012219709,0.99384254,0.23857117,-0.21487427,9.804825,3.1143188,-15.592957,-37.53662,0.23930132,-0.21470337,9.801379,-0.00028271973,0.0008133799,-0.0004711151,3.0517578e-05,7.6293945e-05,-0.00036621094
2019-07-01T20:08:25.845Z,0.01089496,-0.012218342,0.9938515,0.23880005,-0.21583557,9.8033905,3.2058716,-15.371704,-37.268066,0.23861413,-0.21476904,9.801394,-0.0012929887,-6.510317e-05,0.0015993118,9.1552734e-05,7.6293945e-05,0.00019836426
2019-07-01T20:08:26.054Z,0.010894372,-0.012233535,0.9938519,0.23857117,-0.21368408,9.805786,1.9561768,-16.252136,-38.075256,0.2386341,-0.21506765,9.801387,0.0006002039,-0.00071921945,0.0007457733,0.00015258789,7.6293945e-05,-4.5776367e-05
2019-07-01T20:08:26.257Z,0.010898764,-0.0121996375,0.9938502,0.23713684,-0.21440125,9.804352,2.6885986,-15.982056,-38.12561,0.23865108,-0.21439305,9.801402,9.286404e-05,0.0002863258,0.00017356873,-3.0517578e-05,-0.00010681152,-0.00012207031
2019-07-01T20:08:26.460Z,0.010903648,-0.012221083,0.9938493,0.24047852,-0.21702576,9.801712,3.3309937,-15.936279,-38.59558,0.23879346,-0.2147992,9.80139,-0.00029158592,-0.00050100684,0.0010795593,-3.0517578e-05,1.5258789e-05,-0.00036621094
2019-07-01T20:08:26.665Z,0.010906777,-0.012228572,0.99384856,0.2368927,-0.2163086,9.801727,3.3477783,-15.4953,-38.883972,0.23887162,-0.21493717,9.801384,0.00037150085,-0.00038470328,-0.001999855,3.0517578e-05,7.6293945e-05,-0.00024414062
2019-07-01T20:08:26.865Z,0.010866654,-0.012284231,0.99386,0.23904419,-0.21655273,9.804352,3.1082153,-15.740967,-37.41455,0.23818602,-0.2161336,9.801374,-0.0010938495,-0.0020570755,-5.1498413e-05,-9.1552734e-05,7.6293945e-05,-0.00012207031
2019-07-01T20:08:27.061Z,0.010859321,-0.012287012,0.993862,0.23832703,-0.21870422,9.803635,2.7786255,-15.83252,-37.72278,0.23804528,-0.21620773,9.801376,0.00023566186,0.00018514693,0.00011634827,-9.1552734e-05,0.0001373291,-0.00030517578
2019-07-01T20:08:27.268Z,0.010853333,-0.012337553,0.99386436,0.23928833,-0.2172699,9.804596,2.7740479,-15.827942,-38.40027,0.23803103,-0.21721205,9.801354,0.0002464503,-0.001691103,0.00024032593,-3.0517578e-05,1.5258789e-05,-4.5776367e-05
2019-07-01T20:08:27.468Z,0.010868491,-0.012333185,0.9938603,0.23808289,-0.21702576,9.805069,2.2888184,-15.936279,-38.175964,0.23832487,-0.21708581,9.80135,0.0009021312,0.00034479797,0.00095272064,-3.0517578e-05,7.6293945e-05,-6.1035156e-05
2019-07-01T20:08:27.674Z,0.010867355,-0.012320503,0.9938604,0.23713684,-0.21391296,9.803635,3.111267,-15.362549,-39.076233,0.23827574,-0.21684092,9.801357,-2.1591783e-05,0.0001103729,0.000957489,9.1552734e-05,1.5258789e-05,-0.00030517578
2019-07-01T20:08:27.872Z,0.010852887,-0.0122698285,0.99386334,0.23976135,-0.21487427,9.801712,3.2196045,-15.002441,-37.721252,0.23788086,-0.21588907,9.801388,-0.00056780875,0.0020239204,-0.0016012192,-9.1552734e-05,1.5258789e-05,-0.00030517578
2019-07-01T20:08:28.078Z,0.010884509,-0.012258032,0.9938549,0.24095154,-0.21702576,9.802444,2.0217896,-16.53595,-38.363647,0.23848817,-0.21557322,9.801379,0.0012312233,0.000981003,-0.0009031296,-3.0517578e-05,0.0001373291,-0.00018310547
2019-07-01T20:08:28.278Z,0.010916836,-0.012292318,0.993847,0.23976135,-0.21128845,9.802444,2.62146,-15.69519,-38.365173,0.23920576,-0.21615642,9.801349,0.0019465238,-0.0010742694,3.528595e-05,-3.0517578e-05,-0.00010681152,-0.00018310547
2019-07-01T20:08:28.481Z,0.010940166,-0.012221953,0.99383974,0.24095154,-0.21368408,9.804596,3.09906,-15.960693,-37.384033,0.23952496,-0.21471766,9.8013735,0.00019922853,0.0029895157,-0.00045013428,-9.1552734e-05,7.6293945e-05,-0.00018310547
2019-07-01T20:08:28.682Z,0.010915518,-0.012212073,0.993846,0.24072266,-0.21678162,9.80603,3.2714844,-15.428162,-38.79242,0.23901178,-0.214591,9.801388,-0.0016947091,4.5597553e-06,7.6293945e-06,-0.00015258789,1.5258789e-05,0.00019836426
2019-07-01T20:08:28.893Z,0.010928996,-0.012247729,0.9938431,0.23832703,-0.21749878,9.804596,3.5140991,-15.490723,-38.21106,0.23935561,-0.21525177,9.801365,0.00080804527,-0.0007490963,0.0017690659,-3.0517578e-05,0.0001373291,0.0001373291
2019-07-01T20:08:29.099Z,0.010902363,-0.012279174,0.9938506,0.23832703,-0.2163086,9.801956,3.2089233,-15.222168,-37.916565,0.23888908,-0.21593846,9.801361,-0.00039324164,-0.0012633353,0.00037288666,-9.1552734e-05,-0.00015258789,1.5258789e-05
2019-07-01T20:08:29.340Z,0.010908709,-0.012296611,0.9938492,0.23808289,-0.21798706,9.801483,2.3620605,-16.000366,-38.645935,0.23905233,-0.21626231,9.801351,-0.00030358136,-0.00024402142,-0.0019712448,9.1552734e-05,0.0001373291,7.6293945e-05
2019-07-01T20:08:29.512Z,0.010870081,-0.012314821,0.9938596,0.23976135,-0.2163086,9.801956,2.9647827,-15.234375,-38.287354,0.23831832,-0.21672244,9.801357,-0.0009820014,-0.001466766,-0.0018014908,3.0517578e-05,-4.5776367e-05,-0.00010681152
2019-07-01T20:08:29.723Z,0.010899494,-0.012320897,0.993852,0.23808289,-0.2182312,9.803635,2.7038574,-15.766907,-37.631226,0.23891889,-0.216762,9.801343,0.000802055,1.7732382e-06,0.00087833405,3.0517578e-05,-0.00010681152,-0.00012207031
2019-07-01T20:08:29.905Z,0.010891287,-0.01233423,0.99385434,0.23641968,-0.21702576,9.801483,1.612854,-14.964294,-37.49695,0.23878267,-0.21704483,9.80134,-0.0004837811,-0.0006725341,-0.0010108948,-9.1552734e-05,0.0001373291,-0.00012207031
2019-07-01T20:08:30.111Z,0.010850152,-0.012337942,0.9938652,0.24023438,-0.21702576,9.804352,2.6062012,-16.062927,-38.21411,0.23796828,-0.21722822,9.801356,-0.0015757978,-1.6838312e-05,-3.1471252e-05,-9.1552734e-05,-0.00010681152,1.5258789e-05
2019-07-01T20:08:30.313Z,0.010884679,-0.012352379,0.9938564,0.23880005,-0.21487427,9.8029175,2.3101807,-15.423584,-38.298035,0.23868847,-0.21741748,9.801333,0.0015087575,0.00018142164,0.0007762909,-0.00015258789,-4.5776367e-05,-0.00012207031
2019-07-01T20:08:30.510Z,0.010915753,-0.012310428,0.9938476,0.23976135,-0.21487427,9.803879,1.3061523,-16.444397,-37.408447,0.23922198,-0.21651345,9.801341,0.0002501309,0.002153039,0.00068950653,3.0517578e-05,-4.5776367e-05,1.5258789e-05
2019-07-01T20:08:30.710Z,0.010906362,-0.012277998,0.9938495,0.24095154,-0.2172699,9.8022,2.5146484,-16.207886,-38.845825,0.23896654,-0.21590468,9.80136,0.00026758015,0.0010793954,0.0007677078,9.1552734e-05,0.00019836426,-0.00018310547
2019-07-01T20:08:30.923Z,0.010929303,-0.012294561,0.9938438,0.23880005,-0.21559143,9.803635,3.237915,-16.235352,-38.427734,0.23945963,-0.21616665,9.801343,0.0012310445,-0.0010744035,-0.0018854141,3.0517578e-05,-4.5776367e-05,0.00019836426
2019-07-01T20:08:31.118Z,0.010917075,-0.012289021,0.9938469,0.23953247,-0.21774292,9.804108,3.2821655,-15.209961,-38.598633,0.23920366,-0.21609132,9.801351,-0.0004375428,4.2274594e-05,0.00017642975,3.0517578e-05,7.6293945e-05,7.6293945e-05
2019-07-01T20:08:31.324Z,0.01091389,-0.012304776,0.99384797,0.24095154,-0.2182312,9.805069,3.7857056,-14.813232,-38.46283,0.2391729,-0.21640797,9.801344,0.00029672682,-0.0005609244,0.002354622,3.0517578e-05,7.6293945e-05,-0.00012207031
2019-07-01T20:08:31.527Z,0.010932795,-0.012310588,0.99384314,0.23832703,-0.21391296,9.80101,2.1392822,-15.805054,-37.615967,0.2395629,-0.2164706,9.801334,0.0008468181,-0.0004930049,0.00044727325,-3.0517578e-05,-0.00010681152,-4.5776367e-05
2019-07-01T20:08:31.730Z,0.010940205,-0.012298295,0.993841,0.24119568,-0.21678162,9.8022,1.6647339,-15.692139,-37.19635,0.2396853,-0.21621023,9.801336,-0.00021700561,0.00066292286,-0.0016098022,3.0517578e-05,-4.5776367e-05,1.5258789e-05
2019-07-01T20:08:31.936Z,0.010960107,-0.012300776,0.9938358,0.2400055,-0.21296692,9.802673,2.4749756,-15.490723,-37.564087,0.24008821,-0.21620499,9.801327,0.0008330941,0.00016777217,-0.0015506744,-0.00015258789,-0.00010681152,0.00019836426
2019-07-01T20:08:32.136Z,0.010961253,-0.012247262,0.9938346,0.24191284,-0.21606445,9.803162,1.9073486,-15.45105,-37.98523,0.23999923,-0.21515554,9.8013525,-0.000272125,0.0027076006,0.00039577484,0.00021362305,0.0001373291,-4.5776367e-05
2019-07-01T20:08:32.341Z,0.010990513,-0.012255494,0.9938271,0.23736572,-0.21583557,9.801956,2.2003174,-16.009521,-38.79242,0.24060111,-0.2152374,9.801335,0.0012656152,-0.0010299385,0.0009088516,9.1552734e-05,-0.00010681152,-0.00018310547
2019-07-01T20:08:32.543Z,0.010950061,-0.012270247,0.99383795,0.23928833,-0.2172699,9.806503,2.6916504,-15.908813,-38.11035,0.2398236,-0.21563518,9.801345,-0.001999095,-0.0006468892,-0.0013122559,-9.1552734e-05,-4.5776367e-05,0.0001373291
2019-07-01T20:08:32.741Z,0.010931533,-0.012296095,0.9938432,0.2400055,-0.21751404,9.8022,1.6357422,-15.9713745,-39.138794,0.23950738,-0.2161906,9.801341,-0.00051923096,-0.0017458647,0.0021514893,-3.0517578e-05,1.5258789e-05,-0.00018310547
2019-07-01T20:08:32.943Z,0.010925939,-0.012302629,0.9938448,0.23928833,-0.21511841,9.8022,2.2994995,-15.794373,-37.768555,0.23940924,-0.21633346,9.80134,-0.00016717613,0.00031082332,-0.00078964233,-9.1552734e-05,-0.00010681152,1.5258789e-05
2019-07-01T20:08:33.157Z,0.0109409215,-0.012305752,0.99384093,0.24143982,-0.2163086,9.802673,2.708435,-15.620422,-37.75177,0.2397152,-0.2163541,9.801332,8.285046e-06,0.00055269897,-0.0006799698,-9.1552734e-05,1.5258789e-05,-0.00012207031
2019-07-01T20:08:33.352Z,0.01095116,-0.012315927,0.9938384,0.23832703,-0.21583557,9.801239,3.0960083,-15.957642,-37.835693,0.23994108,-0.21652539,9.801323,0.0007430911,-0.00046561658,2.193451e-05,3.0517578e-05,7.6293945e-05,0.0
2019-07-01T20:08:33.557Z,0.01092652,-0.012290769,0.99384445,0.23640442,-0.21583557,9.8033905,3.590393,-15.707397,-37.805176,0.23939607,-0.2161,9.801345,-0.0010855645,0.0009965152,-0.0017442703,-9.1552734e-05,-4.5776367e-05,-0.00024414062
2019-07-01T20:08:33.761Z,0.010870546,-0.012291209,0.99385905,0.23736572,-0.21679688,9.801239,2.2964478,-15.791321,-38.069153,0.23827837,-0.21625954,9.80137,-0.0021414459,-0.00048704445,0.0018672943,9.1552734e-05,-4.5776367e-05,-4.5776367e-05
2019-07-01T20:08:33.960Z,0.010872321,-0.01227442,0.99385834,0.23713684,-0.21774292,9.803162,2.4597168,-15.707397,-38.05847,0.23827882,-0.21592651,9.801377,-0.0004454106,0.0005826354,-0.001458168,3.0517578e-05,-4.5776367e-05,7.6293945e-05
2019-07-01T20:08:34.164Z,0.010852468,-0.012308495,0.99386406,0.2400055,-0.21774292,9.799576,1.1657715,-15.940857,-37.678528,0.23795313,-0.21664621,9.801369,-0.0006041676,-0.0015544593,-0.00033283234,-9.1552734e-05,-0.00010681152,-0.00030517578
2019-07-01T20:08:34.369Z,0.010899238,-0.012326764,0.9938522,0.23760986,-0.21655273,9.804352,3.5079956,-15.637207,-38.24005,0.23892601,-0.2168774,9.80134,0.0015300661,-0.0003721267,0.00041294098,0.00015258789,-4.5776367e-05,0.0001373291
2019-07-01T20:08:34.699Z,0.010881938,-0.012328335,0.9938567,0.23857117,-0.2163086,9.802444,2.4658203,-15.711975,-37.532043,0.23858353,-0.21695477,9.801347,-0.0014799386,-0.0002848953,0.00092220306,-3.0517578e-05,-0.00021362305,-0.00012207031
2019-07-01T20:08:34.903Z,0.0108936615,-0.012309002,0.99385333,0.23976135,-0.21487427,9.802673,3.3935547,-16.064453,-40.36255,0.23877749,-0.21654515,9.801352,-0.00022748113,0.00048463047,-0.0009803772,3.0517578e-05,-0.00015258789,0.00038146973
2019-07-01T20:08:35.016Z,0.010922046,-0.01229096,0.99384564,0.237854,-0.21655273,9.8022,3.2608032,-15.570068,-39.35089,0.23930708,-0.21611583,9.801348,0.00067938864,0.0010146201,-0.0001707077,-3.0517578e-05,-4.5776367e-05,0.0001373291
2019-07-01T20:08:35.221Z,0.010907479,-0.012293643,0.99384946,0.23857117,-0.21751404,9.803879,3.2653809,-15.57312,-38.822937,0.23902152,-0.21620756,9.801352,-0.00048145652,0.00015597045,0.0010070801,-9.1552734e-05,7.6293945e-05,-4.5776367e-05
2019-07-01T20:08:35.426Z,0.010887366,-0.012317895,0.9938551,0.23808289,-0.21534729,9.8022,2.722168,-15.3289795,-37.69226,0.23867023,-0.216736,9.80135,-0.0006304234,-0.0007389188,0.0009889603,-9.1552734e-05,-0.00010681152,-0.00024414062
2019-07-01T20:08:35.631Z,0.010874109,-0.012252707,0.9938575,0.23760986,-0.21487427,9.801956,2.7572632,-16.192627,-38.700867,0.23826922,-0.21549715,9.801387,-0.00091828406,0.001353398,-0.0014724731,3.0517578e-05,1.5258789e-05,-0.00012207031
2019-07-01T20:08:35.837Z,0.010858644,-0.012249543,0.9938615,0.23808289,-0.2172699,9.801239,2.0324707,-16.241455,-38.68103,0.23795356,-0.21547693,9.801394,-0.00036004186,-0.0003438443,0.00013256073,9.1552734e-05,1.5258789e-05,-0.00030517578
2019-07-01T20:08:35.989Z,0.010849494,-0.012271486,0.99386424,0.237854,-0.21583557,9.804352,2.923584,-15.9591675,-38.961792,0.23781645,-0.21593058,9.801387,1.2204051e-05,-0.000599131,0.00072956085,-9.1552734e-05,0.0001373291,-0.00036621094
2019-07-01T20:08:36.194Z,0.010841036,-0.012269568,0.99386644,0.23832703,-0.21583557,9.804596,2.6474,-15.339661,-37.010193,0.23764345,-0.21591584,9.801392,0.00017751753,0.00011026859,0.00063610077,3.0517578e-05,0.0001373291,-0.00012207031
2019-07-01T20:08:36.394Z,0.010862198,-0.012275839,0.993861,0.23976135,-0.2163086,9.8022,2.0645142,-15.586853,-38.0188,0.23807946,-0.21598151,9.80138,0.0014085472,-0.00028674304,0.00089740753,-9.1552734e-05,1.5258789e-05,-0.00018310547
2019-07-01T20:08:36.601Z,0.010872973,-0.012276013,0.9938582,0.23808289,-0.21511841,9.803635,2.3788452,-15.708923,-38.51013,0.23829515,-0.21595588,9.801375,0.00023585558,0.00040084124,-0.00035381317,-9.1552734e-05,-4.5776367e-05,-0.00024414062
2019-07-01T20:08:36.801Z,0.0108816475,-0.012296224,0.99385625,0.237854,-0.2172699,9.8033905,1.5594482,-16.133118,-37.808228,0.2385107,-0.21632768,9.801362,0.00024598837,-0.000414595,0.00024604797,-0.00015258789,-4.5776367e-05,-4.5776367e-05
2019-07-01T20:08:37.000Z,0.0108736325,-0.012291779,0.9938583,0.23880005,-0.21511841,9.801239,3.6880493,-15.185547,-38.534546,0.23834124,-0.21626237,9.801368,-0.00029963255,0.0007084012,-0.00014781952,-9.1552734e-05,0.0001373291,-0.00018310547
2019-07-01T20:08:37.203Z,0.010854807,-0.012271082,0.99386287,0.23760986,-0.21534729,9.804596,3.0136108,-15.962219,-37.91046,0.23792182,-0.21590841,9.801386,-0.000343889,0.0005901009,-0.00074481964,3.0517578e-05,1.5258789e-05,-0.00012207031
2019-07-01T20:08:37.412Z,0.010866984,-0.01227195,0.9938597,0.23904419,-0.2163086,9.806259,2.7893066,-15.538025,-38.191223,0.23816699,-0.21589258,9.80138,0.00035101175,0.0001052171,0.0017442703,9.1552734e-05,7.6293945e-05,-0.00012207031
2019-07-01T20:08:37.609Z,0.010859162,-0.0122746825,0.9938618,0.23783875,-0.21702576,9.803635,2.720642,-15.327454,-37.91809,0.23801637,-0.21596706,9.801382,5.0365925e-06,-0.00028575957,0.00068187714,3.0517578e-05,7.6293945e-05,-0.00012207031
2019-07-01T20:08:37.814Z,0.010866444,-0.012274302,0.9938599,0.23951721,-0.21559143,9.803635,2.671814,-16.423035,-37.913513,0.2381611,-0.21594001,9.801379,0.000577569,-6.878376e-05,-2.670288e-05,-3.0517578e-05,1.5258789e-05,0.00012207031
2019-07-01T20:08:38.013Z,0.010867262,-0.01227379,0.99385965,0.23783875,-0.21559143,9.804108,2.8396606,-16.036987,-39.27765,0.23817638,-0.2159278,9.801378,0.00032028556,0.00014592707,-0.0001821518,-3.0517578e-05,1.5258789e-05,-4.5776367e-05
2019-07-01T20:08:38.216Z,0.010878411,-0.012282538,0.9938569,0.24095154,-0.21917725,9.802444,2.6657104,-14.74762,-38.024902,0.23841746,-0.21606882,9.801371,0.00055904686,-0.0001784414,0.0006723404,3.0517578e-05,0.0001373291,-0.00018310547
2019-07-01T20:08:38.424Z,0.0108988425,-0.012327468,0.99385226,0.23904419,-0.21774292,9.803635,3.022766,-15.8203125,-37.353516,0.23891957,-0.21689224,9.80134,0.0012582093,-0.001760602,-0.0009889603,-3.0517578e-05,-0.00010681152,-0.00030517578
2019-07-01T20:08:38.624Z,0.010907045,-0.012336245,0.9938503,0.23832703,-0.21583557,9.804825,2.6870728,-15.827942,-39.22882,0.23910184,-0.21704173,9.801332,-0.000102475286,-0.00018747151,-0.0009698868,9.1552734e-05,7.6293945e-05,-0.00018310547
2019-07-01T20:08:38.829Z,0.01089728,-0.012322646,0.9938526,0.2400055,-0.21798706,9.800049,2.897644,-15.103149,-37.12616,0.23887825,-0.21680215,9.801342,-0.000371024,-0.0001655966,0.0015764236,9.1552734e-05,-4.5776367e-05,-0.00024414062
2019-07-01T20:08:39.023Z,0.010911432,-0.012326681,0.993849,0.24023438,-0.21534729,9.803162,2.1362305,-15.65094,-38.641357,0.23916955,-0.2168429,9.801335,0.0008035302,-0.00015348196,-0.0026140213,-9.1552734e-05,7.6293945e-05,-0.00024414062
2019-07-01T20:08:39.227Z,0.01092727,-0.01229163,0.9938443,0.24143982,-0.21536255,9.803879,2.4276733,-16.514587,-37.61902,0.23941286,-0.21611482,9.801345,0.0007775277,0.0015243888,0.0009622574,3.0517578e-05,1.5258789e-05,-0.00012207031
2019-07-01T20:08:39.443Z,0.010966265,-0.012306098,0.9938343,0.23976135,-0.21774292,9.8033905,2.1133423,-16.316223,-37.869263,0.2402224,-0.2162924,9.801321,0.001653418,-0.00047113,-0.0006313324,3.0517578e-05,1.5258789e-05,-0.00012207031
2019-07-01T20:08:39.641Z,0.01095897,-0.012322406,0.99383646,0.23904419,-0.21534729,9.8022,2.6931763,-15.910339,-37.960815,0.2401107,-0.21663098,9.801316,7.611513e-05,-0.00059600174,0.0008497238,-3.0517578e-05,1.5258789e-05,-0.00012207031
2019-07-01T20:08:39.843Z,0.0109301945,-0.012302215,0.9938437,0.237854,-0.21774292,9.802673,3.5964966,-15.637207,-37.338257,0.23949341,-0.21631388,9.801338,-0.0012046695,0.0007570535,-0.0007047653,-3.0517578e-05,0.00019836426,-0.00036621094
2019-07-01T20:08:40.046Z,0.010892446,-0.0123099955,0.9938537,0.23904419,-0.2141571,9.8022,2.268982,-16.299438,-38.700867,0.23875527,-0.21656786,9.801352,-0.0014313161,-0.00042001903,0.00032424927,9.1552734e-05,-0.00015258789,1.5258789e-05
2019-07-01T20:08:40.243Z,0.010899498,-0.012279845,0.9938513,0.2368927,-0.21702576,9.804108,3.6010742,-15.562439,-37.249756,0.23883323,-0.2159593,9.801362,-0.0002926886,0.0008685738,-0.0008916855,-3.0517578e-05,7.6293945e-05,-0.00010681152
2019-07-01T20:08:40.447Z,0.010868215,-0.012290876,0.9938597,0.23760986,-0.2163086,9.801483,2.7893066,-15.538025,-38.191223,0.2382311,-0.21625932,9.801371,-0.0009020567,-0.00073315203,0.00051116943,0.00015258789,-0.00010681152,7.6293945e-05
2019-07-01T20:08:40.659Z,0.010859753,-0.012260158,0.9938614,0.23664856,-0.21440125,9.8022,2.62146,-15.693665,-38.441467,0.23799787,-0.21568148,9.801389,-0.00041685998,0.0005891919,-0.000620842,3.0517578e-05,0.00019836426,-0.00012207031
2019-07-01T20:08:40.855Z,0.010845132,-0.01225005,0.9938651,0.23736572,-0.21583557,9.8022,1.612854,-14.811707,-38.372803,0.23768461,-0.21552323,9.8014,-0.00034447014,0.00019912422,-0.00025463104,3.0517578e-05,-4.5776367e-05,7.6293945e-05
2019-07-01T20:08:41.056Z,0.010826714,-0.012242369,0.9938697,0.23880005,-0.21679688,9.805786,2.36969,-15.852356,-38.768005,0.23730053,-0.2154226,9.801412,-0.0011538863,0.00033043325,0.00031280518,3.0517578e-05,-4.5776367e-05,-6.1035156e-05
2019-07-01T20:08:41.261Z,0.01086638,-0.012271286,0.9938598,0.23880005,-0.21606445,9.8033905,3.1173706,-15.444946,-37.957764,0.23801874,-0.21580093,9.801386,0.0017984062,-0.0010959804,0.0019569397,-9.1552734e-05,7.6293945e-05,-0.00012207031
2019-07-01T20:08:41.468Z,0.0108601535,-0.012266321,0.9938614,0.23808289,-0.21655273,9.800766,2.2476196,-15.065002,-37.921143,0.23850822,-0.21673054,9.801353,8.299947e-06,1.5988946e-05,0.00019264221,9.1552734e-05,7.6293945e-05,-6.1035156e-05
2019-07-01T20:08:41.663Z,0.010868177,-0.012309409,0.99386,0.24119568,-0.21702576,9.802429,2.9922485,-14.653015,-37.641907,0.238269,-0.21662179,9.801362,-0.00044049323,-0.00038079917,-0.00045394897,0.00015258789,-4.5776367e-05,-0.00018310547
2019-07-01T20:08:41.869Z,0.010923917,-0.012301025,0.9938453,0.23713684,-0.21536255,9.8022,2.3529053,-16.447449,-37.37793,0.23936549,-0.21630758,9.801342,0.002040282,0.000502795,0.0006542206,-3.0517578e-05,1.5258789e-05,6.1035156e-05
2019-07-01T20:08:42.069Z,0.010870952,-0.012287656,0.99385893,0.23976135,-0.2172699,9.8033905,2.5924683,-14.680481,-37.405396,0.23827909,-0.21618898,9.801372,-0.0023706555,0.00037424266,-0.0008325577,9.1552734e-05,7.6293945e-05,-0.00012207031
2019-07-01T20:08:42.276Z,0.010908436,-0.012300034,0.99384934,0.23664856,-0.2163086,9.802444,3.15094,-14.79187,-37.374878,0.23905401,-0.21632996,9.801349,0.0018610507,-0.0009069294,0.0010347366,0.00015258789,7.6293945e-05,7.6293945e-05
2019-07-01T20:08:42.476Z,0.010855901,-0.012290271,0.99386287,0.23832703,-0.2182312,9.80484,2.3284912,-15.138245,-37.561035,0.2379837,-0.21628062,9.801375,-0.001613751,-0.0004849285,-0.00012302399,-3.0517578e-05,1.5258789e-05,7.6293945e-05
2019-07-01T20:08:42.673Z,0.010856927,-0.012316835,0.99386305,0.23736572,-0.21894836,9.805542,3.125,-15.299988,-37.928772,0.23805965,-0.21679728,9.801363,0.00022779405,-0.00068069994,0.0003976822,-9.1552734e-05,0.0001373291,-0.00012207031
2019-07-01T20:08:42.877Z,0.010832521,-0.01238274,0.9938705,0.237854,-0.21798706,9.803162,3.2348633,-16.2323,-38.804626,0.23770924,-0.21815157,9.801341,8.3997846e-05,-0.0026483685,0.0016946793,-3.0517578e-05,0.0001373291,-0.00010681152
2019-07-01T20:08:43.081Z,0.01083046,-0.0123680765,0.9938708,0.23760986,-0.21989441,9.803162,2.748108,-16.261292,-39.24408,0.23763746,-0.21787038,9.801349,-9.021163e-05,0.0009020418,0.00017547607,3.0517578e-05,-4.5776367e-05,-4.5776367e-05
2019-07-01T20:08:43.283Z,0.010837531,-0.0123892315,0.9938693,0.23857117,-0.21583557,9.802429,3.1097412,-15.438843,-38.63678,0.23782292,-0.21826501,9.801336,-0.0002580434,-0.0011150986,-0.0014781952,3.0517578e-05,-0.00010681152,-0.00012207031
2019-07-01T20:08:43.487Z,0.010844277,-0.012349812,0.9938669,0.23976135,-0.21821594,9.80101,2.7053833,-15.768433,-37.40387,0.2378756,-0.21747613,9.8013525,0.0006454438,0.0016863942,0.0004453659,-3.0517578e-05,7.6293945e-05,-0.00012207031
2019-07-01T20:08:43.698Z,0.010864054,-0.012346674,0.9938617,0.23808289,-0.21511841,9.801239,2.5405884,-15.776062,-38.002014,0.23826434,-0.21736151,9.801346,0.0007548034,0.00035859644,-0.0020828247,-3.0517578e-05,0.0001373291,-0.00036621094
2019-07-01T20:08:43.899Z,0.010873528,-0.012336099,0.99385905,0.23928833,-0.21559143,9.803162,2.279663,-16.156006,-38.220215,0.23843165,-0.21712922,9.801347,0.00083875656,0.00034867227,-0.00059986115,0.00015258789,1.5258789e-05,-0.00024414062
2019-07-01T20:08:44.098Z,0.010871102,-0.012294413,0.993859,0.237854,-0.2182312,9.8033905,3.1036377,-15.583801,-38.667297,0.23829617,-0.2163207,9.801368,-0.0004644245,0.0009936243,0.0003900528,-3.0517578e-05,0.0001373291,-0.00018310547
2019-07-01T20:08:44.300Z,0.010866996,-0.012322353,0.99386054,0.23976135,-0.21798706,9.806503,2.923584,-14.36615,-37.8067,0.23827238,-0.21687804,9.801355,0.0007285327,-0.0010696203,0.0016889572,9.1552734e-05,0.0001373291,-0.00048828125
2019-07-01T20:08:44.510Z,0.010879173,-0.012346525,0.99385774,0.24072266,-0.21583557,9.805313,1.8722534,-16.255188,-38.29956,0.23856619,-0.21731785,9.801338,0.0011278093,-0.0010808855,0.0019245148,0.00021362305,1.5258789e-05,-6.1035156e-05
2019-07-01T20:08:44.779Z,0.010911473,-0.012281643,0.9938482,0.23713684,-0.21440125,9.8022,2.6260376,-15.698242,-37.838745,0.23907627,-0.21596216,9.801355,0.00085413456,0.0013998598,0.0006341934,0.00015258789,-4.5776367e-05,-0.00024414062
2019-07-01T20:08:44.911Z,0.010892937,-0.0122538265,0.9938526,0.237854,-0.21559143,9.801956,2.4490356,-15.922546,-38.48114,0.23864779,-0.21546827,9.801377,-0.00085012615,0.0008890033,-0.001490593,-3.0517578e-05,-4.5776367e-05,-4.5776367e-05
2019-07-01T20:08:45.114Z,0.010874133,-0.01225517,0.99385756,0.23976135,-0.21966553,9.801483,2.9129028,-16.555786,-37.194824,0.23827481,-0.21554524,9.801385,-0.0009510368,-8.255243e-06,-0.0011539459,-3.0517578e-05,1.5258789e-05,-0.00022888184
2019-07-01T20:08:45.316Z,0.010886041,-0.01233232,0.9938557,0.24023438,-0.21702576,9.80603,1.7532349,-15.313721,-38.33008,0.23867382,-0.2170216,9.801342,0.00081171095,-0.0028440058,-0.0009317398,-9.1552734e-05,-0.00010681152,-0.00030517578
2019-07-01T20:08:45.519Z,0.010915339,-0.01234452,0.99384826,0.23832703,-0.21846008,9.804352,3.6087036,-15.115356,-38.59253,0.23928489,-0.21718116,9.801325,0.000420928,-3.8325787e-05,0.0019416809,-0.00015258789,-4.5776367e-05,-0.00030517578
2019-07-01T20:08:45.713Z,0.010898285,-0.012372091,0.99385315,0.23736572,-0.21917725,9.806274,2.5177002,-15.603638,-41.516113,0.23900156,-0.21776624,9.801318,-0.00027097762,-0.0004016757,0.0011453629,3.0517578e-05,-0.00010681152,-0.00018310547
2019-07-01T20:08:45.983Z,0.010881081,-0.012393892,0.993858,0.24047852,-0.21751404,9.804596,2.4353027,-16.215515,-38.615417,0.23870319,-0.21823888,9.801315,-0.00070492923,-0.0013492703,0.0012397766,-3.0517578e-05,1.5258789e-05,-4.5776367e-05
2019-07-01T20:08:46.188Z,0.010902406,-0.012373031,0.9938521,0.23928833,-0.21798706,9.8033905,3.086853,-16.02478,-38.604736,0.2390859,-0.2177735,9.801316,0.00059232116,0.00082346797,-0.00012874603,3.0517578e-05,7.6293945e-05,-0.00030517578
2019-07-01T20:08:46.393Z,0.010904387,-0.0123693375,0.99385154,0.23857117,-0.21702576,9.804108,2.406311,-15.205383,-37.428284,0.23911779,-0.21769595,9.801317,0.00032126904,0.00025305152,-0.00041294098,3.0517578e-05,7.6293945e-05,-4.5776367e-05
2019-07-01T20:08:46.598Z,0.010898535,-0.012362581,0.9938529,0.23664856,-0.2163086,9.807465,2.5604248,-15.109253,-39.076233,0.23898673,-0.2175796,9.801323,-7.584691e-06,-0.00010409951,-0.0010738373,9.1552734e-05,7.6293945e-05,7.6293945e-05
2019-07-01T20:08:46.804Z,0.010867027,-0.012336978,0.9938607,0.23617554,-0.21798706,9.801712,2.7267456,-15.103149,-38.327026,0.23830353,-0.2171639,9.801349,-0.0012512654,0.00093239546,0.0016756058,-9.1552734e-05,-4.5776367e-05,7.6293945e-05
2019-07-01T20:08:46.936Z,0.010817849,-0.01233726,0.9938736,0.23951721,-0.21702576,9.804108,2.3452759,-16.441345,-38.282776,0.23732115,-0.21730177,9.801369,-0.0019349456,-0.00037507713,-0.00095939636,9.1552734e-05,7.6293945e-05,-0.00012207031
2019-07-01T20:08:47.140Z,0.010858209,-0.012327294,0.99386287,0.24095154,-0.22013855,9.8022,2.1881104,-16.304016,-38.700867,0.23810709,-0.21699832,9.801357,0.0015930831,0.00025719404,-0.0009584427,-3.0517578e-05,-0.00010681152,-0.00018310547
2019-07-01T20:08:47.336Z,0.010907371,-0.012396845,0.9938512,0.23857117,-0.21702576,9.805069,2.949524,-15.527344,-38.04474,0.23923485,-0.21822573,9.801302,0.0016559958,-0.002101615,-0.00015354156,-9.1552734e-05,-4.5776367e-05,7.6293945e-05
2019-07-01T20:08:47.543Z,0.010875445,-0.01238105,0.9938593,0.23880005,-0.21702576,9.804108,2.6779175,-16.047668,-39.27307,0.23856373,-0.21800296,9.801324,-0.0010222793,0.0007955581,0.0006914139,3.0517578e-05,7.6293945e-05,0.0
2019-07-01T20:08:47.746Z,0.010887755,-0.01236311,0.9938558,0.23760986,-0.2172699,9.804596,3.338623,-15.638733,-39.289856,0.23877238,-0.21761902,9.801328,0.00045357645,0.00065009296,-0.0004968643,3.0517578e-05,7.6293945e-05,1.5258789e-05
2019-07-01T20:08:47.949Z,0.010863256,-0.012350409,0.993862,0.24168396,-0.21942139,9.803635,3.0807495,-16.09497,-38.76953,0.23825617,-0.2174367,9.801344,-0.00047568977,0.00023390353,0.00094509125,-3.0517578e-05,1.5258789e-05,-0.00012207031
2019-07-01T20:08:48.144Z,0.010888979,-0.0123287095,0.9938549,0.23904419,-0.2172699,9.804596,3.2424927,-16.16211,-38.412476,0.238725,-0.2169431,9.801343,-0.0018823296,0.0023584366,-0.00095272064,3.0517578e-05,-4.5776367e-05,0.0
2019-07-01T20:08:48.349Z,0.010895851,-0.012336892,0.9938532,0.23760986,-0.21846008,9.802444,2.1957397,-16.233826,-38.308716,0.23887946,-0.21708456,9.801336,-0.000121831894,-0.00039094687,-0.0006322861,-9.1552734e-05,-0.00010681152,0.0001373291
2019-07-01T20:08:48.564Z,0.010887411,-0.012352457,0.99385566,0.23880005,-0.21534729,9.805069,3.7658691,-15.3289795,-37.96234,0.23874326,-0.21741165,9.801332,-0.00045536458,-0.00029563904,-0.00026512146,-3.0517578e-05,-0.00015258789,-0.00012207031
2019-07-01T20:08:48.760Z,0.010892569,-0.012331253,0.993854,0.23808289,-0.21894836,9.8033905,2.5238037,-15.988159,-38.801575,0.2388021,-0.21698315,9.801341,-0.00027927756,0.0007185042,0.00078201294,0.00015258789,0.0002593994,-4.5776367e-05
2019-07-01T20:08:48.964Z,0.010861716,-0.012345427,0.9938623,0.23832703,-0.21655273,9.801956,2.1499634,-15.281677,-39.094543,0.238215,-0.21734342,9.801347,-0.00040982664,-0.0010720938,3.4332275e-05,-3.0517578e-05,7.6293945e-05,-4.5776367e-05
2019-07-01T20:08:49.168Z,0.010863948,-0.012334028,0.9938615,0.237854,-0.21846008,9.802673,2.5405884,-15.777588,-37.776184,0.23823583,-0.21711454,9.801352,0.0003016889,0.00036357343,-0.0012521744,9.1552734e-05,1.5258789e-05,-4.5776367e-05
2019-07-01T20:08:49.375Z,0.010851511,-0.012344171,0.9938649,0.23880005,-0.21702576,9.803162,2.7053833,-15.768433,-37.40387,0.23800842,-0.21734637,9.8013525,-0.00018961728,-0.00085270405,0.00011634827,3.0517578e-05,1.5258789e-05,-0.0004272461
2019-07-01T20:08:49.589Z,0.01087077,-0.012346534,0.99385995,0.23640442,-0.2163086,9.8033905,1.8463135,-15.0177,-38.12256,0.23839828,-0.2173407,9.801343,0.0008458048,-0.00013300776,0.0007171631,9.1552734e-05,-4.5776367e-05,0.00019836426
2019-07-01T20:08:49.768Z,0.010842539,-0.012318783,0.99386686,0.24047852,-0.21678162,9.804596,2.5894165,-16.349792,-38.72528,0.23777615,-0.2168741,9.801368,-0.0014113039,0.0008457154,-0.00032520294,-9.1552734e-05,0.0001373291,0.0
2019-07-01T20:08:49.980Z,0.010881705,-0.0123194475,0.9938566,0.23951721,-0.2172699,9.8022,3.263855,-15.725708,-38.09662,0.23856032,-0.2167816,9.801351,0.0016268343,0.00027178228,0.0005874634,9.1552734e-05,1.5258789e-05,-4.5776367e-05
2019-07-01T20:08:50.175Z,0.0108807925,-0.012312854,0.9938568,0.2368927,-0.21440125,9.804596,2.5054932,-16.429138,-38.43689,0.23852831,-0.21665514,9.801354,0.0004696846,0.00014437735,-9.1552734e-05,-3.0517578e-05,-4.5776367e-05,7.6293945e-05
2019-07-01T20:08:50.380Z,0.010868479,-0.012297836,0.9938597,0.23880005,-0.21751404,9.8022,2.9556274,-15.380859,-38.16681,0.23825087,-0.2163947,9.801367,-0.00070150197,0.00061406195,0.0012130737,0.00015258789,1.5258789e-05,-4.5776367e-05
2019-07-01T20:08:50.643Z,0.010864088,-0.012301927,0.99386096,0.23832703,-0.2172699,9.8022,2.720642,-15.327454,-37.91809,0.23817167,-0.2164865,9.801367,-0.00036484003,-0.0009846687,-0.0011081696,0.00015258789,-4.5776367e-05,-0.00018310547
2019-07-01T20:08:50.842Z,0.010873933,-0.012297785,0.9938583,0.237854,-0.21655273,9.803162,3.1082153,-15.663147,-38.002014,0.2383598,-0.216379,9.801365,0.00040188432,-0.00013890862,-0.0007419586,3.0517578e-05,7.6293945e-05,0.00019836426
2019-07-01T20:08:51.047Z,0.010855596,-0.012300174,0.9938631,0.23880005,-0.21679688,9.801956,2.6382446,-15.405273,-37.78076,0.23799829,-0.2164751,9.801372,-0.0006647855,-0.0005213469,-0.000497818,3.0517578e-05,-4.5776367e-05,0.0
2019-07-01T20:08:51.250Z,0.010871956,-0.012297294,0.9938588,0.24095154,-0.21942139,9.805313,3.0670166,-16.537476,-38.253784,0.23831926,-0.21637474,9.801367,0.00093865395,9.3743205e-05,-0.00017261505,0.00039672852,0.00019836426,1.5258789e-05
2019-07-01T20:08:51.447Z,0.010905756,-0.012334772,0.9938506,0.23904419,-0.2182312,9.799805,3.7887573,-14.970398,-36.984253,0.23907302,-0.21701643,9.801334,0.001601994,-0.0026058555,0.0013093948,3.0517578e-05,7.6293945e-05,-0.00012207031
2019-07-01T20:08:51.652Z,0.010909118,-0.012333547,0.9938497,0.24023438,-0.21368408,9.808411,3.6941528,-15.1901245,-37.78076,0.23913763,-0.21698338,9.801332,0.0005983412,-0.00026349723,-0.0018501282,0.00015258789,-4.5776367e-05,-4.5776367e-05
2019-07-01T20:08:51.858Z,0.010932898,-0.012284325,0.99384266,0.23928833,-0.21870422,9.801239,2.3742676,-15.6311035,-39.175415,0.23951009,-0.21595682,9.801347,0.000655815,0.0013884455,0.0035448074,-3.0517578e-05,-0.00010681152,-0.00024414062
2019-07-01T20:08:52.060Z,0.01091973,-0.012322177,0.9938467,0.23904419,-0.2172699,9.804108,2.7038574,-15.615845,-38.279724,0.23932599,-0.21673244,9.801333,-0.00058463216,-0.0016744733,-0.0008201599,9.1552734e-05,-4.5776367e-05,-4.5776367e-05
2019-07-01T20:08:52.262Z,0.010916978,-0.012328497,0.99384755,0.237854,-0.21679688,9.803879,2.3162842,-15.2771,-38.420105,0.23928419,-0.21686344,9.8013315,-0.00052827597,-0.00012232363,-0.0011835098,-9.1552734e-05,-4.5776367e-05,-4.5776367e-05
2019-07-01T20:08:52.462Z,0.010902339,-0.012329697,0.9938514,0.23880005,-0.21798706,9.8033905,2.1606445,-15.216064,-37.94861,0.23899408,-0.21692637,9.801336,-0.0004864782,0.00018717349,0.001613617,3.0517578e-05,0.0001373291,1.5258789e-05
2019-07-01T20:08:52.668Z,0.010880377,-0.012338241,0.99385726,0.23832703,-0.21534729,9.8033905,2.8564453,-15.82489,-38.253784,0.23857301,-0.21715266,9.801343,-0.0005490631,-0.00078073144,-0.00037384033,0.00015258789,-0.00010681152,0.0002593994
2019-07-01T20:08:52.864Z,0.010890642,-0.012307206,0.9938541,0.24047852,-0.21749878,9.799805,2.8701782,-15.609741,-37.756348,0.23871337,-0.21651816,9.8013525,0.0002745241,0.00048951805,0.00021457672,-9.1552734e-05,-4.5776367e-05,7.6293945e-05
2019-07-01T20:08:53.066Z,0.010919218,-0.01234233,0.9938472,0.23904419,-0.22038269,9.80722,3.440857,-15.272522,-38.616943,0.23935784,-0.21712787,9.801324,0.0013254583,-0.0008234829,-0.001452446,3.0517578e-05,7.6293945e-05,-0.00010681152
2019-07-01T20:08:53.268Z,0.010906334,-0.012392416,0.99385136,0.23880005,-0.21534729,9.8033905,3.0807495,-14.581299,-36.875916,0.23920491,-0.21814194,9.801306,2.4214387e-05,-0.0021867603,0.0015821457,9.1552734e-05,1.5258789e-05,7.6293945e-05
2019-07-01T20:08:53.492Z,0.010893954,-0.012311781,0.99385333,0.23928833,-0.21655273,9.8022,3.0197144,-15.893555,-37.36725,0.23878914,-0.21659872,9.801351,-0.0007674545,0.0024971217,0.00024604797,0.00015258789,7.6293945e-05,7.6293945e-05
2019-07-01T20:08:53.741Z,0.010896829,-0.012309528,0.9938525,0.23783875,-0.21774292,9.804108,2.3147583,-15.426636,-37.771606,0.23884189,-0.2165469,9.80135,0.00015449524,-0.0002066493,-0.0011110306,3.0517578e-05,1.5258789e-05,0.00044250488
2019-07-01T20:08:53.937Z,0.010889478,-0.012350881,0.9938551,0.24024963,-0.21894836,9.803879,1.9897461,-15.522766,-37.55188,0.23878127,-0.21737525,9.801332,0.00021003187,-0.0017538369,0.000374794,-9.1552734e-05,-4.5776367e-05,6.1035156e-05
2019-07-01T20:08:54.131Z,0.010909855,-0.012369532,0.9938501,0.2400055,-0.21798706,9.803879,2.7114868,-15.470886,-38.09967,0.2392275,-0.21768498,9.801314,0.00072558224,-0.00025437772,-7.1525574e-05,0.00015258789,1.5258789e-05,0.0001373291
2019-07-01T20:08:54.335Z,0.010914757,-0.012389105,0.99384916,0.24143982,-0.22109985,9.804596,2.2949219,-15.940857,-37.420654,0.23936637,-0.21805449,9.801304,0.0003427267,-0.0013192892,-5.2452087e-05,9.1552734e-05,0.0001373291,-0.00010681152
2019-07-01T20:08:54.539Z,0.01093598,-0.012415767,0.99384403,0.23808289,-0.21607971,9.803146,2.268982,-16.4505,-37.901306,0.23984627,-0.21851853,9.801282,0.00127922,-0.0015560836,0.0013923645,-3.0517578e-05,-0.00010681152,0.00019836426
2019-07-01T20:08:54.748Z,0.010919279,-0.012377434,0.9938478,0.23951721,-0.21751404,9.805542,2.531433,-15.9210205,-38.031006,0.23943236,-0.21781409,9.801307,-0.0014145374,0.0017935485,-0.00033569336,9.1552734e-05,-4.5776367e-05,0.0
2019-07-01T20:08:54.945Z,0.010911382,-0.012367393,0.99384964,0.23617554,-0.21751404,9.804108,2.6916504,-15.985107,-37.825012,0.23925355,-0.21763906,9.801315,-4.4986606e-05,-0.00027544796,0.001203537,3.0517578e-05,7.6293945e-05,1.5258789e-05
2019-07-01T20:08:55.149Z,0.010864046,-0.012343567,0.9938616,0.23880005,-0.21798706,9.806992,2.4627686,-15.936279,-36.595154,0.23825769,-0.21730077,9.801347,-0.001685977,0.00081810355,-0.00015544891,-0.00015258789,1.5258789e-05,-0.00018310547
2019-07-01T20:08:55.353Z,0.010871966,-0.012363889,0.9938599,0.23880005,-0.21774292,9.804596,2.7374268,-14.961243,-37.84485,0.2384584,-0.21767679,9.801333,0.00024434924,-0.0006944686,0.0016584396,0.00015258789,1.5258789e-05,0.00012207031
2019-07-01T20:08:55.557Z,0.010865421,-0.01234912,0.9938614,0.23832703,-0.21774292,9.806992,2.7175903,-15.322876,-38.371277,0.23829676,-0.21740566,9.801344,-5.504489e-05,0.00021359324,-0.00097465515,3.0517578e-05,7.6293945e-05,-0.00010681152
2019-07-01T20:08:55.758Z,0.010874304,-0.012355681,0.9938592,0.23857117,-0.2163086,9.804596,2.5650024,-15.266418,-37.524414,0.23848802,-0.21751001,9.801337,0.00069735944,-0.00013899803,0.0014238358,-9.1552734e-05,-0.00015258789,-0.00012207031
2019-07-01T20:08:55.958Z,0.010874343,-0.012336307,0.9938588,0.23760986,-0.2182312,9.801239,2.7786255,-15.679932,-38.74817,0.23844835,-0.2171311,9.801346,-0.0006850809,0.00090512633,-0.00096797943,3.0517578e-05,1.5258789e-05,0.00032043457
2019-07-01T20:08:56.161Z,0.010852815,-0.0123542845,0.9938647,0.23713684,-0.21774292,9.801239,2.0217896,-16.383362,-39.086914,0.23805557,-0.21754059,9.801347,-0.0009840429,-0.0008598119,-0.00207901,3.0517578e-05,-4.5776367e-05,0.0002593994
2019-07-01T20:08:56.368Z,0.010848312,-0.012351759,0.99386585,0.237854,-0.21798706,9.8033905,1.5930176,-15.25116,-38.459778,0.23796028,-0.21750331,9.80135,-0.00063329935,-0.00020420551,-0.0021791458,9.1552734e-05,-0.00021362305,7.6293945e-05
2019-07-01T20:08:56.570Z,0.0108625265,-0.012358959,0.9938623,0.23832703,-0.2172699,9.804596,2.7633667,-15.969849,-39.108276,0.23825943,-0.21760583,9.80134,2.3141503e-05,-9.647012e-05,0.00046539307,-3.0517578e-05,-0.00010681152,0.0
2019-07-01T20:08:56.771Z,0.010862858,-0.012350719,0.9938621,0.23928833,-0.21751404,9.8022,2.6306152,-15.475464,-38.320923,0.23824887,-0.21744382,9.801344,-0.000435099,0.00045481324,-0.00032615662,-9.1552734e-05,-0.00010681152,0.0001373291
2019-07-01T20:08:56.965Z,0.010899445,-0.0123701785,0.99385285,0.23928833,-0.2163086,9.804825,2.9251099,-15.884399,-39.248657,0.23902081,-0.21772574,9.80132,0.001163736,-0.00021593273,0.00074481964,-3.0517578e-05,1.5258789e-05,-4.5776367e-05
2019-07-01T20:08:57.170Z,0.010893581,-0.012329448,0.9938537,0.23976135,-0.21606445,9.8033905,3.3538818,-15.119934,-40.24353,0.23881859,-0.21694516,9.801342,-0.0005546212,0.0016551465,0.0011396408,3.0517578e-05,-0.00010681152,0.0002593994
2019-07-01T20:08:57.373Z,0.010930292,-0.012337656,0.9938442,0.24143982,-0.2172699,9.804352,2.9418945,-15.519714,-39.100647,0.23956943,-0.21700661,9.801322,0.0010958016,-0.00021128356,-0.0005092621,3.0517578e-05,1.5258789e-05,0.0002593994
2019-07-01T20:08:57.677Z,0.01095954,-0.012331307,0.99383646,0.23904419,-0.21846008,9.804352,3.9077759,-15.605164,-38.778687,0.2401407,-0.21680348,9.801312,0.0014665425,0.00030621886,0.00028800964,-3.0517578e-05,-0.00010681152,0.0001373291
2019-07-01T20:08:57.882Z,0.010969127,-0.0123924585,0.993835,0.23904419,-0.2172699,9.8029175,2.9022217,-14.802551,-38.12256,0.24046011,-0.21797323,9.801278,-7.683039e-05,-0.00064465404,0.0020599365,-0.00021362305,-0.00015258789,7.6293945e-05
2019-07-01T20:08:58.087Z,0.010958466,-0.012404683,0.99383795,0.24047852,-0.2172699,9.804108,2.8747559,-15.309143,-38.980103,0.24027258,-0.21824108,9.801277,-0.00058589876,0.0005659759,-0.0016489029,-0.00033569336,-4.5776367e-05,0.0002593994
2019-07-01T20:08:58.293Z,0.010942878,-0.012411249,0.9938421,0.23880005,-0.2182312,9.805542,3.1188965,-15.1397705,-39.40735,0.2399747,-0.21841154,9.80128,-0.0005300641,0.0004905313,-0.0001373291,-3.0517578e-05,1.5258789e-05,1.5258789e-05
2019-07-01T20:08:58.387Z,0.010935524,-0.012378962,0.99384356,0.2400055,-0.2163086,9.801956,2.3620605,-16.000366,-38.645935,0.23976026,-0.21780011,9.801299,-0.00033156574,0.0010836273,0.0013418198,3.0517578e-05,1.5258789e-05,7.6293945e-05
2019-07-01T20:08:58.611Z,0.010927237,-0.01237092,0.9938456,0.23713684,-0.21966553,9.8033905,3.1311035,-15.002441,-38.398743,0.2395778,-0.21766521,9.801306,-0.00034983456,-2.2858381e-05,-0.002292633,0.00021362305,0.0001373291,0.0001373291
2019-07-01T20:08:58.795Z,0.010880604,-0.012366998,0.9938577,0.23760986,-0.21487427,9.805542,2.2232056,-15.574646,-38.3255,0.23863752,-0.2177143,9.801328,-0.0015670508,-0.00045634806,0.000541687,9.1552734e-05,7.6293945e-05,0.0002593994
2019-07-01T20:08:58.996Z,0.010853464,-0.012324376,0.99386406,0.24024963,-0.21870422,9.80603,4.0008545,-15.533447,-37.635803,0.23800617,-0.21695405,9.801361,-0.00022605062,0.0011858344,0.0006656647,-3.0517578e-05,0.0002593994,1.5258789e-05
2019-07-01T20:08:59.201Z,0.010869089,-0.012352602,0.9938605,0.23927307,-0.21583557,9.804825,2.6123047,-15.989685,-37.898254,0.23837732,-0.21746384,9.80134,0.0012962222,-0.0011602789,0.0010795593,0.00015258789,1.5258789e-05,1.5258789e-05
2019-07-01T20:08:59.403Z,0.010892103,-0.012291948,0.99385345,0.23880005,-0.2163086,9.801727,3.4973145,-15.855408,-38.2843,0.23871075,-0.21621591,9.80136,0.00047777593,0.0023795217,-0.00023555756,-9.1552734e-05,-4.5776367e-05,-4.5776367e-05
2019-07-01T20:08:59.611Z,0.01089326,-0.012324259,0.9938537,0.24047852,-0.21678162,9.804596,2.972412,-15.016174,-38.09204,0.23880129,-0.21684451,9.801343,-5.699694e-05,-0.0010919124,-0.0023927689,3.0517578e-05,1.5258789e-05,0.0001373291
2019-07-01T20:08:59.810Z,0.01091848,-0.012327986,0.99384713,0.23760986,-0.21774292,9.804596,2.9586792,-15.383911,-37.638855,0.23931316,-0.2168494,9.8013315,0.0013473928,-0.00012007356,0.00047683716,3.0517578e-05,7.6293945e-05,0.00019836426
2019-07-01T20:09:00.014Z,0.010884659,-0.01231514,0.9938558,0.24191284,-0.21846008,9.802673,2.2155762,-15.7196045,-38.580322,0.23861034,-0.21668941,9.801351,-0.0010717362,-2.7507544e-05,0.000790596,-3.0517578e-05,-4.5776367e-05,0.00038146973
2019-07-01T20:09:00.220Z,0.01094667,-0.012380458,0.99384063,0.23904419,-0.21917725,9.804108,1.8981934,-15.596008,-38.542175,0.23998617,-0.21779928,9.801293,0.0023418516,-0.0018137395,-0.0012273788,-3.0517578e-05,-0.00010681152,0.0001373291
2019-07-01T20:09:00.420Z,0.0109186005,-0.012396765,0.99384826,0.23928833,-0.2182312,9.80603,3.2104492,-15.223694,-37.615967,0.23945916,-0.21819386,9.801297,-0.0012012422,-0.0009204149,0.0009422302,9.1552734e-05,7.6293945e-05,-4.5776367e-05
2019-07-01T20:09:00.624Z,0.010925625,-0.012390426,0.9938463,0.24191284,-0.21751404,9.8029175,2.748108,-16.33606,-38.88092,0.23958637,-0.218051,9.801298,0.00033643842,0.00013920665,0.0011053085,-9.1552734e-05,-0.00015258789,0.0002593994
2019-07-01T20:09:00.828Z,0.010975975,-0.012397941,0.99383324,0.23928833,-0.2172699,9.804352,2.9037476,-14.804077,-37.895203,0.24060847,-0.21806192,9.801272,0.0009892732,0.00038331747,-0.001001358,3.0517578e-05,-0.00015258789,0.0002593994
2019-07-01T20:09:01.032Z,0.010971226,-0.012352902,0.9938338,0.24095154,-0.21751404,9.806259,2.445984,-16.073608,-37.983704,0.24041939,-0.21719414,9.801296,-0.00096419454,0.0016587377,-0.0006637573,-3.0517578e-05,-0.0002746582,-0.00010681152
2019-07-01T20:09:01.232Z,0.010987831,-0.012393425,0.9938301,0.24095154,-0.22038269,9.805542,2.9251099,-16.036987,-38.37433,0.24083602,-0.21794157,9.80127,0.00027887523,-0.0016508698,0.0014734268,9.1552734e-05,7.6293945e-05,0.00019836426
2019-07-01T20:09:01.437Z,0.010969418,-0.012408396,0.99383515,0.2416687,-0.2163086,9.805313,3.2684326,-15.577698,-38.294983,0.24049926,-0.21828409,9.8012705,-0.00011359155,-0.0010530204,0.0009756088,9.1552734e-05,-0.00010681152,0.0002593994
2019-07-01T20:09:01.639Z,0.011006907,-0.012384759,0.99382496,0.23904419,-0.21798706,9.806992,2.0095825,-15.084839,-37.612915,0.24119917,-0.21772054,9.801266,0.0008547902,0.0010166615,0.0008068085,-3.0517578e-05,-0.00015258789,0.0001373291
2019-07-01T20:09:01.843Z,0.010975981,-0.012373153,0.9938329,0.24023438,-0.21751404,9.802444,2.609253,-16.064453,-37.913513,0.24055679,-0.21757725,9.801285,-0.0020924509,0.00040397048,0.00039291382,-3.0517578e-05,-0.00015258789,0.0001373291
2019-07-01T20:09:02.041Z,0.010969987,-0.012397212,0.9938348,0.23976135,-0.21798706,9.806747,2.5360107,-15.617371,-39.331055,0.24048725,-0.21806386,9.801275,-0.00057029724,-0.00080420077,-0.001493454,3.0517578e-05,-4.5776367e-05,-0.00012207031
2019-07-01T20:09:02.245Z,0.010969128,-0.012375947,0.9938347,0.23976135,-0.22061157,9.803146,1.9119263,-15.226746,-38.771057,0.24042563,-0.21765038,9.801286,-0.0005157739,0.000467062,0.0006017685,3.0517578e-05,-0.00010681152,0.00018310547
2019-07-01T20:09:02.445Z,0.010960179,-0.012410246,0.9938376,0.23880005,-0.21702576,9.80603,2.5619507,-15.339661,-37.612915,0.24031845,-0.21834521,9.801273,-0.0006402731,-0.0014736354,-0.0010309219,-9.1552734e-05,-0.00021362305,0.00019836426
2019-07-01T20:09:02.651Z,0.010944749,-0.012389837,0.9938413,0.23857117,-0.21679688,9.80603,2.6138306,-14.398193,-36.366272,0.23996738,-0.21798782,9.80129,-0.0012627691,0.0012776405,0.0010709763,3.0517578e-05,-4.5776367e-05,-0.00012207031
2019-07-01T20:09:02.867Z,0.010930369,-0.01235522,0.9938445,0.23951721,-0.21846008,9.805313,3.4545898,-15.284729,-36.95984,0.23960762,-0.2173498,9.801312,-0.0011359304,0.0013756007,0.00040340424,-9.1552734e-05,-4.5776367e-05,-4.5776367e-05
2019-07-01T20:09:03.058Z,0.010919594,-0.012385644,0.9938478,0.24119568,-0.21798706,9.804352,3.2424927,-14.34021,-38.494873,0.2394558,-0.21797375,9.801303,-2.989173e-05,-0.0011203736,-0.00068855286,-9.1552734e-05,-4.5776367e-05,7.6293945e-05
2019-07-01T20:09:03.262Z,0.010961864,-0.012413148,0.99383724,0.24047852,-0.21679688,9.803635,2.5482178,-15.478516,-38.39569,0.2403582,-0.21839741,9.801271,0.0009930432,-0.00047047436,-0.00028705597,-3.0517578e-05,-0.00010681152,0.0001373291
2019-07-01T20:09:03.463Z,0.010955848,-0.012357586,0.9938379,0.24072266,-0.21702576,9.805313,2.9846191,-16.54358,-38.479614,0.24012183,-0.21732728,9.801301,-0.00019396842,0.0020502657,-0.0008354187,-9.1552734e-05,-4.5776367e-05,-4.5776367e-05
2019-07-01T20:09:03.677Z,0.010978556,-0.012384097,0.99383235,0.24215698,-0.22013855,9.806259,1.5731812,-15.687561,-38.475037,0.24063115,-0.21778429,9.801279,0.00022566319,-0.00036118925,0.0013666153,-3.0517578e-05,-0.00015258789,-0.00018310547
2019-07-01T20:09:03.871Z,0.010993029,-0.012426077,0.99382925,0.23880005,-0.21774292,9.804596,3.463745,-16.506958,-38.868713,0.2410082,-0.21856597,9.801252,0.0010458976,-0.0014792681,0.0005941391,3.0517578e-05,7.6293945e-05,7.6293945e-05
2019-07-01T20:09:04.071Z,0.010988181,-0.012424496,0.9938305,0.24143982,-0.21846008,9.802444,3.3538818,-15.501404,-38.05542,0.240908,-0.21854816,9.801255,0.0014121383,-0.0008135736,-0.0019731522,-9.1552734e-05,7.6293945e-05,-0.00018310547
2019-07-01T20:09:04.273Z,0.01098338,-0.012423466,0.99383175,0.23928833,-0.21870422,9.8033905,3.5202026,-15.344238,-38.182068,0.24080981,-0.21854098,9.801256,0.0003245324,0.00013655424,-0.00036239624,-3.0517578e-05,1.5258789e-05,1.5258789e-05
2019-07-01T20:09:04.479Z,0.010962657,-0.012436697,0.99383736,0.24119568,-0.21917725,9.805069,2.0874023,-15.075684,-38.067627,0.24042323,-0.2188557,9.801259,-0.0009508133,-3.799796e-05,-7.343292e-05,-3.0517578e-05,1.5258789e-05,7.6293945e-05
2019-07-01T20:09:04.737Z,0.010960491,-0.012406174,0.9938375,0.23880005,-0.21966553,9.8029175,2.9342651,-15.893555,-38.041687,0.24031615,-0.21826473,9.801274,9.5278025e-05,0.0005827546,0.00058460236,3.0517578e-05,7.6293945e-05,-0.00012207031
2019-07-01T20:09:04.943Z,0.010936831,-0.012452474,0.9938444,0.24095154,-0.22062683,9.805313,1.6372681,-16.049194,-38.624573,0.23993991,-0.21923393,9.801263,-0.0007098764,-0.0015685111,-0.0007276535,-9.1552734e-05,7.6293945e-05,1.5258789e-05
2019-07-01T20:09:05.133Z,0.010941328,-0.012473175,0.99384356,0.2400055,-0.21942139,9.803879,2.4429321,-14.248657,-38.064575,0.24007303,-0.21962656,9.80125,0.0005813539,-0.00044953823,0.0007867813,-3.0517578e-05,-0.00021362305,7.6293945e-05
2019-07-01T20:09:05.339Z,0.0109526375,-0.0124722775,0.9938406,0.23951721,-0.21966553,9.805542,2.4902344,-14.897156,-38.801575,0.24029729,-0.21957847,9.801247,-0.00013177097,0.00022001565,5.2452087e-05,-0.00015258789,-0.00021362305,0.0001373291
2019-07-01T20:09:05.549Z,0.010955996,-0.01246208,0.99383956,0.24047852,-0.21702576,9.804596,2.2399902,-15.206909,-38.328552,0.24034311,-0.21937001,9.8012495,-0.00091443956,0.0007465929,0.0016431808,9.1552734e-05,-0.00015258789,-0.00012207031
2019-07-01T20:09:05.744Z,0.010971283,-0.012421247,0.99383485,0.23976135,-0.21846008,9.806503,2.3971558,-15.196228,-38.635254,0.24056338,-0.21853028,9.801263,-0.00040708482,0.0018043518,-0.0008096695,-9.1552734e-05,-0.00015258789,0.0
2019-07-01T20:09:05.946Z,0.010963621,-0.01245143,0.99383736,0.24023438,-0.22038269,9.805069,3.0181885,-15.737915,-38.845825,0.24047329,-0.21914116,9.801251,-0.0005648732,-0.0013819337,0.0015382767,-0.00015258789,-0.00015258789,-4.5776367e-05
2019-07-01T20:09:06.176Z,0.010975417,-0.01245787,0.9938344,0.24047852,-0.21751404,9.805069,3.09906,-15.731812,-38.84735,0.24072255,-0.21923518,9.801243,-9.980798e-05,0.00037780404,0.00023078918,0.00015258789,-4.5776367e-05,-0.00024414062
2019-07-01T20:09:06.392Z,0.010953349,-0.012422488,0.99383956,0.23832703,-0.22061157,9.806274,3.3554077,-15.350342,-38.705444,0.2402075,-0.21860303,9.8012705,-0.001006648,0.00045143068,-0.0009613037,0.00015258789,0.0001373291,-4.5776367e-05
2019-07-01T20:09:06.553Z,0.010924165,-0.012448522,0.99384767,0.24143982,-0.22038269,9.804352,2.6306152,-15.322876,-39.34784,0.23967847,-0.21919087,9.8012705,-0.00073722005,-0.0013265759,0.0012683868,3.0517578e-05,7.6293945e-05,-6.1035156e-05
2019-07-01T20:09:06.760Z,0.010938516,-0.012455306,0.993844,0.23857117,-0.21749878,9.804596,2.3040771,-15.570068,-38.327026,0.23997952,-0.21928477,9.801261,0.0008778274,-0.0005235672,-0.00075626373,3.0517578e-05,0.0001373291,1.5258789e-05
2019-07-01T20:09:07.010Z,0.01092309,-0.012427076,0.99384755,0.24143982,-0.21870422,9.804108,2.7435303,-14.66217,-38.615417,0.2396122,-0.21877442,9.801281,-0.00019411743,0.0013661534,0.00045013428,-9.1552734e-05,-4.5776367e-05,7.6293945e-05
2019-07-01T20:09:07.168Z,0.010939503,-0.012425118,0.99384326,0.24263,-0.22038269,9.807465,3.1051636,-15.510559,-39.105225,0.23993622,-0.21869186,9.801275,0.00045484304,0.00031149387,-0.0009689331,-3.0517578e-05,-0.00015258789,0.0002593994
2019-07-01T20:09:07.392Z,0.011000129,-0.012490708,0.9938285,0.23928833,-0.21894836,9.805069,3.326416,-16.082764,-38.47351,0.24128525,-0.21981047,9.801217,0.0019512922,-0.0019057393,0.0017538071,-9.1552734e-05,-4.5776367e-05,0.0001373291
2019-07-01T20:09:07.568Z,0.010953244,-0.01244593,0.99384,0.23928833,-0.2163086,9.804596,3.2577515,-15.795898,-38.414,0.24025436,-0.21906167,9.801259,-0.0017812848,0.0014081895,-0.0009088516,-3.0517578e-05,1.5258789e-05,0.0
2019-07-01T20:09:07.773Z,0.0109494245,-0.012419922,0.9938406,0.24047852,-0.22229004,9.804108,3.340149,-15.792847,-38.26599,0.24012369,-0.21856345,9.801273,-0.0004505217,0.0013738275,-0.0007648468,-9.1552734e-05,-4.5776367e-05,7.6293945e-05
2019-07-01T20:09:07.971Z,0.010942236,-0.012483389,0.9938435,0.24191284,-0.22013855,9.804825,3.1036377,-15.660095,-38.606262,0.2401125,-0.2198238,9.801245,4.8696995e-05,-0.0021564066,-2.9563904e-05,-3.0517578e-05,1.5258789e-05,0.0001373291
2019-07-01T20:09:08.171Z,0.010992521,-0.0124964155,0.99383056,0.24287415,-0.22157288,9.805542,3.1295776,-15.150452,-38.127136,0.24114507,-0.21994261,9.801217,0.0016438067,-0.00011816621,-0.000330925,-9.1552734e-05,-0.00010681152,0.0
2019-07-01T20:09:08.374Z,0.010993117,-0.01250833,0.99383056,0.23976135,-0.2172699,9.804352,3.1784058,-15.802002,-38.41095,0.2411819,-0.220174,9.801212,0.00016142428,-0.00059363246,0.00089740753,3.0517578e-05,1.5258789e-05,-0.00012207031
2019-07-01T20:09:08.575Z,0.010971354,-0.012473125,0.9938357,0.24072266,-0.21846008,9.8029175,2.5054932,-14.759827,-37.79297,0.24067323,-0.21954447,9.801238,-0.0009952635,0.0013893098,-0.000998497,3.0517578e-05,7.6293945e-05,-4.5776367e-05
2019-07-01T20:09:08.784Z,0.010984217,-0.012453821,0.99383205,0.23951721,-0.21798706,9.805313,2.4520874,-16.004944,-37.365723,0.24089003,-0.21913224,9.801242,0.00023441017,0.00096584857,-0.0009784698,-9.1552734e-05,-0.0002746582,0.0001373291
2019-07-01T20:09:08.984Z,0.010951343,-0.01238412,0.9938395,0.237854,-0.2163086,9.803635,2.7160645,-15.39917,-37.85858,0.24008723,-0.21785824,9.80129,-0.0008755028,0.000184834,-6.484985e-05,0.00021362305,-0.00010681152,-6.1035156e-05
2019-07-01T20:09:09.206Z,0.01093263,-0.012339871,0.9938437,0.23880005,-0.21798706,9.805313,2.796936,-15.393066,-37.934875,0.23962079,-0.21704361,9.80132,-0.0013669878,0.0010302216,-0.00020694733,3.0517578e-05,-4.5776367e-05,-0.00030517578
2019-07-01T20:09:09.434Z,0.0109083,-0.01236895,0.99385047,0.24023438,-0.21989441,9.807465,2.8274536,-14.8880005,-36.92627,0.23919521,-0.21767783,9.801316,-0.0014261603,-0.00094908476,0.0009889603,-3.0517578e-05,-0.00010681152,0.0001373291
2019-07-01T20:09:09.597Z,0.010931677,-0.012394346,0.9938448,0.24143982,-0.21846008,9.804108,2.5848389,-16.802979,-36.776733,0.2397155,-0.2181113,9.801293,0.00066523254,-0.001465261,0.0009832382,9.1552734e-05,-4.5776367e-05,-0.00012207031
2019-07-01T20:09:09.800Z,0.01095846,-0.01239233,0.9938378,0.23904419,-0.21655273,9.80603,3.211975,-15.22522,-37.464905,0.24024665,-0.21799955,9.801283,0.0011006147,0.00034061074,-0.00046253204,9.1552734e-05,-4.5776367e-05,0.0001373291
2019-07-01T20:09:09.998Z,0.010953923,-0.012363671,0.9938385,0.24119568,-0.21774292,9.804825,2.7832031,-15.684509,-38.220215,0.24009605,-0.21745144,9.801298,-0.0006789118,0.00051631033,0.0006465912,9.1552734e-05,-0.00010681152,0.00019836426
2019-07-01T20:09:10.208Z,0.01096443,-0.012375377,0.9938359,0.23928833,-0.21917725,9.8029175,3.0136108,-15.962219,-38.059998,0.24033055,-0.21765195,9.801289,0.00052699447,-0.0004941225,-0.0005264282,-9.1552734e-05,1.5258789e-05,0.0001373291
2019-07-01T20:09:10.453Z,0.010942859,-0.012396245,0.9938419,0.237854,-0.21702576,9.801483,2.1835327,-15.010071,-36.32202,0.23994298,-0.21811824,9.801288,-0.0012148321,-0.0005206466,-0.0017795563,3.0517578e-05,-4.5776367e-05,-6.1035156e-05
2019-07-01T20:09:10.614Z,0.010921358,-0.012368156,0.9938471,0.23951721,-0.21846008,9.8029175,1.914978,-15.609741,-36.582947,0.23945455,-0.21762705,9.801311,-0.001186043,0.00088335574,-0.0010328293,-3.0517578e-05,-0.00010681152,1.5258789e-05
2019-07-01T20:09:10.813Z,0.010927991,-0.01238093,0.9938455,0.23832703,-0.21989441,9.805786,2.861023,-15.753174,-38.163757,0.2396138,-0.21785891,9.801301,0.00010307133,-0.00033184886,-0.0011644363,-9.1552734e-05,-4.5776367e-05,0.0
2019-07-01T20:09:11.013Z,0.01090638,-0.012429462,0.99385196,0.23928833,-0.22038269,9.803146,3.5171509,-15.490723,-38.21106,0.23928314,-0.21886615,9.801288,-0.00077834725,-0.0016847104,0.00178051,3.0517578e-05,-0.00010681152,0.0001373291
2019-07-01T20:09:11.223Z,0.010891469,-0.012433968,0.99385595,0.23832703,-0.21917725,9.805069,2.2369385,-15.206909,-38.630676,0.23899445,-0.21899445,9.801291,-0.0007365048,-0.0008366704,0.00022792816,-9.1552734e-05,0.0001373291,0.0001373291
2019-07-01T20:09:11.424Z,0.010897931,-0.012471347,0.9938549,0.2400055,-0.22085571,9.8033905,2.2521973,-14.99176,-37.983704,0.23920162,-0.2197079,9.8012705,0.00024427474,-0.0006092638,0.00015926361,3.0517578e-05,-0.00010681152,-4.5776367e-05
2019-07-01T20:09:11.627Z,0.010913166,-0.012469756,0.9938509,0.2409668,-0.21942139,9.805542,1.4984131,-15.623474,-38.305664,0.23950288,-0.2196357,9.801264,0.00043176115,3.5136938e-05,-5.6266785e-05,-3.0517578e-05,-0.00010681152,0.00038146973
2019-07-01T20:09:11.828Z,0.010923403,-0.012460379,0.993848,0.24095154,-0.21894836,9.806274,2.3864746,-15.567017,-37.953186,0.23968798,-0.21942474,9.801265,0.00047942996,7.861853e-05,0.00091552734,3.0517578e-05,-4.5776367e-05,0.0001373291
2019-07-01T20:09:12.031Z,0.010945306,-0.012463397,0.99384236,0.23568726,-0.21942139,9.802444,2.4658203,-15.559387,-38.331604,0.24013217,-0.21942464,9.801254,0.0007273853,0.00033143163,0.00077724457,9.1552734e-05,1.5258789e-05,-0.00012207031
2019-07-01T20:09:12.230Z,0.010880294,-0.012439847,0.99385893,0.24047852,-0.21966553,9.8022,2.307129,-15.496826,-38.237,0.2387833,-0.2191395,9.801292,-0.0029216409,0.00025512278,-0.0017108917,-3.0517578e-05,1.5258789e-05,0.0001373291
2019-07-01T20:09:12.433Z,0.010913119,-0.012455128,0.99385065,0.2368927,-0.2172699,9.8033905,2.230835,-15.4296875,-37.99591,0.23947142,-0.21934983,9.801272,0.0011929274,-0.00026229024,-0.0009851456,3.0517578e-05,1.5258789e-05,0.0001373291
2019-07-01T20:09:12.638Z,0.01086883,-0.01241164,0.9938615,0.23904419,-0.21679688,9.804352,2.3040771,-15.722656,-37.45117,0.23849529,-0.21861888,9.8013115,-0.0021247566,0.0011499077,-0.0006580353,-3.0517578e-05,-0.00010681152,0.0001373291
2019-07-01T20:09:12.842Z,0.010881696,-0.012390885,0.9938578,0.237854,-0.21774292,9.802444,2.5283813,-15.917969,-38.33313,0.23870923,-0.21817844,9.801317,0.0005159974,0.0012103617,0.0011606216,-9.1552734e-05,-0.00010681152,0.00032043457
2019-07-01T20:09:13.047Z,0.010861678,-0.012391338,0.99386305,0.23976135,-0.22038269,9.804596,2.885437,-15.164185,-38.346863,0.23831,-0.2182412,9.801325,-0.000987336,0.00029356778,-0.0016126633,-9.1552734e-05,7.6293945e-05,-0.00024414062
2019-07-01T20:09:13.248Z,0.010886175,-0.012407144,0.9938569,0.23760986,-0.22013855,9.802673,2.319336,-15.356445,-37.680054,0.23883267,-0.21848427,9.801308,0.0008749962,-0.00017082691,0.00084114075,-3.0517578e-05,1.5258789e-05,1.5258789e-05
2019-07-01T20:09:13.449Z,0.010854909,-0.012461072,0.9938659,0.24047852,-0.21798706,9.8033905,1.6448975,-16.056824,-37.493896,0.23832007,-0.2196229,9.801293,-0.00051137805,-0.0019082278,-0.0007123947,-9.1552734e-05,7.6293945e-05,0.00019836426
2019-07-01T20:09:13.651Z,0.0108844545,-0.012422185,0.99385756,0.23928833,-0.2172699,9.805542,2.670288,-14.752197,-37.347412,0.23882961,-0.21878298,9.801299,0.0013497174,0.0015634894,0.00079345703,0.00015258789,0.0001373291,7.6293945e-05
2019-07-01T20:09:13.860Z,0.010899381,-0.012407626,0.99385345,0.23857117,-0.21989441,9.806503,2.6260376,-15.54718,-38.563538,0.23909763,-0.21845806,9.8013,0.0006021261,0.00028315187,0.00052547455,0.00015258789,-0.00010681152,-4.5776367e-05
2019-07-01T20:09:14.082Z,0.010883141,-0.012400812,0.99385756,0.24023438,-0.21798706,9.804596,1.9287109,-15.2404785,-36.660767,0.23875879,-0.2183686,9.801311,-0.0007765442,-0.00096073747,0.0032129288,3.0517578e-05,7.6293945e-05,1.5258789e-05
2019-07-01T20:09:14.261Z,0.010909275,-0.012403027,0.99385077,0.24023438,-0.22013855,9.805069,1.927185,-15.316772,-36.601257,0.23928586,-0.2183415,9.8013,0.001573354,0.00019456446,-0.00072956085,-3.0517578e-05,1.5258789e-05,1.5258789e-05
2019-07-01T20:09:14.466Z,0.010922959,-0.012440216,0.99384785,0.23783875,-0.21894836,9.803879,2.1530151,-15.362549,-38.204956,0.239637,-0.21903168,9.801274,0.00027953088,-0.0010255426,-0.00031757355,-3.0517578e-05,-0.00010681152,7.6293945e-05
2019-07-01T20:09:14.667Z,0.010882824,-0.012442568,0.99385834,0.24047852,-0.21870422,9.804352,3.3950806,-16.371155,-38.311768,0.23883955,-0.21918592,9.8012905,-0.0015517026,-0.00016400218,-0.00085163116,-0.00021362305,1.5258789e-05,-0.00012207031
2019-07-01T20:09:14.883Z,0.010908628,-0.012438264,0.99385154,0.24215698,-0.21702576,9.804825,2.8961182,-15.176392,-36.914062,0.23934644,-0.2190322,9.801282,0.0010550618,0.0011156052,-8.392334e-05,-9.1552734e-05,0.0001373291,-0.00030517578
2019-07-01T20:09:15.071Z,0.010958986,-0.012423394,0.99383813,0.24143982,-0.21917725,9.80603,3.7597656,-15.551758,-37.55493,0.24039716,-0.21856874,9.801267,0.0022270381,0.00093616545,0.00025844574,9.1552734e-05,1.5258789e-05,0.0001373291
2019-07-01T20:09:15.271Z,0.010962882,-0.012422051,0.99383706,0.24072266,-0.21749878,9.805542,2.0507812,-15.878296,-38.079834,0.24084553,-0.21862659,9.801254,0.00023663044,0.00018946826,0.00065135956,-3.0517578e-05,7.6293945e-05,-0.00018310547
2019-07-01T20:09:15.472Z,0.010984688,-0.012428025,0.99383146,0.23832703,-0.21894836,9.806503,3.4454346,-15.2771,-38.090515,0.24058892,-0.21832709,9.801268,3.054738e-05,0.0006778091,0.0010328293,9.1552734e-05,-4.5776367e-05,0.0001373291
2019-07-01T20:09:15.679Z,0.010934681,-0.0123924855,0.993844,0.24143982,-0.21702576,9.804352,3.0212402,-15.739441,-38.468933,0.23977163,-0.2180668,9.801292,-0.0020244569,-0.00029613078,0.0003709793,3.0517578e-05,-4.5776367e-05,0.0001373291
2019-07-01T20:09:15.878Z,0.0109821325,-0.012373973,0.9938313,0.2409668,-0.21655273,9.805557,2.0706177,-15.440369,-38.142395,0.24068145,-0.21757664,9.801282,0.0013808012,0.0008806586,-0.0010318756,9.1552734e-05,-0.00021362305,-0.00012207031
2019-07-01T20:09:16.094Z,0.010991406,-0.012370817,0.9938288,0.24095154,-0.21583557,9.804596,3.012085,-15.960693,-38.13629,0.2408602,-0.21748985,9.801279,-0.00022980571,0.00030325353,-0.00019359589,-3.0517578e-05,7.6293945e-05,1.5258789e-05
2019-07-01T20:09:16.289Z,0.010994091,-0.012335363,0.9938275,0.23857117,-0.2172699,9.8022,2.619934,-15.693665,-38.591003,0.2408397,-0.21678936,9.801295,1.770258e-05,0.001511544,0.00018692017,-3.0517578e-05,1.5258789e-05,7.6293945e-05
2019-07-01T20:09:16.495Z,0.010948931,-0.012351299,0.99383956,0.24023438,-0.21870422,9.804596,2.6489258,-15.113831,-38.098145,0.23997045,-0.21722302,9.801307,-0.0012440234,-0.00094152987,-0.0016403198,3.0517578e-05,1.5258789e-05,-4.5776367e-05
2019-07-01T20:09:16.697Z,0.010949823,-0.012365142,0.99383956,0.23857117,-0.21583557,9.805313,2.0568848,-15.731812,-38.349915,0.2400172,-0.21749128,9.8013,0.00014297664,-0.00090155005,2.193451e-05,9.1552734e-05,7.6293945e-05,-0.00030517578
2019-07-01T20:09:16.897Z,0.010924616,-0.012317365,0.9938454,0.237854,-0.21607971,9.804352,2.5405884,-15.698242,-38.43994,0.23941354,-0.21662514,9.801332,-0.001163736,0.0018207282,0.000330925,-3.0517578e-05,-0.00015258789,7.6293945e-05
2019-07-01T20:09:17.101Z,0.010901876,-0.01229758,0.993851,0.23736572,-0.21702576,9.803635,2.9312134,-15.966797,-38.056946,0.23891781,-0.21629968,9.801353,-0.001389116,0.0005375743,0.0003862381,0.00021362305,0.00019836426,7.6293945e-05
2019-07-01T20:09:17.302Z,0.010858025,-0.012305602,0.99386257,0.23904419,-0.22038269,9.801727,1.5411377,-16.57257,-37.594604,0.23805816,-0.21657468,9.801368,-0.0009878576,-0.0013518482,-0.0011892319,3.0517578e-05,-4.5776367e-05,-4.5776367e-05
2019-07-01T20:09:17.508Z,0.01087081,-0.012365822,0.99386024,0.24215698,-0.2172699,9.804352,2.8671265,-15.605164,-38.056946,0.23843934,-0.21771772,9.801334,0.0005528331,-0.0026174635,-0.0012722015,-9.1552734e-05,0.0001373291,-0.00030517578
2019-07-01T20:09:17.717Z,0.010925679,-0.012378538,0.9938461,0.2400055,-0.21798706,9.800278,2.0889282,-14.923096,-38.867188,0.23956257,-0.21781838,9.801303,0.0025362521,0.00035721064,0.00042533875,3.0517578e-05,-4.5776367e-05,0.0001373291
2019-07-01T20:09:17.909Z,0.010936275,-0.012381126,0.9938434,0.23832703,-0.22206116,9.801727,2.8427124,-16.114807,-38.537598,0.23977979,-0.21784039,9.801297,0.00043930113,0.00012522936,-0.0022687912,-3.0517578e-05,1.5258789e-05,0.0
2019-07-01T20:09:18.116Z,0.010907909,-0.012451251,0.99385196,0.24023438,-0.21847534,9.80603,1.7196655,-15.968323,-38.838196,0.23935917,-0.21928807,9.801276,-0.00080651045,-0.0027561337,-0.0010232925,0.00021362305,0.0001373291,-4.5776367e-05
2019-07-01T20:09:18.318Z,0.010918356,-0.0124269035,0.9938488,0.24072266,-0.22013855,9.802429,2.2705078,-14.703369,-37.168884,0.23951718,-0.21878383,9.801283,0.0009101778,0.00012631714,0.0026540756,-3.0517578e-05,7.6293945e-05,0.0
2019-07-01T20:09:18.522Z,0.010930532,-0.012453183,0.99384606,0.2400055,-0.21774292,9.802444,1.9775391,-15.663147,-38.485718,0.23981546,-0.21926479,9.801265,0.0011092275,-0.00059111416,-0.00078582764,-3.0517578e-05,1.5258789e-05,-0.00018310547
2019-07-01T20:09:18.765Z,0.01092588,-0.012431785,0.9938469,0.23713684,-0.21751404,9.805542,2.7114868,-15.470886,-38.09967,0.23967779,-0.21885897,9.801277,-0.0006825775,0.0006725043,0.0005979538,-9.1552734e-05,1.5258789e-05,0.00016784668
2019-07-01T20:09:18.928Z,0.01090301,-0.012410751,0.99385256,0.24143982,-0.2182312,9.804352,1.8310547,-15.307617,-38.406372,0.23917672,-0.21850939,9.801298,-0.0009087473,0.00104931,0.00087833405,-3.0517578e-05,-0.00015258789,0.00022888184
2019-07-01T20:09:19.128Z,0.010930913,-0.012403023,0.99384516,0.2416687,-0.21846008,9.803635,3.3340454,-15.786743,-39.094543,0.23971832,-0.218283,9.801289,0.0006995797,0.0005952567,0.000111579895,-9.1552734e-05,7.6293945e-05,0.00016784668
2019-07-01T20:09:19.331Z,0.01094431,-0.012417509,0.9938419,0.23976135,-0.21894836,9.8033905,2.5665283,-14.962769,-39.04724,0.24001639,-0.21853007,9.801276,0.00088109076,-0.00012493134,-0.00056648254,3.0517578e-05,7.6293945e-05,4.5776367e-05
2019-07-01T20:09:19.532Z,0.010956033,-0.0124311205,0.993839,0.24334717,-0.21798706,9.805557,2.633667,-15.402222,-38.30719,0.2402792,-0.21876457,9.801266,0.0008509308,-0.00059713423,0.0009012222,-0.00015258789,1.5258789e-05,4.5776367e-05
2019-07-01T20:09:19.735Z,0.010999471,-0.012403571,0.9938272,0.24047852,-0.21917725,9.804352,2.0751953,-15.444946,-37.46338,0.2410899,-0.21810848,9.80126,0.0017032325,0.0016290247,0.0012331009,3.0517578e-05,-0.00010681152,-1.5258789e-05
2019-07-01T20:09:19.937Z,0.010998037,-0.012438584,0.9938282,0.23857117,-0.2182312,9.804825,2.6184082,-15.692139,-38.74359,0.24113445,-0.21879697,9.801244,-0.0004952997,-0.0012658089,0.00018692017,9.1552734e-05,-0.00010681152,-0.00015258789
2019-07-01T20:09:20.140Z,0.010952136,-0.012403529,0.9938396,0.23857117,-0.2182312,9.803162,3.413391,-15.855408,-38.885498,0.24014366,-0.21823563,9.801281,-0.002603948,0.0007853508,-0.0009822845,0.00015258789,-0.00015258789,-1.5258789e-05
2019-07-01T20:09:20.346Z,0.0109358225,-0.012402421,0.99384385,0.23857117,-0.22109985,9.802429,2.9342651,-15.893555,-38.041687,0.23981524,-0.21825798,9.801288,-0.00083884597,-0.00062868,-0.00018024445,-0.00015258789,1.5258789e-05,0.00010681152
2019-07-01T20:09:20.550Z,0.0109005105,-0.012443074,0.99385375,0.23832703,-0.2163086,9.804352,2.9403687,-15.74707,-38.087463,0.23919423,-0.21914816,9.801284,-0.0011755973,-0.0014045537,-0.00028133392,-9.1552734e-05,0.0001373291,0.00010681152
2019-07-01T20:09:20.749Z,0.010899474,-0.012407713,0.99385345,0.23976135,-0.21702576,9.8033905,2.720642,-15.327454,-37.91809,0.2390997,-0.21845953,9.801301,-0.0003630519,0.0017358363,-2.0980835e-05,9.1552734e-05,-0.00015258789,-1.5258789e-05
2019-07-01T20:09:20.950Z,0.010915693,-0.012379095,0.99384874,0.23976135,-0.21917725,9.803635,2.2079468,-16.01715,-37.73651,0.23936415,-0.21785623,9.801308,0.00034192204,0.0011096746,-0.0006542206,-0.00015258789,1.5258789e-05,0.00016784668
2019-07-01T20:09:21.153Z,0.0109134605,-0.012406691,0.99384975,0.23832703,-0.2172699,9.804581,2.3208618,-15.129089,-38.69171,0.23937717,-0.21840185,9.801296,0.00032810867,-0.0004953891,4.386902e-05,9.1552734e-05,-0.00010681152,0.00015258789
2019-07-01T20:09:21.361Z,0.010899304,-0.012382305,0.99385303,0.23904419,-0.21846008,9.803635,3.3584595,-15.353394,-38.327026,0.23904327,-0.21796319,9.801312,-0.0010317713,0.000514254,0.0013017654,0.00015258789,-4.5776367e-05,-9.1552734e-05
2019-07-01T20:09:21.561Z,0.0109134605,-0.012381666,0.99384934,0.2400055,-0.21702576,9.805786,2.5726318,-14.967346,-38.293457,0.23932488,-0.21791251,9.801307,0.0003696978,-0.00048677623,-0.00040721893,-0.00015258789,1.5258789e-05,-1.5258789e-05
2019-07-01T20:09:21.763Z,0.010915154,-0.0123926615,0.9938491,0.24095154,-0.2182312,9.802444,3.1814575,-15.805054,-37.95929,0.23938169,-0.21812294,9.801301,-0.0006466955,-0.0005219877,-0.000330925,-9.1552734e-05,-0.00015258789,4.5776367e-05
2019-07-01T20:09:21.971Z,0.010934569,-0.01240698,0.9938443,0.23545837,-0.21989441,9.8033905,3.5308838,-15.200806,-37.776184,0.23979968,-0.2183505,9.801286,0.000629738,-6.489456e-05,-0.0013360977,9.1552734e-05,7.6293945e-05,4.5776367e-05
2019-07-01T20:09:22.170Z,0.010882958,-0.012414781,0.99385786,0.23928833,-0.2163086,9.804596,2.1636963,-16.81366,-39.02893,0.23878428,-0.21864226,9.801305,-0.002194807,-0.0011980385,0.0008659363,-3.0517578e-05,1.5258789e-05,0.00010681152
2019-07-01T20:09:22.431Z,0.010880608,-0.012380024,0.9938579,0.24047852,-0.21606445,9.802444,2.9830933,-14.72168,-38.41095,0.23866482,-0.21796902,9.801323,-0.0001552999,0.0017167181,0.00025367737,-9.1552734e-05,1.5258789e-05,0.00016784668
2019-07-01T20:09:22.623Z,0.010907375,-0.012356984,0.9938505,0.23880005,-0.21679688,9.805069,1.6693115,-15.85083,-35.79254,0.23915175,-0.21744636,9.801322,0.0012706071,0.0011888295,-0.00046253204,3.0517578e-05,-4.5776367e-05,0.00010681152
2019-07-01T20:09:22.827Z,0.01090038,-0.012336824,0.993852,0.23857117,-0.21702576,9.806503,3.440857,-15.42511,-37.74109,0.23896983,-0.21707101,9.801334,-0.00025102496,0.00059208274,0.0020809174,-3.0517578e-05,1.5258789e-05,0.00010681152
2019-07-01T20:09:23.032Z,0.010902032,-0.0123503925,0.99385184,0.24072266,-0.21679688,9.804108,2.5390625,-15.621948,-38.952637,0.2390312,-0.21733187,9.801328,-0.00029823184,-0.00012117624,-0.0011606216,-3.0517578e-05,1.5258789e-05,0.00022888184
2019-07-01T20:09:23.234Z,0.010935915,-0.0123423645,0.99384284,0.23904419,-0.21917725,9.805542,2.2247314,-15.423584,-38.824463,0.23969164,-0.2170835,9.801317,0.0014226139,0.0006044954,0.0011396408,-9.1552734e-05,-0.00010681152,0.00016784668
2019-07-01T20:09:23.440Z,0.0109125385,-0.012391176,0.99384975,0.23976135,-0.22013855,9.805069,3.1799316,-15.803528,-38.261414,0.23932631,-0.21810095,9.801303,-0.0006249547,-0.0017035306,0.0014028549,9.1552734e-05,-0.00015258789,0.00022888184
2019-07-01T20:09:23.640Z,0.010923832,-0.012395926,0.9938469,0.23976135,-0.22038269,9.806503,3.5079956,-15.635681,-38.08899,0.23956199,-0.21816337,9.801296,-0.00036646426,-0.0007004887,-0.0004968643,-3.0517578e-05,1.5258789e-05,4.5776367e-05
2019-07-01T20:09:23.837Z,0.010924358,-0.012434353,0.99384737,0.2400055,-0.21679688,9.803879,2.7359009,-14.959717,-37.997437,0.23965274,-0.21891329,9.801277,1.360476e-05,-0.0013826191,0.00014972687,3.0517578e-05,-4.5776367e-05,4.5776367e-05
2019-07-01T20:09:24.047Z,0.010930081,-0.012412034,0.9938455,0.24095154,-0.21870422,9.803162,2.4749756,-15.339661,-38.438416,0.23972052,-0.21846142,9.801285,0.00019277632,0.0010313988,-0.00021457672,-0.00015258789,-4.5776367e-05,-1.5258789e-05
2019-07-01T20:09:24.249Z,0.010947894,-0.0124241775,0.99384105,0.23832703,-0.21966553,9.804108,1.9165039,-15.306091,-37.957764,0.24010198,-0.21865079,9.801271,0.00077839196,1.1384487e-05,-0.001748085,9.1552734e-05,-4.5776367e-05,3.0517578e-05
2019-07-01T20:09:24.450Z,0.010925846,-0.012427156,0.99384683,0.23928833,-0.21655273,9.804825,2.7618408,-16.197205,-38.02185,0.23966746,-0.21876855,9.80128,-0.0016626865,-0.0010545701,0.0005950928,0.00015258789,-0.00015258789,0.00022888184
2019-07-01T20:09:24.652Z,0.0109384805,-0.012375961,0.9938427,0.24072266,-0.2163086,9.804352,2.4780273,-15.419006,-37.475586,0.23981309,-0.21773344,9.801299,0.00034849346,0.0022080988,-0.00039577484,-9.1552734e-05,7.6293945e-05,-0.0002746582
2019-07-01T20:09:24.849Z,0.010933925,-0.012360365,0.9938437,0.23976135,-0.21989441,9.8022,2.4658203,-15.786743,-37.246704,0.23968945,-0.2174408,9.801309,1.0445714e-05,0.00094380975,-0.0009050369,3.0517578e-05,0.0001373291,-1.5258789e-05
2019-07-01T20:09:25.050Z,0.010928339,-0.012406759,0.9938459,0.237854,-0.2172699,9.804825,2.1102905,-16.462708,-37.521362,0.23967473,-0.21836303,9.80129,0.00026632845,-0.0024339706,0.00018310547,3.0517578e-05,-0.00015258789,0.00010681152
2019-07-01T20:09:25.256Z,0.010895192,-0.012368179,0.9938539,0.23880005,-0.2182312,9.804825,2.7908325,-15.541077,-37.963867,0.2389316,-0.21769808,9.801322,-0.0018807203,0.0012097657,0.00060272217,3.0517578e-05,7.6293945e-05,0.00016784668
2019-07-01T20:09:25.487Z,0.010913434,-0.012376419,0.9938493,0.23951721,-0.21774292,9.805069,2.5436401,-15.626526,-38.04779,0.23931342,-0.21780999,9.80131,0.00036999583,-0.0003502667,0.0005674362,0.00021362305,-0.00010681152,0.00010681152
2019-07-01T20:09:25.656Z,0.01090407,-0.012363026,0.9938515,0.23880005,-0.21894836,9.8029175,2.3727417,-15.782166,-38.60016,0.23909828,-0.21757337,9.80132,-0.00012862682,0.0001424104,-0.00026798248,3.0517578e-05,-0.00010681152,4.5776367e-05
2019-07-01T20:09:25.876Z,0.010904219,-0.012400149,0.9938521,0.23976135,-0.22013855,9.804596,3.0563354,-15.0894165,-37.280273,0.23917875,-0.21829884,9.801302,-0.00044173002,-0.0015380383,-0.00096797943,-9.1552734e-05,-0.00010681152,0.00016784668
2019-07-01T20:09:26.073Z,0.010916982,-0.012417635,0.99384904,0.23808289,-0.2163086,9.805069,2.307129,-15.496826,-38.237,0.23947038,-0.21860631,9.801289,0.00021415949,-0.0002719611,0.0011100769,3.0517578e-05,-4.5776367e-05,0.00016784668
2019-07-01T20:09:26.266Z,0.010903058,-0.012381615,0.9938521,0.24119568,-0.21798706,9.806274,3.9993286,-15.534973,-37.786865,0.23911685,-0.21793959,9.8013115,-0.00086919963,0.0009861588,0.0002603531,9.1552734e-05,-0.00010681152,-1.5258789e-05
2019-07-01T20:09:26.472Z,0.010941985,-0.012388195,0.993842,0.23976135,-0.22013855,9.804108,2.5405884,-15.699768,-38.363647,0.2399087,-0.21796319,9.801291,0.0011969209,-0.00041507185,0.00081539154,9.1552734e-05,-0.00015258789,4.5776367e-05
2019-07-01T20:09:26.674Z,0.010960524,-0.012386853,0.9938371,0.24095154,-0.21702576,9.804596,2.3498535,-16.366577,-38.49182,0.24027646,-0.2178869,9.801285,0.0013017356,0.0014162362,0.00058078766,-3.0517578e-05,0.0001373291,-9.1552734e-05
2019-07-01T20:09:26.876Z,0.010921832,-0.012348329,0.9938466,0.24095154,-0.21846008,9.804352,3.414917,-16.009521,-37.860107,0.23942262,-0.21723811,9.80132,-0.0018872917,0.0012412816,-0.001209259,9.1552734e-05,-0.00015258789,0.000289917
2019-07-01T20:09:27.096Z,0.010950897,-0.0123902885,0.9938397,0.23857117,-0.2172699,9.804108,3.1158447,-15.444946,-37.882996,0.24009119,-0.21798006,9.801287,0.00077715516,-0.0018388182,0.0006303787,-3.0517578e-05,1.5258789e-05,-1.5258789e-05
2019-07-01T20:09:27.291Z,0.010934459,-0.012365071,0.9938436,0.23857117,-0.21846008,9.805313,3.024292,-15.744019,-37.94098,0.23970996,-0.21753137,9.801306,-0.0004918277,0.001042366,-0.0010156631,-9.1552734e-05,-0.00010681152,0.00022888184
2019-07-01T20:09:27.497Z,0.010908636,-0.012390451,0.99385077,0.23976135,-0.22013855,9.8029175,2.571106,-14.96582,-38.67035,0.2392468,-0.21809728,9.801305,-0.001473844,-0.00077719986,0.0009174347,-9.1552734e-05,-0.00015258789,3.0517578e-05
2019-07-01T20:09:27.692Z,0.010928723,-0.012437248,0.9938463,0.24072266,-0.21751404,9.803162,3.4362793,-15.571594,-37.545776,0.23974602,-0.2189581,9.801273,0.0004107803,-0.0013537556,-0.00033664703,-9.1552734e-05,-0.00015258789,0.00010681152
2019-07-01T20:09:27.893Z,0.010939489,-0.012395184,0.9938428,0.23951721,-0.21894836,9.80722,1.6494751,-15.83252,-38.279724,0.23987338,-0.21810657,9.801289,-0.00017660856,0.0023297071,-0.0010099411,-9.1552734e-05,7.6293945e-05,0.00016784668
2019-07-01T20:09:28.098Z,0.010957281,-0.012444982,0.9938389,0.24215698,-0.22157288,9.804352,1.7196655,-16.12091,-38.038635,0.2403331,-0.21903224,9.801258,0.001022011,-0.0022345334,0.0015611649,0.00015258789,-0.00010681152,-1.5258789e-05
2019-07-01T20:09:28.301Z,0.010965516,-0.012440968,0.9938367,0.23713684,-0.21655273,9.805542,2.949524,-15.527344,-38.1958,0.24048932,-0.2189315,9.801256,0.00014358759,-0.00016404688,0.00039863586,3.0517578e-05,7.6293945e-05,0.00010681152
2019-07-01T20:09:28.507Z,0.010917406,-0.012410195,0.9938488,0.24023438,-0.21989441,9.805069,2.3788452,-15.788269,-37.771606,0.23946331,-0.21845968,9.801291,-0.00195691,0.0008111596,0.0012207031,3.0517578e-05,7.6293945e-05,-9.1552734e-05
2019-07-01T20:09:28.709Z,0.010937191,-0.012442807,0.99384415,0.23928833,-0.21846008,9.805313,3.2440186,-16.163635,-38.18512,0.23992693,-0.21904396,9.801268,0.0011836588,-0.0014899224,-0.0015821457,0.00015258789,-4.5776367e-05,0.00016784668
2019-07-01T20:09:28.911Z,0.010904917,-0.01239282,0.9938518,0.237854,-0.21440125,9.804108,2.9754639,-15.016174,-38.015747,0.2391774,-0.21815366,9.801306,-0.0018982142,0.001435712,0.00021743774,-9.1552734e-05,-0.00010681152,-1.5258789e-05
2019-07-01T20:09:29.119Z,0.01089949,-0.012365347,0.99385273,0.23880005,-0.21751404,9.802673,3.0548096,-15.087891,-37.506104,0.23901159,-0.21763112,9.801321,-5.1364303e-05,0.0016278625,-0.00016880035,0.00021362305,0.00019836426,0.00010681152
2019-07-01T20:09:29.317Z,0.010872274,-0.0123085715,0.99385893,0.237854,-0.21702576,9.806259,2.758789,-16.04309,-39.198303,0.23834914,-0.21659438,9.801361,-0.0008073747,0.001064837,-0.0012435913,9.1552734e-05,-4.5776367e-05,0.00022888184
2019-07-01T20:09:29.521Z,0.010873957,-0.012333289,0.9938589,0.23760986,-0.21679688,9.805786,2.4429321,-15.843201,-39.372253,0.23843434,-0.21707313,9.801348,-0.00019085407,-0.0010820031,0.0012483597,-3.0517578e-05,-0.0002746582,0.00016784668
2019-07-01T20:09:29.725Z,0.010882334,-0.012310002,0.9938563,0.23713684,-0.21655273,9.802429,2.191162,-14.63623,-37.38098,0.23855318,-0.21659523,9.801355,-0.000790596,0.0003696531,0.00067424774,9.1552734e-05,-0.00015258789,-9.1552734e-05
2019-07-01T20:09:29.917Z,0.010864431,-0.012316114,0.9938611,0.23713684,-0.21846008,9.802673,2.6184082,-15.690613,-38.74359,0.23820812,-0.21676297,9.80136,-0.0011465997,-0.00043837726,-0.0012979507,3.0517578e-05,1.5258789e-05,0.00022888184
2019-07-01T20:09:30.117Z,0.010831895,-0.012362658,0.9938703,0.23928833,-0.21702576,9.804825,2.6031494,-15.982056,-39.027405,0.23765485,-0.21776058,9.801351,-0.0010671765,-0.001605019,-0.0011892319,3.0517578e-05,0.0001373291,3.0517578e-05
2019-07-01T20:09:30.320Z,0.01086068,-0.012322704,0.99386215,0.23904419,-0.21678162,9.804352,3.3111572,-14.552307,-38.46588,0.23814689,-0.21690193,9.801358,0.0010727942,0.0016019046,0.00063991547,0.00015258789,1.5258789e-05,3.0517578e-05
2019-07-01T20:09:30.523Z,0.010880549,-0.012328522,0.9938571,0.23880005,-0.21870422,9.805313,2.218628,-15.72113,-38.204956,0.23855618,-0.21696217,9.801348,0.0016016513,-0.00095528364,0.00057697296,0.00015258789,7.6293945e-05,0.00016784668
2019-07-01T20:09:30.731Z,0.010867905,-0.0123409275,0.9938606,0.23857117,-0.21846008,9.806747,3.7353516,-14.241028,-37.66327,0.23832932,-0.21723878,9.801347,-0.0005814135,-0.0009096265,0.0011768341,-3.0517578e-05,-4.5776367e-05,0.00016784668
2019-07-01T20:09:30.930Z,0.0108662965,-0.012338438,0.99386096,0.23736572,-0.21679688,9.804352,2.4475098,-15.924072,-38.33008,0.23829198,-0.21719444,9.801349,0.00020007789,-3.3527613e-06,-0.00096797943,-3.0517578e-05,7.6293945e-05,4.5776367e-05
2019-07-01T20:09:31.209Z,0.010858699,-0.012351803,0.99386317,0.24023438,-0.21846008,9.80101,3.529358,-16.719055,-39.518738,0.238168,-0.21747622,9.801346,-0.00016601384,-0.00019282103,0.00014972687,3.0517578e-05,7.6293945e-05,-9.1552734e-05
2019-07-01T20:09:31.416Z,0.010865363,-0.012347142,0.9938614,0.23736572,-0.2163086,9.801956,3.4835815,-15.763855,-40.75775,0.23829149,-0.21736714,9.801345,0.0002283454,-0.0001000613,-0.0024461746,0.00015258789,7.6293945e-05,-1.5258789e-05
2019-07-01T20:09:31.539Z,0.010873015,-0.012339739,0.99385923,0.24023438,-0.2182312,9.803879,3.565979,-15.759277,-40.45868,0.238429,-0.2172018,9.801346,0.0005622059,-0.00026398897,0.000111579895,9.1552734e-05,1.5258789e-05,4.5776367e-05
2019-07-01T20:09:31.847Z,0.010896717,-0.012350037,0.9938532,0.23904419,-0.21870422,9.803162,2.6351929,-16.693115,-40.98816,0.2389242,-0.21733925,9.80133,0.0010385364,-0.00036478043,-0.0008831024,-9.1552734e-05,-0.00010681152,0.00010681152
2019-07-01T20:09:32.050Z,0.0108928885,-0.0123863155,0.9938548,0.2400055,-0.2172699,9.804108,3.4881592,-15.464783,-41.60309,0.23892342,-0.21805891,9.801314,-0.00016702712,-0.0010784715,5.6266785e-05,-9.1552734e-05,0.0001373291,-1.5258789e-05
2019-07-01T20:09:32.255Z,0.010910482,-0.0123679815,0.99384993,0.23808289,-0.21702576,9.804596,3.3294678,-15.782166,-39.69879,0.2392368,-0.21765299,9.801315,0.00094373524,0.0011492372,0.00083065033,-9.1552734e-05,-4.5776367e-05,0.00015258789
2019-07-01T20:09:32.474Z,0.010895858,-0.012372149,0.9938538,0.24119568,-0.21702576,9.803635,3.5629272,-16.137695,-38.949585,0.23895317,-0.21777391,9.801319,-0.0006981641,-0.0001475066,0.0015125275,-3.0517578e-05,-0.0002746582,0.000289917
2019-07-01T20:09:32.665Z,0.010931433,-0.012358272,0.9938443,0.23713684,-0.21989441,9.801712,1.8417358,-15.090942,-38.13629,0.23963529,-0.21740663,9.8013115,0.000541687,0.00067709386,-0.0012140274,9.1552734e-05,7.6293945e-05,0.00022888184
2019-07-01T20:09:32.870Z,0.010884774,-0.012387824,0.99385697,0.2400055,-0.21751404,9.804596,2.6855469,-15.826416,-39.45465,0.23876433,-0.21811028,9.801316,-0.0014496744,-0.0012644678,-0.00049495697,-0.00015258789,1.5258789e-05,0.00022888184
2019-07-01T20:09:33.075Z,0.010918319,-0.0123921735,0.99384826,0.23880005,-0.2182312,9.803162,2.848816,-15.969849,-38.432312,0.23944396,-0.21810485,9.8013,0.0009833425,0.0006374717,-6.67572e-06,-9.1552734e-05,-0.00015258789,0.00047302246
2019-07-01T20:09:33.280Z,0.010906423,-0.012383278,0.99385124,0.23880005,-0.21702576,9.805542,2.7801514,-15.679932,-38.520813,0.23918761,-0.21796304,9.80131,5.8203936e-05,0.00025886297,-0.0003786087,3.0517578e-05,-4.5776367e-05,-9.1552734e-05
2019-07-01T20:09:33.484Z,0.010885724,-0.012340068,0.9938559,0.23760986,-0.21798706,9.805542,3.0258179,-15.745544,-37.789917,0.23868367,-0.21717395,9.801339,-0.001141578,0.001171127,0.0021371841,-3.0517578e-05,7.6293945e-05,0.00010681152
2019-07-01T20:09:33.691Z,0.010883033,-0.012362638,0.99385697,0.23760986,-0.21894836,9.804596,2.394104,-15.26947,-38.57422,0.238677,-0.2176225,9.80133,5.324185e-05,-0.0005450398,0.00015544891,0.00015258789,1.5258789e-05,0.00010681152
2019-07-01T20:09:33.895Z,0.010835907,-0.012355525,0.9938692,0.23928833,-0.21487427,9.804352,2.0645142,-15.586853,-38.171387,0.2377202,-0.21761034,9.801353,-0.0016131252,-0.00078706443,-6.771088e-05,9.1552734e-05,0.0001373291,0.00016784668
2019-07-01T20:09:34.099Z,0.010874902,-0.012315389,0.99385834,0.23857117,-0.21798706,9.8029175,2.708435,-15.6188965,-37.75177,0.2384159,-0.2167206,9.801356,0.0017386228,0.0016747713,0.00091838837,3.0517578e-05,-4.5776367e-05,0.000289917
2019-07-01T20:09:34.304Z,0.010865378,-0.012337376,0.9938612,0.23928833,-0.21751404,9.8022,2.6260376,-15.696716,-37.838745,0.23827139,-0.21717614,9.801349,-0.0002526194,-0.0012255162,-0.0013132095,9.1552734e-05,0.00019836426,-9.1552734e-05
2019-07-01T20:09:34.510Z,0.010871719,-0.012349779,0.9938597,0.237854,-0.21917725,9.805786,2.5772095,-14.97345,-37.61444,0.238424,-0.21740156,9.80134,0.0010431558,-0.00053985417,-0.0011978149,3.0517578e-05,-0.00015258789,0.00022888184
2019-07-01T20:09:34.715Z,0.01088835,-0.012362982,0.9938556,0.23880005,-0.21870422,9.802444,2.6275635,-15.548706,-38.412476,0.23878399,-0.2176149,9.801327,-0.0005208105,-0.0007870048,0.001121521,3.0517578e-05,-3.0517578e-05,-0.00015258789
2019-07-01T20:09:34.839Z,0.010877399,-0.0123767825,0.9938587,0.23857117,-0.21702576,9.804596,2.7114868,-15.470886,-38.02185,0.2385939,-0.21791427,9.801326,0.00014275312,-0.00073206425,-5.054474e-05,9.1552734e-05,0.0001373291,0.00010681152
2019-07-01T20:09:35.042Z,0.010864353,-0.012360937,0.99386185,0.237854,-0.22013855,9.804352,2.218628,-15.79895,-37.76703,0.23830009,-0.2176396,9.801339,-0.0002836883,0.00043042004,0.0002784729,-3.0517578e-05,7.6293945e-05,-9.1552734e-05
2019-07-01T20:09:35.245Z,0.010845367,-0.012413925,0.99386764,0.24024963,-0.2182312,9.801956,2.6855469,-16.055298,-38.21869,0.23803101,-0.21872672,9.80132,-1.5333295e-05,-0.002067238,2.002716e-05,-3.0517578e-05,1.5258789e-05,0.00016784668
2019-07-01T20:09:35.449Z,0.010878751,-0.012395811,0.99385864,0.23783875,-0.21702576,9.805313,1.8310547,-15.536499,-37.17041,0.2386606,-0.21828267,9.801315,0.0015388131,0.0010587126,-0.0014219284,-3.0517578e-05,0.00019836426,0.00010681152
2019-07-01T20:09:35.647Z,0.01085827,-0.012368773,0.9938636,0.23976135,-0.21559143,9.800278,2.1713257,-15.074158,-37.467957,0.23819482,-0.21780919,9.801337,-0.00040589273,0.0008289963,2.861023e-06,0.00033569336,-4.5776367e-05,0.00021362305
2019-07-01T20:09:35.853Z,0.010896478,-0.012314547,0.9938527,0.237854,-0.21917725,9.80484,1.9836426,-15.516663,-38.4552,0.23884535,-0.21664599,9.801348,0.0008816123,0.0010857582,-0.0012760162,3.0517578e-05,1.5258789e-05,0.0002746582
2019-07-01T20:09:36.049Z,0.010870746,-0.012334589,0.99385977,0.24072266,-0.21846008,9.804108,2.684021,-14.38446,-37.724304,0.23837289,-0.21710719,9.801349,-0.0005798042,-0.0010685176,0.0021772385,-0.00015258789,1.5258789e-05,-1.5258789e-05
2019-07-01T20:09:36.256Z,0.010898969,-0.012383066,0.99385315,0.23904419,-0.21606445,9.8022,2.5756836,-14.970398,-37.99286,0.23903817,-0.217979,9.801313,0.0013823062,-0.0009164363,-0.00030231476,3.0517578e-05,1.5258789e-05,0.00010681152
2019-07-01T20:09:36.464Z,0.010888647,-0.012351082,0.99385536,0.23808289,-0.2172699,9.803879,3.3294678,-15.934753,-38.822937,0.23876508,-0.21738142,9.801332,-0.0002452135,0.0008753985,-0.00052165985,0.00015258789,0.0001373291,0.00016784668
2019-07-01T20:09:36.669Z,0.0109001035,-0.012344417,0.99385226,0.23904419,-0.21894836,9.801239,2.720642,-15.17334,-38.568115,0.23898014,-0.21722023,9.801331,0.00025887787,-0.00072200596,-0.00019168854,0.00021362305,-4.5776367e-05,0.00016784668
2019-07-01T20:09:36.872Z,0.010880569,-0.012336794,0.9938572,0.2368927,-0.21679688,9.805786,3.1860352,-15.733337,-38.0188,0.23857383,-0.21712387,9.801344,-0.00052668154,-0.000113502145,-0.0010995865,-9.1552734e-05,7.6293945e-05,4.5776367e-05
2019-07-01T20:09:37.062Z,0.0108608175,-0.012353577,0.9938626,0.24072266,-0.21702576,9.802444,2.3773193,-15.632629,-38.798523,0.23821403,-0.21750519,9.801343,-0.00040619075,-0.00019559264,0.0008659363,-9.1552734e-05,7.6293945e-05,0.00016784668
2019-07-01T20:09:37.267Z,0.010883281,-0.012362139,0.9938569,0.237854,-0.21870422,9.8033905,2.2979736,-15.487671,-39.518738,0.23868091,-0.2176121,9.80133,0.0010268837,0.00014689565,0.0005788803,-3.0517578e-05,7.6293945e-05,0.00016784668
2019-07-01T20:09:37.464Z,0.010867027,-0.0123679675,0.99386126,0.23808289,-0.21846008,9.804596,3.1906128,-15.432739,-38.864136,0.23836818,-0.21776986,9.801334,-0.00056259334,-0.00017297268,-0.00040721893,-3.0517578e-05,1.5258789e-05,-1.5258789e-05
2019-07-01T20:09:37.667Z,0.010866405,-0.012384421,0.9938617,0.24119568,-0.21678162,9.800766,2.3117065,-15.348816,-38.5849,0.23839006,-0.21809323,9.801326,0.00035102665,-0.000557065,0.0008459091,3.0517578e-05,1.5258789e-05,-1.5258789e-05
2019-07-01T20:09:37.876Z,0.010892223,-0.012351551,0.9938544,0.23808289,-0.21679688,9.799805,2.1087646,-14.561462,-38.342285,0.23883754,-0.21738099,9.8013315,0.0013639927,0.0013464242,-0.0021572113,-0.00015258789,0.0001373291,4.5776367e-05
2019-07-01T20:09:38.097Z,0.010883866,-0.012296302,0.9938557,0.23736572,-0.2163086,9.80484,3.0044556,-15.879822,-39.326477,0.2385552,-0.21632323,9.801361,0.0001925677,0.001969397,0.0032377243,0.0002746582,1.5258789e-05,0.00010681152
2019-07-01T20:09:38.288Z,0.010879897,-0.012317247,0.9938571,0.23976135,-0.21846008,9.801483,2.4002075,-15.19928,-38.256836,0.23851956,-0.21674345,9.8013525,-3.9488077e-06,-0.0011931211,0.00024318695,-9.1552734e-05,-4.5776367e-05,0.00010681152
2019-07-01T20:09:38.493Z,0.010899965,-0.012343517,0.99385226,0.23928833,-0.21870422,9.8022,2.7038574,-15.614319,-38.430786,0.23897551,-0.217203,9.8013315,0.00028014183,-0.00051021576,-0.0019054413,-9.1552734e-05,1.5258789e-05,0.00022888184
2019-07-01T20:09:38.699Z,0.010903739,-0.012375446,0.9938518,0.23904419,-0.21655273,9.8022,3.1158447,-15.444946,-37.882996,0.23911761,-0.21781713,9.801314,0.0006066114,-0.0010974109,0.00032520294,3.0517578e-05,-4.5776367e-05,0.00016784668
2019-07-01T20:09:38.899Z,0.010889789,-0.012365966,0.9938553,0.23808289,-0.21655273,9.801239,3.1585693,-16.23993,-38.575745,0.238819,-0.2176694,9.801326,-0.0005274266,0.00043182075,-0.0001077652,0.00015258789,-0.00015258789,0.00016784668
2019-07-01T20:09:39.106Z,0.010893677,-0.012305377,0.9938533,0.23736572,-0.21487427,9.802673,2.2659302,-14.778137,-37.335205,0.23877022,-0.21647422,9.8013525,-0.00070376694,0.0018589795,-0.0015058517,-3.0517578e-05,0.0001373291,0.00016784668
2019-07-01T20:09:39.306Z,0.010856897,-0.0123075675,0.9938629,0.23832703,-0.21655273,9.803635,2.4749756,-15.263367,-38.876343,0.23803969,-0.21661614,9.801367,-0.0009204,-0.00039364398,0.00010967255,-3.0517578e-05,7.6293945e-05,0.00010681152
2019-07-01T20:09:39.512Z,0.010878377,-0.012281991,0.9938569,0.23880005,-0.21534729,9.801239,2.1148682,-16.087341,-39.030457,0.23841563,-0.21605821,9.801371,0.0006005913,0.0014534295,0.00087070465,-9.1552734e-05,-4.5776367e-05,0.00010681152
2019-07-01T20:09:39.710Z,0.010866435,-0.012290852,0.9938601,0.23713684,-0.21679688,9.8033905,3.2409668,-15.931702,-39.801025,0.23819548,-0.21626364,9.801372,-0.00036679208,-0.00026610494,-0.00021266937,3.0517578e-05,1.5258789e-05,0.00010681152
2019-07-01T20:09:39.916Z,0.010856997,-0.012303667,0.9938628,0.2359314,-0.21894836,9.804108,1.9683838,-15.882874,-38.30414,0.23803356,-0.21653962,9.801369,-0.00022061169,-0.00044879317,0.0012931824,-0.00015258789,7.6293945e-05,-3.0517578e-05
2019-07-01T20:09:40.111Z,0.01080541,-0.0123303635,0.9938767,0.23832703,-0.21606445,9.801483,3.0670166,-14.718628,-38.03711,0.23705819,-0.21720038,9.801378,-0.0014162213,-0.0007452071,0.00038433075,-3.0517578e-05,-4.5776367e-05,0.000289917
2019-07-01T20:09:40.320Z,0.010839089,-0.012338374,0.99386805,0.237854,-0.2172699,9.805786,2.166748,-15.071106,-37.99591,0.23774803,-0.21726644,9.80136,0.0007878393,-0.00021532178,-0.00085926056,-3.0517578e-05,-4.5776367e-05,-9.1552734e-05
2019-07-01T20:09:40.522Z,0.010837712,-0.012310395,0.993868,0.23640442,-0.21679688,9.8029175,2.0385742,-16.169739,-38.28888,0.23766217,-0.21672307,9.8013735,0.0001424998,0.0014055222,0.0011873245,-9.1552734e-05,0.0001373291,3.0517578e-05
2019-07-01T20:09:40.721Z,0.0108215865,-0.012327124,0.99387246,0.23951721,-0.2163086,9.801956,2.6351929,-15.403748,-38.157654,0.23737474,-0.21709354,9.801373,-0.00052540004,-0.0006097406,-0.0004892349,-3.0517578e-05,1.5258789e-05,0.00010681152
2019-07-01T20:09:40.927Z,0.010825994,-0.012308096,0.993871,0.23712158,-0.21583557,9.801727,2.545166,-15.629578,-37.898254,0.23742318,-0.21670964,9.80138,0.00062425435,0.0011505783,-0.00064373016,-0.0002746582,1.5258789e-05,0.00022888184
2019-07-01T20:09:41.131Z,0.010855317,-0.012331526,0.9938637,0.23928833,-0.21894836,9.803879,2.305603,-15.646362,-37.739563,0.2380581,-0.21708885,9.801356,0.00070749223,0.0003233701,-0.00010108948,-3.0517578e-05,-0.00010681152,0.0004119873
2019-07-01T20:09:41.331Z,0.010846069,-0.012363239,0.9938666,0.23928833,-0.2182312,9.801483,2.1591187,-15.292358,-37.81433,0.23793939,-0.21773382,9.801345,-0.0001309067,-0.001401782,0.0008878708,3.0517578e-05,-0.00010681152,0.00010681152
2019-07-01T20:09:41.532Z,0.010883298,-0.012362756,0.9938569,0.23664856,-0.21942139,9.803162,2.6489258,-15.036011,-38.383484,0.23868254,-0.21762411,9.80133,0.0012930483,0.00038148463,-0.0013179779,9.1552734e-05,-4.5776367e-05,0.00016784668
2019-07-01T20:09:41.733Z,0.010845248,-0.012394744,0.9938674,0.2359314,-0.2172699,9.801483,2.5863647,-14.677429,-37.93335,0.23798868,-0.21835203,9.801331,-0.0015843213,-0.0017724633,-0.0011949539,-3.0517578e-05,7.6293945e-05,4.5776367e-05
2019-07-01T20:09:41.943Z,0.010812277,-0.012364862,0.9938755,0.23928833,-0.21559143,9.8033905,1.876831,-16.030884,-38.783264,0.23726733,-0.21785647,9.801359,-0.0011179298,0.0010988414,0.00095176697,-3.0517578e-05,7.6293945e-05,0.00010681152
2019-07-01T20:09:42.142Z,0.01083427,-0.01234275,0.9938694,0.23880005,-0.21846008,9.801727,3.2684326,-15.72876,-37.646484,0.23766086,-0.21736497,9.80136,0.0011053383,0.0013314784,0.0006341934,-3.0517578e-05,0.0001373291,0.00016784668
2019-07-01T20:09:42.349Z,0.010848221,-0.01234089,0.9938657,0.23951721,-0.21463013,9.8029175,2.8457642,-16.117859,-38.009644,0.23793581,-0.21729104,9.801354,0.0010787398,4.8220158e-05,-0.00037574768,3.0517578e-05,-4.5776367e-05,0.00022888184
2019-07-01T20:09:42.548Z,0.010881185,-0.012326729,0.9938569,0.23713684,-0.21966553,9.804108,1.6326904,-16.122437,-38.79242,0.23856512,-0.21692537,9.801348,0.0006944686,0.0006429106,-8.392334e-05,3.0517578e-05,-0.00010681152,0.00016784668
2019-07-01T20:09:42.753Z,0.0108611975,-0.012343713,0.9938624,0.23713684,-0.2141571,9.801712,2.281189,-16.233826,-37.55493,0.23820105,-0.21731131,9.801348,-0.0008710474,-0.0011161715,0.00057315826,3.0517578e-05,-0.00010681152,0.00016784668
2019-07-01T20:09:42.952Z,0.010846302,-0.012293322,0.99386543,0.23449707,-0.21655273,9.804825,2.3834229,-15.791321,-37.24518,0.23779824,-0.21636613,9.801378,-0.0011930764,0.0020043552,0.0007123947,-3.0517578e-05,7.6293945e-05,4.5776367e-05
2019-07-01T20:09:43.157Z,0.010793585,-0.0122903185,0.99387914,0.23857117,-0.21678162,9.805557,2.9159546,-14.66217,-37.187195,0.23673841,-0.2164492,9.801403,-0.00181669,-5.9321523e-05,0.00047397614,3.0517578e-05,-4.5776367e-05,0.00010681152
2019-07-01T20:09:43.359Z,0.0108293295,-0.012294213,0.9938699,0.23832703,-0.21559143,9.800278,2.4795532,-15.26947,-38.124084,0.23746091,-0.21642925,9.801386,0.0012864172,-7.542968e-05,0.00031661987,-3.0517578e-05,7.6293945e-05,0.00022888184
2019-07-01T20:09:43.561Z,0.010838413,-0.012300247,0.99386764,0.23474121,-0.2172699,9.801239,2.8015137,-15.397644,-37.257385,0.23765503,-0.21652278,9.801379,0.0008876771,-4.0233135e-06,-0.0020303726,-9.1552734e-05,1.5258789e-05,0.000289917
2019-07-01T20:09:43.769Z,0.010784315,-0.0122999335,0.9938817,0.23832703,-0.2172699,9.8022,3.1967163,-15.515137,-37.67395,0.23657314,-0.21666208,9.801401,-0.0023353845,-0.00010563433,-0.0010356903,-3.0517578e-05,-4.5776367e-05,0.00016784668
2019-07-01T20:09:43.969Z,0.010815541,-0.012303911,0.99387366,0.23976135,-0.21751404,9.803879,2.5634766,-15.112305,-38.69934,0.23720552,-0.21665592,9.801386,0.0013430119,0.0005968958,0.0005950928,-9.1552734e-05,7.6293945e-05,0.00010681152
2019-07-01T20:09:44.167Z,0.010852273,-0.012336855,0.9938646,0.237854,-0.21702576,9.801712,1.8386841,-15.315247,-37.504578,0.23800838,-0.21720125,9.801355,0.0019532442,-0.0014629364,0.001663208,3.0517578e-05,0.0001373291,0.00016784668
2019-07-01T20:09:44.396Z,0.010843786,-0.01232551,0.9938666,0.23857117,-0.21751404,9.8022,3.199768,-15.365601,-38.172913,0.23781513,-0.21700229,9.801365,0.0014385134,-0.00023595989,-0.00012111664,-9.1552734e-05,1.5258789e-05,0.00022888184
2019-07-01T20:09:44.574Z,0.010847356,-0.012324946,0.99386567,0.23857117,-0.21655273,9.801956,2.6794434,-16.049194,-38.970947,0.23788527,-0.21698163,9.801363,-4.9486756e-05,0.00044552982,-0.0013484955,-9.1552734e-05,-0.00010681152,4.5776367e-05
2019-07-01T20:09:44.770Z,0.010873816,-0.012347414,0.9938592,0.23832703,-0.21559143,9.801239,2.3086548,-15.574646,-37.8006,0.23846103,-0.21734971,9.801342,0.0005657971,-0.0003774166,-9.8228455e-05,9.1552734e-05,-0.00010681152,0.00010681152
2019-07-01T20:09:44.971Z,0.010866807,-0.012302272,0.99386024,0.23880005,-0.22038269,9.802673,2.3590088,-16.226196,-37.78534,0.2382267,-0.2164859,9.801365,-0.00063477457,0.0013838261,9.6321106e-05,0.00033569336,1.5258789e-05,0.00022888184
2019-07-01T20:09:45.181Z,0.010870223,-0.012347404,0.99386007,0.23617554,-0.21678162,9.802444,2.7801514,-15.679932,-38.597107,0.23838918,-0.21735919,9.801343,0.0006392449,-0.0030091256,-0.0002632141,-3.0517578e-05,7.6293945e-05,0.00010681152
2019-07-01T20:09:45.381Z,0.010838294,-0.012322689,0.993868,0.23951721,-0.21559143,9.8029175,2.5558472,-15.257263,-38.879395,0.23769945,-0.21696189,9.801368,-0.0010715723,0.0006721914,0.00045204163,0.00015258789,1.5258789e-05,0.00010681152
2019-07-01T20:09:45.583Z,0.010872535,-0.01230567,0.9938588,0.23857117,-0.21798706,9.799332,2.8549194,-15.74707,-38.990784,0.23834832,-0.21653695,9.801362,0.0011423081,0.0004966557,0.00046253204,3.0517578e-05,-4.5776367e-05,0.00022888184
2019-07-01T20:09:45.799Z,0.010871306,-0.012312946,0.99385923,0.23928833,-0.21607971,9.8029175,3.2485962,-16.015625,-38.383484,0.2383389,-0.2166825,9.801358,-9.313226e-06,-0.00034560263,-0.0024089813,3.0517578e-05,1.5258789e-05,4.5776367e-05
2019-07-01T20:09:46.015Z,0.010899311,-0.012316201,0.99385196,0.23713684,-0.21702576,9.804352,2.632141,-15.551758,-37.809753,0.23890541,-0.21667066,9.801345,0.0005967319,-0.0003414303,0.0014276505,-3.0517578e-05,-0.00010681152,0.00010681152
2019-07-01T20:09:46.202Z,0.010851159,-0.012320838,0.99386466,0.2400055,-0.21798706,9.803162,2.6367188,-15.405273,-37.930298,0.23795272,-0.21689108,9.801364,-0.0018090755,-0.00034974515,0.0014305115,-3.0517578e-05,1.5258789e-05,0.00010681152
2019-07-01T20:09:46.402Z,0.010892913,-0.012342411,0.9938541,0.23951721,-0.2172699,9.805542,2.2460938,-15.063477,-38.22174,0.23883225,-0.2172004,9.801335,0.0018479824,-0.00027507544,0.0008029938,-3.0517578e-05,-4.5776367e-05,0.00035095215
2019-07-01T20:09:46.612Z,0.010907015,-0.012367043,0.99385077,0.24191284,-0.21679688,9.805069,2.6290894,-15.550232,-38.186646,0.23916553,-0.21764399,9.801317,0.0005405992,-0.0007658452,0.0010156631,3.0517578e-05,-0.00015258789,0.00035095215
2019-07-01T20:09:46.808Z,0.010975475,-0.012334407,0.99383235,0.23928833,-0.21343994,9.803635,2.3849487,-15.336609,-39.492798,0.24046564,-0.21682101,9.801303,0.0020905584,0.0015402883,0.0014743805,3.0517578e-05,-0.00015258789,0.000289917
2019-07-01T20:09:47.014Z,0.010963057,-0.012268827,0.9938345,0.23951721,-0.21774292,9.803879,3.692627,-15.110779,-38.368225,0.24008037,-0.21557233,9.801341,-0.0013475567,0.0019486248,-0.00045108795,9.1552734e-05,7.6293945e-05,0.000289917
2019-07-01T20:09:47.215Z,0.010934863,-0.012315643,0.99384266,0.23904419,-0.21655273,9.801239,2.3773193,-15.786743,-37.997437,0.23961478,-0.21656385,9.801331,-0.0003902316,-0.0018385798,-0.0003042221,-9.1552734e-05,7.6293945e-05,0.00022888184
2019-07-01T20:09:47.416Z,0.010917617,-0.0123030245,0.99384695,0.24047852,-0.21679688,9.805542,4.4281006,-16.209412,-40.734863,0.23924376,-0.21636367,9.801344,-0.00071389973,0.0008096099,-0.0017976761,-3.0517578e-05,1.5258789e-05,0.00010681152
2019-07-01T20:09:47.618Z,0.010924199,-0.012332278,0.99384576,0.23928833,-0.21655273,9.801956,3.4439087,-15.122986,-39.115906,0.23943637,-0.21691787,9.801326,0.00073578954,-0.001012817,0.00166893,-3.0517578e-05,1.5258789e-05,9.1552734e-05
2019-07-01T20:09:47.917Z,0.010924001,-0.012295203,0.99384516,0.23640442,-0.21774292,9.803864,3.1738281,-15.797424,-39.01367,0.239355,-0.21619351,9.801345,-0.00036095083,0.0011204034,-0.0009536743,3.0517578e-05,7.6293945e-05,-1.5258789e-05
2019-07-01T20:09:48.123Z,0.010877291,-0.01233272,0.993858,0.23928833,-0.21559143,9.803879,3.439331,-15.270996,-38.993835,0.23849979,-0.21705301,9.801347,-0.0014128089,-0.0013617128,-4.7683716e-06,-9.1552734e-05,1.5258789e-05,0.00016784668
2019-07-01T20:09:48.328Z,0.010882733,-0.012309987,0.9938562,0.23760986,-0.21534729,9.801712,2.8289795,-14.66217,-37.86316,0.23856112,-0.21659388,9.801355,0.0001912415,0.0012898892,-0.00015354156,-3.0517578e-05,-0.00010681152,0.000289917
2019-07-01T20:09:48.533Z,0.010879759,-0.012282347,0.99385655,0.23664856,-0.21846008,9.804352,3.4362793,-15.419006,-38.420105,0.23844399,-0.21606146,9.80137,-0.00040118396,0.0012235343,-0.00058841705,3.0517578e-05,-0.00010681152,0.0004119873
2019-07-01T20:09:48.633Z,0.010849157,-0.012333016,0.9938654,0.23736572,-0.2172699,9.804596,3.1051636,-15.583801,-38.667297,0.2379381,-0.21713457,9.801358,-0.0013443977,-0.0022367835,0.0012073517,-3.0517578e-05,1.5258789e-05,0.00033569336
2019-07-01T20:09:48.833Z,0.010826078,-0.012325217,0.9938713,0.23713684,-0.21511841,9.802673,2.4719238,-15.336609,-38.815308,0.23746057,-0.21704419,9.801373,-0.0008723289,0.00030244887,0.0004901886,-0.00015258789,1.5258789e-05,0.000289917
2019-07-01T20:09:49.056Z,0.010833072,-0.012298919,0.993869,0.237854,-0.21798706,9.801956,3.3798218,-14.99176,-37.72583,0.2375455,-0.21651119,9.801382,-0.00023405254,0.0016863793,-0.00045871735,-3.0517578e-05,-4.5776367e-05,0.00010681152
2019-07-01T20:09:49.239Z,0.010828597,-0.012324321,0.99387056,0.23904419,-0.21559143,9.804596,1.7471313,-15.385437,-38.720703,0.23750903,-0.2170199,9.801372,3.2663345e-05,-0.0009048879,0.0011291504,-9.1552734e-05,0.0001373291,0.00016784668
2019-07-01T20:09:49.439Z,0.010839236,-0.012308096,0.9938675,0.23808289,-0.21702576,9.803635,2.770996,-16.053772,-37.615967,0.23768784,-0.21667401,9.801374,0.0010735542,0.00087367,-0.0024461746,9.1552734e-05,0.0001373291,0.00022888184
2019-07-01T20:09:49.651Z,0.010868975,-0.0123319635,0.9938602,0.24095154,-0.21798706,9.803879,2.4642944,-15.711975,-37.45575,0.238332,-0.21706064,9.801351,0.0013825893,-0.0008838475,0.0006055832,9.1552734e-05,-4.5776367e-05,0.00010681152
2019-07-01T20:09:49.848Z,0.010891132,-0.012323726,0.9938542,0.23832703,-0.21606445,9.804596,1.81427,-15.673828,-38.482666,0.23875766,-0.21683985,9.801345,0.0011899918,9.551644e-05,0.0008764267,-3.0517578e-05,-0.00010681152,0.00035095215
2019-07-01T20:09:50.049Z,0.010890788,-0.012311943,0.9938541,0.23857117,-0.21702576,9.802673,2.31781,-15.582275,-36.517334,0.23872618,-0.21661039,9.801351,-0.0004580766,0.00035525858,0.00010871887,-9.1552734e-05,1.5258789e-05,0.00022888184
2019-07-01T20:09:50.252Z,0.010891858,-0.012333399,0.9938542,0.24047852,-0.21702576,9.802673,3.288269,-15.1397705,-38.206482,0.23879236,-0.21702702,9.80134,-4.0605664e-05,-0.0001989603,-0.00087833405,-3.0517578e-05,-4.5776367e-05,0.000289917
2019-07-01T20:09:50.458Z,0.010940705,-0.012341973,0.9938416,0.24215698,-0.2172699,9.803162,2.4169922,-16.734314,-37.74109,0.23978655,-0.21706289,9.801314,0.0016055554,8.031726e-05,-0.000102996826,-3.0517578e-05,-0.00021362305,0.0005187988
2019-07-01T20:09:50.659Z,0.010954282,-0.012365333,0.9938384,0.23857117,-0.21487427,9.8033905,3.062439,-16.532898,-38.858032,0.2405935,-0.21769525,9.801281,0.0005668998,-1.5735626e-05,-0.0009908676,-9.1552734e-05,-0.00033569336,0.00039672852
2019-07-01T20:09:50.875Z,0.010941295,-0.0123323845,0.9938413,0.23713684,-0.21679688,9.803879,2.0980835,-14.779663,-38.38501,0.23977828,-0.2168738,9.801318,-0.002677068,0.0017876178,0.00014209747,0.00015258789,-0.00021362305,0.000289917
2019-07-01T20:09:51.070Z,0.010927573,-0.012310551,0.9938445,0.23832703,-0.21511841,9.800766,2.3452759,-14.99939,-36.325073,0.23945843,-0.21648395,9.801335,-0.0011755377,0.00021526217,0.0007362366,-9.1552734e-05,-4.5776367e-05,0.00035095215
2019-07-01T20:09:51.275Z,0.0108968895,-0.012297724,0.9938523,0.23951721,-0.21559143,9.8033905,3.2089233,-15.06958,-38.641357,0.23881845,-0.21631594,9.801355,-0.001476869,0.00074639916,-0.0015802383,9.1552734e-05,-0.00015258789,0.00010681152
2019-07-01T20:09:51.532Z,0.010924113,-0.012273974,0.9938448,0.23736572,-0.2163086,9.804352,3.440857,-15.42511,-37.74109,0.23931289,-0.21577813,9.801355,0.00064632297,0.0009455979,0.0018177032,-9.1552734e-05,-0.00010681152,0.00035095215
2019-07-01T20:09:51.722Z,0.010894701,-0.012292626,0.9938528,0.23783875,-0.21702576,9.80101,2.8427124,-14.5980835,-36.567688,0.23876406,-0.21622215,9.801358,-0.0016724318,-0.0005185306,-5.2452087e-05,-0.00015258789,7.6293945e-05,0.00035095215
2019-07-01T20:09:51.928Z,0.010883251,-0.012319299,0.99385625,0.24119568,-0.21942139,9.804825,3.2531738,-16.020203,-37.85553,0.23859091,-0.21677455,9.801351,0.00017780066,-0.00046688318,-0.0011539459,-9.1552734e-05,1.5258789e-05,0.00010681152
2019-07-01T20:09:52.136Z,0.010914534,-0.012374028,0.9938489,0.24047852,-0.21702576,9.8033905,2.7359009,-14.959717,-37.997437,0.23933043,-0.21776028,9.801311,0.001347974,-0.001620844,0.0009841919,0.00015258789,-4.5776367e-05,0.00010681152
2019-07-01T20:09:52.330Z,0.010933476,-0.01235293,0.9938437,0.23880005,-0.21511841,9.802673,2.871704,-15.608215,-37.60681,0.23966494,-0.21729665,9.801312,0.00028423965,0.0003219396,0.0009803772,9.1552734e-05,-0.0002746582,0.00015258789
2019-07-01T20:09:52.534Z,0.010945508,-0.012307417,0.99383974,0.23808289,-0.21846008,9.801239,2.4627686,-15.6311035,-38.272095,0.23981033,-0.21637425,9.80133,-0.0008045286,0.0015346259,-0.0014152527,-9.1552734e-05,-0.00015258789,0.00010681152
2019-07-01T20:09:52.737Z,0.010918127,-0.012353289,0.99384767,0.23641968,-0.2182312,9.803635,2.1499634,-15.512085,-37.705994,0.23935893,-0.21734509,9.801319,-0.0010685474,-0.0015700012,-0.00014591217,3.0517578e-05,1.5258789e-05,0.00022888184
2019-07-01T20:09:52.941Z,0.010870006,-0.012363426,0.9938604,0.24024963,-0.21751404,9.802444,2.4658203,-15.635681,-37.96997,0.23841827,-0.21767305,9.801335,-0.002279535,-0.0005245656,6.9618225e-05,-9.1552734e-05,-0.00015258789,0.00010681152
2019-07-01T20:09:53.143Z,0.01090025,-0.012350714,0.9938523,0.24119568,-0.21606445,9.801956,2.2949219,-15.789795,-38.29651,0.23899625,-0.21734297,9.801329,0.0009813607,0.00081560016,-0.00074481964,-9.1552734e-05,0.0001373291,-1.5258789e-05
2019-07-01T20:09:53.348Z,0.01093057,-0.012362958,0.99384457,0.23832703,-0.21846008,9.803162,1.9851685,-15.519714,-38.002014,0.23962784,-0.21750058,9.80131,0.0017837435,2.7433038e-05,-2.002716e-05,-0.00015258789,-4.5776367e-05,0.00022888184
2019-07-01T20:09:53.545Z,0.0109026525,-0.012365033,0.9938519,0.23976135,-0.21751404,9.81369,3.7704468,-15.180969,-38.31024,0.23907414,-0.21761645,9.80132,-0.0012536496,0.00013291836,0.0004682541,0.0008239746,-0.0005340576,0.00010681152
2019-07-01T20:09:53.768Z,0.010965845,-0.012373703,0.9938355,0.23640442,-0.21536255,9.79071,2.7938843,-15.390015,-38.311768,0.24035531,-0.21761538,9.801289,0.0015235096,0.00037626922,-1.9073486e-06,-0.0007019043,0.00019836426,0.000289917
2019-07-01T20:09:53.963Z,0.010860273,-0.0123331845,0.99386245,0.2400055,-0.2172699,9.806274,3.1265259,-15.22522,-37.991333,0.23816063,-0.21710794,9.801353,-0.0046978146,0.00014869869,0.003353119,0.00015258789,-9.1552734e-05,0.00022888184
2019-07-01T20:09:54.196Z,0.01092794,-0.012330424,0.99384475,0.23880005,-0.21894836,9.808426,2.6367188,-15.405273,-37.930298,0.23950729,-0.21687154,9.801326,0.0023373812,0.00013639033,-0.00048065186,-0.00015258789,-4.5776367e-05,4.5776367e-05
2019-07-01T20:09:54.393Z,0.010920849,-0.012329737,0.9938466,0.23808289,-0.21989441,9.801727,2.0843506,-15.150452,-38.082886,0.23936413,-0.21687724,9.80133,0.0005825013,0.0010950118,-0.000104904175,-3.0517578e-05,1.5258789e-05,0.000289917
2019-07-01T20:09:54.600Z,0.010888054,-0.012345999,0.9938554,0.24215698,-0.21702576,9.800995,2.520752,-16.13617,-38.37738,0.23874265,-0.21728367,9.801336,-0.0011826754,-0.0006579906,-0.00071048737,-9.1552734e-05,7.6293945e-05,0.00010681152
2019-07-01T20:09:54.822Z,0.010943651,-0.012347003,0.9938409,0.23808289,-0.21679688,9.8029175,2.9312134,-16.041565,-37.69684,0.23985595,-0.2171533,9.8013115,0.0022619367,0.0001629293,-0.00095272064,3.0517578e-05,-0.00010681152,-9.1552734e-05
2019-07-01T20:09:55.052Z,0.010896647,-0.012352871,0.9938533,0.23976135,-0.21870422,9.801727,2.0370483,-14.500427,-37.495422,0.23892874,-0.21739484,9.801329,-0.0018282682,-0.00032886863,-0.0014276505,3.0517578e-05,0.00015258789,-3.0517578e-05
2019-07-01T20:09:55.259Z,0.010942503,-0.012366979,0.9938415,0.2400055,-0.21655273,9.803146,1.864624,-14.884949,-36.51123,0.23987474,-0.21754698,9.801302,0.0015432537,-0.00042025745,6.67572e-06,-9.1552734e-05,-4.5776367e-05,0.00015258789
2019-07-01T20:09:55.482Z,0.010911583,-0.01236301,0.9938495,0.23951721,-0.2172699,9.8033905,2.0111084,-15.008545,-37.9776,0.23924842,-0.21755281,9.801317,-0.0007084012,0.0005553663,0.0007982254,3.0517578e-05,1.5258789e-05,4.5776367e-05
2019-07-01T20:09:55.667Z,0.010938544,-0.012354469,0.99384236,0.23832703,-0.21606445,9.8033905,2.7282715,-15.182495,-37.66327,0.23976946,-0.21731305,9.80131,0.00066140294,0.00033049285,0.0013380051,9.1552734e-05,-0.00010681152,0.00010681152
2019-07-01T20:09:55.900Z,0.010904044,-0.012322427,0.9938508,0.23857117,-0.21583557,9.803879,1.8066406,-15.9713745,-37.78534,0.239013,-0.21677965,9.80134,-0.0014433861,0.0007516891,-0.0005455017,-3.0517578e-05,-0.00010681152,0.000289917
2019-07-01T20:09:56.118Z,0.010927095,-0.01230242,0.9938445,0.23976135,-0.21798706,9.802444,2.1072388,-14.788818,-37.104797,0.23943192,-0.21632628,9.80134,3.7923455e-05,0.0010217875,0.00059986115,3.0517578e-05,1.5258789e-05,3.0517578e-05