timestamp,rotationVector_x,rotationVector_y,rotationVector_z,accelerometer_x,accelerometer_y,accelerometer_z,magneticField_x,magneticField_y,magneticField_z,gravity_x,gravity_y,gravity_z,linearAcceleration_x,linearAcceleration_y,linearAcceleration_z,gyroscope_x,gyroscope_y,gyroscope_z
2019-07-01T19:02:40.571Z,0.1586085,-0.028421652,-0.9000445,-1.146164,3.282959,7.590027,-9.916687,-22.306824,-35.791016,-2.5741746,1.7613442,9.297401,-0.18027592,0.41196358,0.25317287,0.2630005,-0.11465454,-2.5046387
2019-07-01T19:02:40.776Z,0.06723637,-0.19781034,-0.893784,2.6129608,-5.0033875,9.915863,-17.144775,-16.519165,-35.749817,0.36105907,3.9909806,8.950537,-2.2059817,-0.97851396,-0.28208447,1.2896271,-1.5639343,0.21250916
2019-07-01T19:02:40.977Z,-0.0013380095,0.108228765,-0.84733534,-0.830307,-7.166504,10.638489,-20.845032,7.5164795,-36.671448,-1.0813911,-1.8123025,9.576876,2.1399302,0.444592,-0.61713314,-3.0935364,0.9881439,1.168335
2019-07-01T19:02:41.200Z,-0.15687974,0.2569807,-0.8862274,-1.8305054,-6.0442657,9.477966,-17.56134,7.1762085,-37.794495,0.95236075,-5.5500813,8.028698,-0.9385133,-1.8140512,3.7534246,-2.072052,-0.13877869,-2.1690826
2019-07-01T19:02:41.384Z,-0.042104978,0.15589388,-0.89269984,0.22970581,-1.1174469,5.52742,-12.831116,2.0523071,-41.523743,-0.5492052,-3.076957,9.295219,-0.5874128,-3.3175912,0.56992054,1.5292816,0.4676361,0.85783386
2019-07-01T19:02:41.592Z,0.05621439,0.21120112,-0.86177796,1.249054,-6.9391785,10.384857,-13.049316,9.533691,-39.76593,-2.8464847,-3.065049,8.8698015,3.5706835,1.1113858,-3.0892668,-0.117630005,1.1289673,0.69558716
2019-07-01T19:02:41.814Z,-0.12990932,0.2768552,-0.87829804,0.9834442,-5.6614227,9.006592,-21.270752,8.293152,-34.5459,0.24223648,-5.705608,7.9723125,0.5572523,0.45540667,1.7832699,-1.353714,-1.0027313,-1.5461884
2019-07-01T19:02:41.995Z,-0.119155005,0.2383354,-0.90703213,-2.6990967,-3.0053864,5.9772644,-13.540649,-1.7303467,-39.170837,0.5957459,-5.001885,8.414073,0.3187068,-1.1545854,1.2827406,0.40600586,0.16842651,-0.55210876
2019-07-01T19:02:42.194Z,0.10146748,0.114358984,-0.885484,-1.2418823,-2.8546448,12.514465,-14.31427,2.897644,-40.838623,-2.7464194,-1.1128432,9.348215,1.3074262,-2.4253764,-1.856945,2.0105743,1.3249817,1.7423096
2019-07-01T19:02:42.401Z,-0.0077444175,0.112951875,-0.7129329,1.4955139,-1.6534424,8.271988,-14.790344,8.322144,-39.48822,-1.4248099,-1.6845176,9.555245,-0.054668427,-0.5740242,1.7386312,-0.9895172,-0.9696808,2.7730255
2019-07-01T19:02:42.605Z,0.0004897343,0.11749075,-0.7053546,-0.32781982,-2.0985107,9.008972,-17.390442,7.70874,-39.20288,-1.6176525,-1.6186914,9.535902,3.1625707,-0.9118998,0.70428085,0.046936035,0.1689148,0.14219666
2019-07-01T19:02:42.806Z,-0.044455025,0.10735578,-0.7051762,0.33738708,-3.0173492,10.66481,-19.955444,11.01532,-36.009216,-0.8579048,-2.0946739,9.5418415,0.6195801,-0.36314368,0.03480625,-0.23779297,-0.3768921,-0.053710938
2019-07-01T19:02:43.010Z,-0.10410096,0.115317665,-0.7126835,0.67237854,-3.0173492,8.93959,-22.03064,11.309814,-35.487366,-0.09206346,-3.008621,9.33328,0.29802412,-0.14387035,0.5734148,-0.47816467,-0.32514954,-0.27905273
2019-07-01T19:02:43.211Z,-0.09134286,0.100788206,-0.7049874,0.5623169,-2.876175,9.011368,-19.976807,12.246704,-35.377502,-0.11294218,-2.6406164,9.443769,0.7371138,-0.43075204,0.20607185,0.20857239,-0.012390137,0.15007019
2019-07-01T19:02:43.420Z,-0.0929171,0.12654676,-0.6884954,-1.8711853,-4.0175476,10.547562,-1.4266968,12.962341,-43.84613,-0.5026435,-2.9991925,9.323228,1.1836363,-0.00071406364,0.25396347,-0.20222473,0.19114685,0.1869049
2019-07-01T19:02:43.615Z,0.1256902,0.32367295,-0.7279059,-6.55394,-4.4817505,5.7643127,8.711243,9.106445,-42.633057,-5.547939,-3.1633825,7.4420276,4.932099,-0.52244544,2.6673417,0.12940979,3.315445,-0.49188232
2019-07-01T19:02:43.813Z,0.1806231,0.33211178,-0.81234217,-7.2095795,-4.721039,5.304886,13.421631,9.693909,-40.289307,-5.7702494,-3.718356,7.00346,-0.34349537,-0.6326227,-0.79596233,0.7854767,0.79603577,-1.3425751
2019-07-01T19:02:44.019Z,0.20891367,0.3553357,-0.81363654,-6.855438,-4.3214417,6.7908325,11.532593,8.842468,-40.538025,-6.1911707,-3.9905767,6.4741855,-1.0833974,-0.80064917,-0.7082567,0.029464722,0.42266846,-0.25065613
2019-07-01T19:02:44.219Z,0.19261767,0.35731316,-0.7778513,1.5003052,1.8233337,6.8434753,-2.6763916,-0.9765625,-43.162537,-6.300846,-3.6387682,6.574883,-0.7900076,-0.7129662,0.088569164,-0.33302307,-0.30517578,0.6487274
2019-07-01T19:02:44.422Z,0.040273122,-0.044584204,-0.85850555,3.1657104,-0.18664551,6.826721,-15.126038,-13.85498,-40.213013,-0.23279393,1.1529832,9.735852,2.462356,1.1359936,0.055636406,0.82395935,-1.13797,-0.46653748
2019-07-01T19:02:44.631Z,-0.073197335,-0.04949248,-0.9250526,-2.210968,0.071777344,10.839493,-19.343567,-17.304993,-35.68573,1.6866428,0.36760536,9.6535225,-1.4374695,0.5957635,-0.4314747,-0.566864,-1.1763306,-1.5326843
2019-07-01T19:02:44.829Z,-0.118773505,0.08719119,-0.9621816,4.8478546,-3.6993103,9.011368,-16.482544,-10.165405,-38.8031,1.8496171,-2.1791835,9.3808565,-1.9403698,2.0193346,0.5669308,-1.7133331,-0.018920898,-1.4606628
2019-07-01T19:02:45.037Z,-0.2471773,0.102193035,-0.9487862,5.950943,-1.7778625,8.987442,-22.550964,-9.719849,-35.51941,4.262707,-2.7167382,8.403514,0.36935186,-0.6677892,0.30846596,-0.51768494,-1.1534424,-0.7765503
2019-07-01T19:02:45.240Z,0.23292136,-0.0943298,0.9655174,4.5104675,0.76330566,9.0711975,-13.8671875,-16.854858,-37.3291,4.5366583,-1.4756176,8.568061,0.84418964,-0.62395275,0.6501169,-0.41200256,0.39120483,-2.1420898
2019-07-01T19:02:45.439Z,0.19443877,0.011390367,0.9669904,3.8404846,-1.8879395,5.580063,-4.8568726,-22.305298,-37.599182,3.650997,0.8425877,9.062597,0.07036042,-0.15704942,0.940917,0.8295746,0.5735016,-1.0518036
2019-07-01T19:02:45.646Z,-0.048632894,-0.09547998,0.9082881,-3.9601288,-3.2015991,8.0733795,16.047668,-9.077454,-41.575623,-0.10908046,-2.0866587,9.581459,2.0855968,1.2704108,-0.008243561,-1.9311829,2.1145325,-1.8318939
2019-07-01T19:02:45.845Z,-0.23582639,-0.1945155,0.7506016,0.16270447,-8.764908,5.3766785,27.4292,14.297485,-34.565735,-1.236951,-5.573076,7.9737806,-1.2385466,1.785294,0.32933187,-1.8645325,1.4177856,-1.8656616
2019-07-01T19:02:46.048Z,-0.35202098,-0.38942623,0.5272381,2.2253265,-8.992233,3.0029907,17.419434,36.857605,-21.40503,1.4632168,-8.640237,4.401782,-2.1974258,0.15979671,1.7268329,-2.4579315,0.034713745,-2.0258942
2019-07-01T19:02:46.239Z,-0.3598501,-0.45245326,0.42911294,2.9168549,-8.298309,3.0723877,12.8341675,41.62445,-17.150879,3.1301408,-8.706241,3.251767,-0.2735629,-0.27141857,-0.4406035,-0.04512024,0.22413635,-0.33946228
2019-07-01T19:02:46.447Z,-0.25058532,-0.3959267,0.45331508,3.1585236,-7.4775696,6.0681915,9.765625,41.57257,-18.16864,3.6602402,-7.246875,5.500531,-0.41636205,-1.3232007,-0.92000294,1.3400879,0.31741333,-0.52297974
2019-07-01T19:02:46.660Z,-0.02481151,-0.085714005,0.6142548,-1.249054,-1.5218353,9.375076,9.213257,33.103943,-30.895996,1.019169,-1.4141896,9.650478,0.7833789,-4.216683,-1.325798,4.0197296,1.3861389,0.64079285
2019-07-01T19:02:46.861Z,-0.09511177,-0.063644506,0.67658496,-1.804184,0.062210083,13.579269,21.11206,5.7037354,-42.625427,-0.35411966,-2.2015314,9.549777,1.4264939,1.1468782,1.2430964,-0.43919373,0.6554718,0.83406067
2019-07-01T19:02:47.061Z,-0.008104842,-0.2183635,0.62988716,5.36232,-4.3262177,3.809372,20.52002,6.906128,-43.263245,3.0919263,-2.8161762,8.870149,-1.0597777,-0.32935715,-1.9145861,-0.448349,-1.6844025,-0.8283539
2019-07-01T19:02:47.261Z,0.12340435,-0.59634435,0.4177627,9.154938,-3.144165,1.4955139,7.398987,17.84668,-43.363953,8.8974085,-3.254327,2.532955,-3.1973057,-2.2983165,4.6134834,-1.9224396,-4.1901855,-1.5331726
2019-07-01T19:02:47.466Z,0.49428055,-0.77809983,0.31625617,0.3254242,-1.2059784,-4.19223,-33.99353,20.779419,-24.235535,6.486244,-2.653701,-6.8598037,0.38240385,-0.80602145,8.06826,1.8763733,-6.2463837,-1.2624359
2019-07-01T19:02:47.662Z,-0.4282157,0.66405094,0.4384106,-12.217758,0.85902405,-2.8785706,-19.995117,8.958435,31.381226,-9.2607155,2.1125636,-2.438568,-2.4049368,-1.0229236,-6.6045713,-2.4476013,-10.290405,0.5341339
2019-07-01T19:02:47.883Z,-0.18814787,0.15066127,0.5072243,-3.620346,-2.691925,9.394226,44.20166,4.6920776,3.718567,-4.3167586,-1.5545183,8.667148,-5.4894934,-0.34857106,0.41461897,-0.63319397,-6.96257,-2.3516693
2019-07-01T19:02:48.076Z,-0.0445691,-0.13400707,0.5475161,1.7371826,-1.7228394,7.668991,24.932861,18.45398,-37.164307,1.6892083,-2.1600375,9.415477,8.59499e-05,-0.61789834,2.945949,-0.2027893,-3.343216,0.11024475
2019-07-01T19:02:48.277Z,0.032741956,0.08195241,0.678882,1.3663025,-2.945572,13.619949,7.472229,17.784119,-44.137573,-0.73567903,1.5593051,9.653897,1.0927808,-3.3753822,2.3607306,2.250351,1.2801514,1.5102997
2019-07-01T19:02:48.481Z,0.1173388,-0.03302398,0.78135556,-1.454834,2.2372894,16.338196,14.120483,6.201172,-44.50531,2.1946533,0.90251774,9.515217,0.9009712,-0.07638842,3.6574564,-0.2544098,-1.2116547,1.8856201
2019-07-01T19:02:48.684Z,0.15563509,0.32620028,0.7092872,-4.512863,1.0241241,13.663025,8.816528,-8.140564,-45.469666,-1.7069585,6.3853464,7.244586,-1.2180891,-4.458053,8.341181,3.555893,1.6988373,-1.0546875
2019-07-01T19:02:48.886Z,-0.057510354,-0.019243674,0.55513257,3.000595,-1.7084808,7.503891,20.101929,-23.387146,-32.637024,-0.3130737,-1.1452284,9.734517,1.0810261,1.3183329,2.3385286,-3.7792358,-1.7987518,-2.7993164
2019-07-01T19:02:49.094Z,0.19833753,0.028334232,0.523795,2.3306122,6.254837,4.7114716,14.309692,4.0023804,-42.07611,1.5774767,3.51185,9.019361,1.0664728,-0.48177576,0.8155899,2.4970703,-0.8675537,-0.52542114
2019-07-01T19:02:49.296Z,0.13915397,0.1367962,0.492247,0.48095703,4.819153,8.300705,5.366516,-10.722351,-43.57605,-0.9325405,3.6359544,9.059834,2.1377635,3.4837136,1.2338667,-0.081954956,1.2411652,-0.6699524
2019-07-01T19:02:49.498Z,0.101114154,0.1283731,0.5409676,1.1581268,1.1868439,12.26561,10.491943,-9.436035,-43.29834,-1.004403,2.9982152,9.282903,-0.15586293,0.988734,3.76443,-0.41194153,0.23666382,0.5222168
2019-07-01T19:02:49.700Z,0.1870411,0.19253176,0.5554528,1.036087,3.0675964,10.99263,10.580444,-7.537842,-42.762756,-0.9343019,4.984713,8.3934555,0.5729691,-0.6632335,3.4993944,1.1906128,0.13879395,0.34591675
2019-07-01T19:02:49.901Z,0.3568369,0.14911513,0.46340597,2.0219421,6.3194427,7.6498566,9.048462,-16.981506,-41.679382,0.9114471,6.935397,6.8731303,1.0139649,-0.1794877,3.209783,1.3674622,-1.5194702,-0.37228394
2019-07-01T19:02:50.100Z,0.31552625,0.22002392,0.574902,-0.32063293,5.974884,6.6257324,2.017212,-25.102234,-40.234375,0.44136608,6.950047,6.9045224,1.3418331,1.3124537,1.3402867,0.11791992,1.4155121,0.94059753
2019-07-01T19:02:50.298Z,0.31709713,0.10340244,0.71199894,5.927017,4.0295105,6.305084,7.499695,-26.631165,-40.467834,3.1749864,5.28697,7.6248145,0.39951324,-0.05798769,2.3959017,-0.63319397,-0.14689636,2.03656
2019-07-01T19:02:50.510Z,0.23565127,0.02462199,0.6515601,4.646866,2.519638,9.006592,-2.0202637,-21.496582,-41.674805,2.6634316,3.6454067,8.705604,4.1832256,0.6624706,2.9882288,-1.3107147,-0.02949524,-0.9616394
2019-07-01T19:02:50.711Z,0.15957236,0.15591377,0.38734683,-2.0434723,6.8243256,9.308075,3.388977,-16.88385,-44.80591,-1.5231731,3.9841578,8.830448,2.1469703,1.3757834,1.604084,-0.05618286,0.93463135,-3.585266
2019-07-01T19:02:50.916Z,0.037944432,0.29488075,0.24544759,-3.5030975,0.04307556,7.35553,22.407532,-7.7041626,-40.924072,-5.153803,2.1062489,8.072944,1.4077778,0.9366342,1.5023365,-0.40827942,1.5039062,-1.9980469
2019-07-01T19:02:51.119Z,0.051523525,0.4341555,0.11982964,-4.9746857,0.98106384,3.3356018,34.339905,5.999756,-32.658386,-7.4689035,1.921121,6.057653,1.599277,-1.2906433,-0.32665968,0.9385071,1.3464813,-1.127243
2019-07-01T19:02:51.366Z,0.17656882,0.38085157,0.31784543,-2.8330994,5.4963074,6.4462585,26.062012,-17.134094,-31.30951,-5.2496605,5.3183694,6.350307,-0.08749199,-1.1545444,-0.5896535,0.20246887,-0.33016968,2.465332
2019-07-01T19:02:51.569Z,0.15149932,0.045288093,0.54961866,1.7491608,7.183258,14.359329,5.654907,-11.965942,-36.0672,0.9044941,2.925683,9.316258,0.46948826,4.273442,5.1563964,-1.6895752,-0.039031982,0.20065308
2019-07-01T19:02:51.787Z,-0.0838362,0.13163981,0.40284222,-0.78245544,-1.8161469,7.7407837,13.652039,0.32806396,-39.17694,-2.9909127,-0.4428461,9.328918,1.9273438,1.0745561,1.855289,-1.5928802,1.954483,-1.8802643
2019-07-01T19:02:51.978Z,-0.027556924,0.32228908,0.4746171,-2.7828522,-1.1700897,4.47937,29.066467,9.317017,-32.391357,-5.431029,2.557687,7.754517,2.78406,-4.030851,-0.7156553,1.2980042,1.6229706,1.0880737
2019-07-01T19:02:52.182Z,0.12790139,0.37740958,0.55560315,-2.9407806,8.740982,8.228912,37.698364,-7.952881,-25.08545,-4.007886,5.9432936,6.6921215,1.8875711,-1.672698,-1.0615149,1.328537,-0.053009033,1.544632
2019-07-01T19:02:52.394Z,0.17841996,0.25125247,0.6557057,-1.2059784,7.5996094,11.167297,28.019714,-20.976257,-26.887512,-1.1020509,5.6432686,7.9441423,-1.256949,3.3629436,2.4312863,-0.7615967,-0.8611908,1.4412689
2019-07-01T19:02:52.589Z,0.058873426,0.13868548,0.64510113,-2.8809662,4.364502,12.698715,17.176819,-14.222717,-31.636047,-1.2927011,2.6197093,9.361433,-0.59989977,3.03459,4.066701,-1.7743683,-0.017333984,-0.34796143
2019-07-01T19:02:52.783Z,-0.095786124,0.15170653,0.54770803,-2.9359894,-0.82073975,6.415161,24.113464,-2.5222778,-33.389282,-3.4605384,0.09441576,9.175301,0.27212024,1.4979944,1.2314754,-1.0881195,1.0436707,-1.2738495
2019-07-01T19:02:53.003Z,-0.030227419,0.24171273,0.56113404,-1.9740753,0.04067993,5.8456726,31.828308,4.3930054,-31.918335,-4.08296,2.1912227,8.642821,1.78527,-2.6512833,-1.4322453,1.1271362,0.4384308,0.32765198
2019-07-01T19:02:53.199Z,0.0058636996,0.20668866,0.6806576,-1.9573364,1.976471,9.98764,31.599426,-6.414795,-31.317139,-2.7708292,2.84011,8.968092,-0.6458125,-0.46082878,1.1893978,-0.18373108,-0.3148346,1.4847717
2019-07-01T19:02:53.402Z,-0.048159167,0.1815741,0.7962451,-3.3260193,2.0913239,10.097717,23.265076,-7.017517,-34.420776,-2.800079,2.292454,9.114528,0.13117576,-0.48107362,2.9237037,-0.7292328,0.50416565,1.5543518
2019-07-01T19:02:53.601Z,-0.080386646,0.23022136,0.85537606,-3.3666992,3.349945,8.841476,26.713562,-18.011475,-25.474548,-3.412258,3.1418047,8.640367,0.14550471,0.29763722,1.1111608,0.0069274902,0.7784424,1.4032745
2019-07-01T19:02:53.803Z,-0.066484004,0.18667947,0.8841538,-2.6560364,1.9740753,9.693329,26.387024,-20.307922,-23.4375,-2.7020023,2.6855483,9.036449,-1.7430909,0.52636194,0.503562,-0.4310608,-0.30285645,0.43333435
2019-07-01T19:02:54.006Z,-0.015497294,0.1362087,0.92114574,-1.5744781,1.964508,9.300903,19.619751,-23.498535,-27.359009,-1.2531513,2.3501196,9.438058,-1.2733864,0.090188265,1.0050573,-0.33546448,-0.6313782,0.7414551
2019-07-01T19:02:54.210Z,-0.0049368422,0.07594111,0.9304542,-0.122039795,1.0145569,8.910873,12.4557495,-22.471619,-33.198547,-0.6239418,1.3511655,9.693061,0.15904325,0.18371975,0.8755398,-0.53790283,-0.29510498,0.115753174
2019-07-01T19:02:54.412Z,-0.058182713,0.08041478,0.9476138,-1.179657,0.5742798,9.580856,14.476013,-20.362854,-33.909607,-1.5602207,1.1481146,9.613424,-0.16783762,-0.0645144,0.97484684,-0.14958191,0.54771423,0.4620514
2019-07-01T19:02:54.619Z,-0.042369176,0.094200976,0.9542861,-1.3447723,1.0887299,9.992432,13.059998,-21.481323,-33.399963,-1.311224,1.5300527,9.597397,0.41802132,-0.26809728,0.869709,0.17588806,-0.0847168,0.2368164
2019-07-01T19:02:54.820Z,-0.04553501,0.087511316,0.9725716,-1.6654053,2.0889282,9.7005005,12.657166,-23.70758,-31.570435,-1.2301496,1.4811797,9.61578,-0.3648541,0.18292177,0.95592403,-0.11543274,0.059326172,0.6832428
2019-07-01T19:02:55.014Z,0.0071635838,0.06412675,0.9823146,-0.3134613,3.2111664,10.073776,7.5790405,-23.750305,-32.504272,-0.08305372,1.2601893,9.724989,-0.5526462,0.71906567,0.61866856,-0.16815186,-0.56651306,0.3864746
2019-07-01T19:02:55.221Z,-0.00015345457,0.021347908,0.98944604,-0.44506836,0.17945862,9.568893,4.1503906,-20.977783,-33.836365,-0.06298673,0.4138526,9.797711,0.0092156865,0.85557187,0.71185493,-0.46398926,0.021209717,0.35588074
2019-07-01T19:02:55.427Z,-0.019277172,0.028520662,0.9856321,-0.6053772,0.33499146,9.879959,5.845642,-22.610474,-34.31549,-0.46515706,0.4888259,9.783407,-0.04192981,-0.207501,0.5675039,0.054382324,0.19737244,-0.26782227
2019-07-01T19:02:55.626Z,0.002326355,0.023196708,0.98192376,0.39482117,1.5625153,11.832504,6.893921,-20.94574,-33.187866,-0.04065577,0.4553104,9.79599,-0.280222,0.37986323,0.9421272,-0.018173218,-0.24255371,-0.28607178
2019-07-01T19:02:55.836Z,0.017375564,-0.041190237,0.9865959,0.009567261,-3.8979034,10.667206,4.6066284,-17.57965,-35.731506,0.46301168,-0.7435639,9.767451,-0.50177175,-1.0494623,1.4501143,-0.5851898,-0.2836151,0.2609558
2019-07-01T19:02:56.023Z,0.07047873,-0.06842179,0.9657382,4.261612,-3.4504547,7.1569366,2.9190063,-17.54303,-35.95581,1.6573163,-0.9639512,9.617406,0.23588467,-2.4748478,-1.087017,-0.14952087,-0.5268707,-0.95228577
2019-07-01T19:02:56.229Z,-0.028499784,-0.1546551,0.84200144,-0.8901367,-4.027115,12.232117,15.716553,-5.958557,-38.275146,1.094662,-2.8424969,9.321605,-0.24244618,-0.2956171,1.0584698,-1.4473114,0.864563,-2.967682
2019-07-01T19:02:56.437Z,-0.031072622,-0.16606542,0.7648055,0.9786682,-5.852844,6.867401,19.311523,4.48761,-38.56201,1.5588813,-2.869937,9.246823,-1.5025662,-3.0682914,1.6368809,-0.16142273,0.19291687,-1.5747681
2019-07-01T19:02:56.633Z,0.2265694,0.16375588,0.32217672,-11.351547,-6.3098755,-0.32781982,24.949646,-1.0528564,-37.200928,-1.4732662,5.053992,8.273877,-0.9279474,-10.938183,-4.030297,4.0212555,0.7724457,-5.837555
2019-07-01T19:02:56.859Z,0.070078276,0.44623587,-0.22879393,-20.937195,1.6821594,14.132019,21.586609,23.446655,-28.979492,-7.861733,-0.8171949,5.8048034,-11.68059,0.04528457,1.6642294,0.0831604,1.6318817,-6.1900177
2019-07-01T19:02:57.054Z,0.34555614,0.07757788,-0.117813006,-15.168106,-6.4079742,6.0538483,8.7677,1.0299683,-40.19165,-2.2100804,6.108463,7.3466053,-20.358364,-8.245081,4.170942,2.6956635,-2.7774353,4.1644135
2019-07-01T19:02:57.257Z,0.4486537,-0.30177298,0.66075325,9.853638,-18.271591,3.6418762,-11.152649,-7.5149536,-39.604187,8.895795,0.67041916,4.072563,-7.885681,-14.490738,-2.398563,2.113327,-0.2467804,9.096451
2019-07-01T19:02:57.513Z,0.4107651,0.73087066,-0.53902656,-27.476776,-3.4360962,6.6687927,4.911804,3.2653809,-41.76941,-5.5028296,-7.0747824,-3.9795372,-37.440483,-23.752226,8.034044,-1.5069885,0.1136322,-12.949905
2019-07-01T19:02:57.710Z,0.46091807,0.6029216,-0.61642534,-4.6133575,-2.7852478,9.7005005,-6.3964844,12.693787,-38.55591,-8.054741,-5.3918414,-1.4898249,-1.4989667,-4.0363245,11.724739,0.24095154,-0.06376648,1.9349213
2019-07-01T19:02:57.905Z,0.43649632,0.40776536,-0.75886095,-1.655838,1.9405823,11.150558,-4.9438477,14.611816,-38.449097,-8.571913,-3.8476653,2.808593,-0.45218372,-0.65587187,8.237854,1.7011108,-0.84432983,0.8875122
2019-07-01T19:02:58.120Z,0.46434066,0.28436822,-0.8136911,-3.7998047,7.326828,5.9820557,-7.78656,1.763916,-41.78009,-8.545725,-2.6845715,3.9917471,-1.0033064,7.779969,7.1667647,1.2378235,0.5436859,-0.5653076
2019-07-01T19:02:58.313Z,-0.13650706,-0.28710115,0.8793242,1.483551,2.6081696,6.118454,-2.4887085,-7.800293,-41.152954,-0.3576165,-5.900814,7.8245053,0.18263304,5.054899,3.1018496,2.1240692,-1.1025543,-6.3812866
2019-07-01T19:02:58.517Z,0.20407017,-0.13074577,0.64803654,1.2514496,1.6366882,10.612167,10.812378,-21.487427,-33.006287,4.44527,1.228072,8.654583,-0.8544307,4.531946,6.909198,2.1509552,-1.2923431,-5.247513
2019-07-01T19:02:58.721Z,0.32174364,-0.057104625,0.6266669,-0.62931824,4.051056,11.992828,22.36023,-23.010254,-29.18396,4.7469225,3.762561,7.7123437,-2.2927902,1.073099,8.930277,1.4670868,-0.8118286,-0.5417328
2019-07-01T19:02:58.921Z,0.28276658,-0.047909226,0.66028607,-0.8614197,2.9623108,8.992233,20.806885,-26.130676,-25.45166,4.314151,3.2290068,8.193413,-2.0503654,1.9511515,7.10474,-0.18952942,-0.025039673,0.28263855
2019-07-01T19:02:59.126Z,0.22256857,0.051863987,0.6454511,-2.945572,3.0843506,8.492126,18.626404,-28.02124,-26.049805,2.076226,3.8380523,8.782313,-2.9697835,1.5740958,5.2305455,0.103012085,0.7275543,-0.681015
2019-07-01T19:02:59.331Z,0.33137292,0.1499852,0.4495392,-1.907074,-0.7537384,5.63031,32.765198,-14.576721,-21.852112,0.5217083,6.6248775,7.2117405,-2.1887274,-1.0736196,5.5949564,1.6313477,-0.85972595,-2.36969
2019-07-01T19:02:59.588Z,0.18388723,0.048323907,0.26078597,-0.7298126,-0.6029968,12.756134,25.756836,10.6918335,-31.217957,0.04348612,3.6608107,9.097635,-0.2964602,-0.51851964,2.7396238,-1.746933,-1.2837982,-2.1550903
2019-07-01T19:02:59.789Z,0.12757269,0.011892763,-0.035340488,1.2658081,-7.8388824,24.18187,15.403748,5.0949097,-37.52289,-0.31961307,2.4716792,9.4846735,-0.5762692,-5.201384,18.786415,-0.020248413,-0.91171265,-3.0158844
2019-07-01T19:02:59.991Z,0.6053991,0.009529162,-0.22088611,-2.9814606,-0.48335266,-2.773285,13.928223,-25.42572,-34.388733,-2.765676,9.03746,2.6164377,0.38610816,-9.901499,4.788007,5.82547,0.13372803,-1.9819183
2019-07-01T19:03:00.187Z,0.61655664,-0.08236695,-0.3830299,-3.0843506,7.7479553,3.0843506,4.3014526,-24.523926,-35.849,-3.5286422,8.876974,2.2177465,-1.5978723,0.9513297,-0.7679391,0.8640442,-1.9112701,-0.6870575
2019-07-01T19:03:00.396Z,0.5502114,-0.14946488,-0.4503317,-1.4572296,7.963318,4.874176,-7.408142,-25.8255,-34.199524,-2.8454556,8.735138,3.4309082,-0.60086334,3.9996295,2.4196715,-0.16593933,-1.2939911,-0.033111572
2019-07-01T19:03:00.599Z,0.22764072,-0.33302614,0.081256896,55.604416,5.01297,17.675781,-22.54486,-13.729858,-31.492615,6.3158975,3.538507,6.615042,9.429358,-3.7353075,7.5136013,-1.0359497,3.3942566,4.6581726
2019-07-01T19:03:00.793Z,0.32263836,-0.26755506,0.15224783,5.3407745,2.7517395,7.5373993,-8.757019,-2.5482178,-38.993835,5.6603956,4.8650255,6.3609614,5.8615546,-1.364608,3.4665065,1.0773468,0.44404602,-0.26109314
2019-07-01T19:03:00.996Z,0.3498321,-0.16499248,0.25686264,4.208969,4.515259,8.499313,-6.590271,-7.7056885,-41.567993,4.6285067,5.2457027,6.8724017,1.5870166,1.7621262,3.3007765,0.63417053,1.0976257,0.3966217
2019-07-01T19:03:01.206Z,0.3837997,-0.11768475,0.43103406,4.0701904,3.4648132,7.523041,1.8539429,-13.343811,-41.175842,5.1099343,5.0882792,6.64593,0.05860758,0.6346266,4.157733,0.9660492,0.63305664,1.4117126
2019-07-01T19:03:01.404Z,0.41711134,-0.08793862,0.57858527,5.517853,3.9792633,7.092331,0.289917,-20.559692,-36.08551,5.9326973,4.6907578,6.2426176,1.6907778,0.5583148,3.6441228,0.9360657,0.36268616,1.3586731
2019-07-01T19:03:01.605Z,0.39870763,-0.0065360144,0.68145657,4.598999,3.2805634,7.080368,0.0076293945,-25.706482,-32.96814,5.407641,4.711624,6.6879296,1.8555901,0.091704845,3.45464,0.6972046,0.87861633,0.625885
2019-07-01T19:03:01.809Z,0.32452187,0.009316484,0.7570629,4.922043,1.8376923,9.030518,1.8188477,-27.288818,-29.212952,4.715063,3.747066,7.7393837,1.7589993,-0.032298326,2.113873,-0.21855164,0.86750793,0.56069946
2019-07-01T19:03:02.011Z,0.28988078,-0.022684138,0.78659934,4.2017975,1.5409851,7.7120667,2.909851,-25.891113,-31.010437,4.7145762,2.7470293,8.148436,1.8850298,0.026736856,2.8953428,-0.42288208,0.14497375,0.300354
2019-07-01T19:03:02.215Z,0.18016174,-0.21949995,0.7629428,5.0608215,-4.19223,8.889343,1.9302368,-22.763062,-32.307434,5.196141,-1.2324125,8.225063,1.5309885,0.08924878,2.5301166,-2.3323975,-0.26766968,0.13664246
2019-07-01T19:03:02.418Z,-0.00415995,-0.40951592,0.67172,3.7471619,-7.384247,9.714859,2.4719238,-7.7453613,-36.898804,4.903402,-5.445594,6.5170956,1.3055825,-1.9083731,3.1536813,-2.9328156,0.23397827,-0.10307312
2019-07-01T19:03:02.618Z,-0.018612286,-0.41949275,0.65913653,4.1778717,-5.9820557,7.1976166,2.9403687,12.042236,-37.042236,4.8923903,-5.650881,6.3484216,0.1241498,-2.1399474,3.95467,-0.29893494,0.05682373,-0.16744995
2019-07-01T19:03:02.821Z,0.012541708,-0.3992838,0.67797524,4.347763,-5.860016,7.9944153,1.9577026,13.354492,-36.054993,4.9991474,-5.1576214,6.676665,0.9108422,-2.4136825,2.5409002,0.33587646,-0.040252686,-0.108688354
2019-07-01T19:03:03.020Z,0.06647345,-0.35299894,0.71232384,3.6586304,-4.405182,5.922241,1.6769409,10.942078,-37.66632,5.10332,-4.145631,7.2760053,0.438344,-2.1050675,1.0237937,0.73275757,-0.036636353,-0.10067749
2019-07-01T19:03:03.237Z,0.08841068,-0.37489977,0.7375412,6.130417,-5.2737885,8.700302,-0.025939941,7.194519,-38.961792,5.357468,-4.4613323,6.896698,0.52954006,-0.9630215,1.5775852,0.038269043,-0.41323853,0.3525238
2019-07-01T19:03:03.438Z,0.14612421,-0.3508558,0.7777596,4.4817505,-4.2592316,5.556137,-1.7700195,6.138611,-39.938354,5.674149,-3.9172902,6.9734683,-0.43147993,-0.7046559,2.0691943,0.6213379,-0.46510315,0.26516724
2019-07-01T19:03:03.638Z,0.17739722,-0.34214264,0.82687986,6.4414825,-4.2711945,7.0205383,-5.9432983,2.3468018,-37.971497,5.625363,-4.12382,6.8934603,0.5600672,-1.1340234,1.9735618,0.47607422,-0.4268036,0.7480469
2019-07-01T19:03:03.838Z,0.19987893,-0.29108223,0.8590688,6.168701,-3.5270233,6.9463654,-9.048462,-2.6046753,-37.11548,5.483396,-3.4517646,7.361255,1.9097095,-1.2397907,1.1863999,0.6642151,0.008132935,0.2102356
2019-07-01T19:03:04.041Z,0.19346987,-0.25882658,0.85233694,5.544174,-3.8165588,8.092529,-8.100891,-5.3344727,-34.23767,5.321786,-2.7664404,7.758594,2.1307678,-1.5858972,0.9972334,0.14425659,0.34399414,-0.5079498
2019-07-01T19:03:04.243Z,0.18274318,-0.21581559,0.85343206,2.498108,-3.3044891,7.171295,-4.042053,-8.123779,-34.518433,4.9120774,-2.0432386,8.238146,-2.1174304,-1.6552877,0.074832916,0.21699524,0.33683777,-0.49909973
2019-07-01T19:03:04.443Z,0.14327879,-0.28082865,0.87795514,5.8743744,-3.2805634,9.214767,-3.6499023,-6.7993164,-32.83081,4.4516134,-3.8233104,7.857215,1.5614107,-0.4542172,2.7059383,-0.580719,-0.0655365,0.97554016
2019-07-01T19:03:04.664Z,0.28923225,-0.2354452,0.92177784,4.0821533,-11.19841,9.04248,-5.8883667,-6.8893433,-30.795288,5.7185497,-3.6553257,7.078641,-0.14263058,-3.4019895,3.8660145,1.3549347,-1.839447,1.6901398
2019-07-01T19:03:04.858Z,-0.51166385,-0.051377814,-0.81354225,14.727829,4.3573303,4.118042,-26.268005,-10.261536,-15.014648,8.437818,-1.9047664,4.6201177,4.3074374,-3.764104,0.6984973,4.2081757,-3.2117004,2.2326508
2019-07-01T19:03:05.062Z,-0.49456036,-0.39521834,-0.77263796,2.3928223,7.951355,0.17706299,-32.592773,-15.899658,-0.12054443,7.861678,5.5297313,1.9458847,1.5752239,1.3907957,-0.70577216,1.7094727,-1.4145813,-3.5710297
2019-07-01T19:03:05.262Z,0.25541648,0.38258895,0.8796082,0.83270264,3.8356934,6.5850525,-15.113831,-38.71765,1.7837524,3.497357,7.2073436,5.656243,-3.3448112,0.6381793,-3.8354263,-1.6364899,1.4945679,-2.298355
2019-07-01T19:03:05.462Z,0.30321038,0.021591995,0.94056505,7.862808,-3.6466675,7.8723907,-9.037781,-39.460754,-19.230652,5.529365,1.2989373,7.994327,-0.55642176,-1.4173307,-0.85832834,-3.609726,-1.1322327,0.5862427
2019-07-01T19:03:05.666Z,0.27590021,-0.13932107,0.9478105,4.0462646,-3.4002075,4.922043,-10.606384,-19.107056,-25.291443,5.342739,-2.1664655,7.932966,0.8429022,-0.98706114,1.1073208,-1.3883514,0.005996704,1.1239777
2019-07-01T19:03:05.869Z,-0.18636948,0.08316841,-0.9789406,3.2638092,-3.6993103,4.6325073,-12.205505,2.4093628,-21.525574,3.570232,-1.6150279,8.989745,2.0924501,-3.737331,1.1113915,0.8935394,0.8939514,0.8369446
2019-07-01T19:03:06.071Z,-0.13170956,0.012867127,-0.99041766,1.8185425,-0.12921143,11.777481,-11.18927,7.6705933,-23.895264,2.5485382,-0.35197702,9.463163,1.0736935,-0.31263044,1.0074816,0.7846832,0.55418396,0.2397461
2019-07-01T19:03:06.276Z,-0.042389754,-0.06022904,-0.99250054,2.2899323,1.1700897,7.075577,-5.8807373,20.262146,-22.8302,0.9404166,1.0913181,9.700259,0.34191656,-0.18757355,2.8155508,0.8521271,0.8695221,0.4068756
2019-07-01T19:03:06.472Z,-0.027945636,-0.02317598,-0.9954001,-0.83270264,0.8446655,10.712662,-5.4992676,20.767212,-28.330994,0.58588606,0.4038713,9.780798,-0.79198045,0.5528797,0.99659824,-0.39465332,0.13323975,-0.31991577
2019-07-01T19:03:06.678Z,-0.024219526,-0.02074644,-0.990839,0.15074158,0.6915283,10.9782715,-2.3864746,21.839905,-27.107239,0.52407104,0.3408415,9.786704,-0.9361984,0.7355017,0.85613155,-0.045303345,0.00642395,0.16217041
2019-07-01T19:03:06.880Z,0.0003626845,-0.031102415,-0.98354965,-0.46420288,0.8829498,10.674377,-1.7166138,20.114136,-24.465942,0.10155069,0.60125166,9.787674,-0.27786118,0.6598567,0.8876934,0.12524414,0.22163391,0.21775818
2019-07-01T19:03:07.083Z,0.049846053,-0.046710663,-0.9562924,-1.9094696,2.0817566,10.963913,0.14801025,15.144348,-25.628662,-0.67443436,1.1540725,9.715124,-0.5266644,0.750353,0.6076412,-0.10180664,0.10165405,-0.15809631
2019-07-01T19:03:07.284Z,-0.00029460958,-0.03328081,-0.9236456,0.1986084,0.3637085,10.698303,0.9048462,10.839844,-28.123474,0.25455555,0.6007003,9.7849245,-1.6114788,1.3872771,0.28487206,-0.33210754,-0.51135254,0.24928284
2019-07-01T19:03:07.486Z,0.0026428578,-0.029717833,-0.8710663,-2.0530396,0.5288086,7.4608154,-0.46691895,14.694214,-29.394531,0.24060255,0.53312653,9.789192,-0.05915761,0.45206016,0.44185734,-0.03741455,0.021209717,0.3116455
2019-07-01T19:03:07.691Z,0.008694428,0.047110688,-0.69112486,-0.49531555,0.047851562,8.621338,-1.9470215,20.018005,-32.70874,-0.7841911,-0.5156222,9.761638,-0.8636418,0.48391783,1.0964937,-0.587265,0.51008606,1.1330261
2019-07-01T19:03:07.896Z,-0.0041916305,0.081323124,-0.55586696,-6.1663055,-0.59580994,6.106491,6.8969727,24.884033,-29.963684,-1.2738142,-0.9546275,9.676594,1.1639934,0.2506072,0.49845123,-0.16477966,0.34283447,-0.56073
2019-07-01T19:03:08.099Z,-0.06770712,0.07472101,-0.36657262,-2.038681,-0.78723145,10.91127,7.827759,33.181763,-29.522705,-0.8686842,-1.7654641,9.607232,-0.9882348,0.6655376,1.2939577,-0.42874146,-0.21324158,-0.21717834
2019-07-01T19:03:08.300Z,-0.11164403,0.14373355,-0.2118498,-2.498108,-2.0841522,9.9039,6.689453,45.48645,-28.251648,-2.243018,-2.6997948,9.156985,0.044415236,1.0057957,1.1197863,-0.5368042,0.7637787,-0.05102539
2019-07-01T19:03:08.506Z,-0.1515781,0.18815172,-0.08635008,-3.780655,-3.007782,8.863022,11.357117,51.960754,-33.39386,-3.3100224,-3.192077,8.661684,0.0067925453,0.7554805,1.0673704,-0.48365784,0.44532776,0.51304626
2019-07-01T19:03:08.711Z,-0.17132817,0.20298839,-0.032177024,-4.0055847,-3.000595,8.551941,25.64392,55.345154,-46.57898,-3.7279851,-3.3658953,8.422782,-0.41581583,0.22201753,0.63002586,-0.19758606,0.16500854,0.19570923
2019-07-01T19:03:08.914Z,-0.20092933,0.23188847,0.026518092,-4.5343933,-3.5557404,7.7742767,34.835815,54.145813,-57.546997,-4.4315414,-3.6287324,7.9601583,-0.1273675,0.09804654,0.6589465,-0.34565735,0.29310608,0.34481812
2019-07-01T19:03:09.147Z,-0.16610357,0.26505986,0.053541683,-5.4795685,-2.4047852,7.6163483,40.301514,48.606873,-57.992554,-5.1043925,-2.8110847,7.887545,-0.30167484,-0.22397017,0.34300232,0.33007812,0.2931671,0.33285522
2019-07-01T19:03:09.321Z,-0.13438018,0.32301402,0.08151973,-6.628113,-1.964508,8.621338,42.94586,37.643433,-59.576416,-6.1273513,-1.9432563,7.4060593,-0.3151927,-0.15715694,1.2065921,0.27156067,0.5671997,0.41104126
2019-07-01T19:03:09.523Z,-0.1502028,0.27788612,0.067510806,-5.5824585,-1.931015,8.030319,44.184875,27.06604,-57.629395,-5.3569794,-2.4200976,7.8496037,-0.9145441,0.8751221,0.3402543,-0.2833557,-0.50572205,-0.09927368
2019-07-01T19:03:09.728Z,-0.13922708,0.21708716,0.009732174,-4.548752,-1.6079712,8.568695,27.583313,21.69342,-61.894226,-4.1401315,-2.5967577,8.50215,-0.8892157,0.6291709,-0.11378288,0.018356323,-0.7020569,-0.26609802
2019-07-01T19:03:09.923Z,-0.10926718,0.16592109,-0.04282916,-2.5651093,-1.6678009,8.389236,13.693237,12.435913,-67.889404,-3.0945587,-2.2377422,9.032531,-0.79408455,0.05760622,-0.08977318,0.1980133,-0.63645935,0.023010254
2019-07-01T19:03:10.125Z,-0.057688992,0.17834304,-0.0454537,-4.063019,-1.1030884,9.530609,5.6015015,-1.3671875,-68.33191,-3.3807883,-1.2692189,9.117552,0.047542334,-0.20397758,0.07391167,0.3157196,0.03555298,0.6654663
2019-07-01T19:03:10.330Z,-0.031932134,0.20485899,-0.08404818,-3.7591248,-0.5886383,8.295914,9.779358,-18.685913,-64.6286,-3.8634796,-0.94812226,8.963535,-0.31986642,0.25059235,0.5667696,-0.017990112,0.21246338,0.47505188
2019-07-01T19:03:10.540Z,-0.019421397,0.23842055,-0.17211555,-4.1228333,-1.0073853,8.609375,12.748718,-23.109436,-61.27014,-4.402987,-1.1688507,8.684346,0.27943277,0.1335001,-0.0073623657,-0.22042847,0.29841614,0.19174194
2019-07-01T19:03:10.792Z,0.060481012,0.21377796,-0.36920536,-4.811966,-0.03111267,9.296112,13.018799,-32.380676,-57.052612,-4.2216344,-0.47758022,8.838557,-0.36304426,-0.13140535,0.36814308,0.31584167,-0.1269226,0.17304993
2019-07-01T19:03:10.939Z,0.13655707,0.1707064,-0.63960314,-4.1898346,0.27757263,9.207581,11.030579,-36.340332,-52.342224,-4.18052,-0.16762316,8.86936,-0.38931084,0.22390088,0.62976074,0.107406616,-0.030654907,0.13369751
2019-07-01T19:03:11.147Z,0.16842143,0.112867974,-0.82566315,-3.9146576,0.19142151,9.126221,5.7632446,-36.138916,-48.233032,-3.8928769,-0.088678524,9.000446,-0.32368517,0.13224974,0.28161907,0.014129639,-0.16986084,0.058441162
2019-07-01T19:03:11.347Z,0.13611473,0.067228556,-0.9088485,-2.7972107,-0.32302856,9.2482605,0.021362305,-37.1933,-45.872498,-2.9386072,-0.16116928,9.354624,-0.37794137,0.13139848,0.14436245,0.052246094,-0.53334045,-0.26316833
2019-07-01T19:03:11.548Z,0.108021595,0.037922416,-0.942082,-2.3904266,0.33021545,9.707687,-1.8127441,-37.48932,-42.459106,-2.23042,-0.032823917,9.549583,-0.42807865,0.06951076,0.28519726,0.107284546,-0.38911438,-0.14723206
2019-07-01T19:03:11.752Z,0.109282754,0.043151375,-0.96084875,-2.2181396,0.0,9.358322,-1.7501831,-36.024475,-42.692566,-2.2718496,-0.27536744,9.535893,-0.013577938,0.42211932,0.29338264,-0.07853699,0.028045654,-0.2824707
2019-07-01T19:03:11.955Z,0.11898443,0.045647245,-0.96863836,-2.3234253,-0.110076904,9.674179,-0.6439209,-34.942627,-41.007996,-2.4514592,-0.3694315,9.488111,0.022583485,0.2470611,0.41218185,-0.016403198,0.10385132,-0.16488647
2019-07-01T19:03:12.154Z,0.12576069,0.04701744,-0.9738448,-1.3256226,-0.5096741,9.872787,0.94451904,-35.194397,-42.181396,-2.5711038,-0.44591665,9.453093,0.42422152,0.1714068,0.33827686,-0.010055542,0.084365845,-0.13653564
2019-07-01T19:03:12.351Z,0.13006446,0.07355172,-0.96117765,-2.0410767,-1.1198425,13.344772,-13.02948,-19.398499,-55.53131,-2.7865982,-0.7948291,9.368752,2.4210215,-0.4264235,2.7387924,-0.4189148,0.14918518,0.8067627
2019-07-01T19:03:12.577Z,0.055568274,0.14034486,-0.8958491,-2.7517395,1.701294,5.9844513,-22.006226,-2.2109985,-55.062866,-2.126785,-2.0104392,9.359771,-0.51404905,0.870579,-0.90396976,-1.0719299,-0.59698486,1.4756622
2019-07-01T19:03:12.765Z,0.116884656,0.031448916,-0.8583925,-2.651245,2.6895294,4.010376,-21.392822,-1.3046265,-53.845215,-2.2753484,0.6133578,9.519295,-1.7812302,0.5008983,-1.6066275,1.2314758,-0.07470703,0.69522095
2019-07-01T19:03:12.967Z,0.020087091,-0.027364979,-0.812913,4.7114716,-14.988647,19.74797,-18.684387,-32.01294,-18.754578,-0.008221834,0.66535926,9.784049,-2.443641,-9.372661,7.875495,0.14901733,-1.1070099,1.3369293
2019-07-01T19:03:13.170Z,0.56733924,-0.48995513,-0.45432004,-22.576279,-10.430313,-12.057434,-22.79358,-20.599365,-21.850586,-0.4301423,9.721625,-1.2146484,-7.2640557,-10.320858,-11.187914,7.172989,-3.8627625,-4.039627
2019-07-01T19:03:13.365Z,-0.22281304,-0.39679486,-0.6111096,6.22612,-14.091339,14.778076,-3.742981,-40.753174,-13.899231,7.7109337,1.9256305,5.7448964,6.970957,-22.25165,14.75201,-3.8833313,0.21136475,5.5084534
2019-07-01T19:03:13.569Z,-0.45967683,0.46410394,-0.62233865,8.121246,-14.416763,19.93222,-29.136658,-3.9672852,-21.148682,1.6851267,-9.553199,1.4377478,8.621546,-16.643032,14.95488,-1.5584259,1.6719666,11.67482
2019-07-01T19:03:13.778Z,0.22238691,0.34168434,-0.5514047,16.383652,-8.511276,3.6490479,-11.453247,21.954346,-34.944153,-7.2827353,-0.5206278,6.5468388,10.510654,-9.115605,2.284761,4.7344513,0.51130676,7.2461243
2019-07-01T19:03:13.976Z,0.08877891,0.20344578,-0.48976046,10.4566345,-3.115448,8.494522,2.7191162,11.00769,-43.71643,-4.2170753,-0.48617092,8.840266,13.016867,-3.1622243,1.52051,-0.81256104,-0.89338684,1.2449951
2019-07-01T19:03:14.187Z,-0.011084612,0.22880891,-0.5447875,3.7088776,-1.9477539,8.157135,1.9729614,20.69397,-39.224243,-3.5016894,-2.6202185,8.777415,7.2113056,-1.6760914,6.3480954,-0.7719879,0.515152,-0.76971436
2019-07-01T19:03:14.379Z,-0.026041642,0.21272372,-0.54493463,4.7282104,-2.7086792,8.250458,2.557373,22.610474,-37.19635,-3.1037786,-2.687622,8.90582,5.1921134,-1.5157655,4.800726,-0.0021820068,0.28778076,0.060821533
2019-07-01T19:03:14.592Z,-0.020678217,0.2116613,-0.517232,3.0867462,-2.5435638,8.504089,7.6644897,23.536682,-37.368774,-3.231723,-2.483441,8.919578,5.466981,-2.1846907,5.072468,0.08798218,0.516922,0.36094666
2019-07-01T19:03:14.788Z,-0.0076899063,0.19492069,-0.48231852,4.455429,-2.8809662,10.200607,14.710999,21.321106,-39.39209,-3.1921282,-1.972726,9.060301,4.7501793,-2.1917872,5.7442956,0.24412537,0.3622589,0.39186096
2019-07-01T19:03:14.989Z,0.01611639,0.18930905,-0.44829676,3.7375946,-2.2947235,9.193222,18.385315,18.791199,-38.848877,-3.38484,-1.3884178,9.098657,3.6508446,-2.253377,5.303731,0.34179688,0.4267578,0.2966919
2019-07-01T19:03:15.200Z,-0.0011844239,0.21315466,-0.4368639,0.37806702,-3.0628204,8.011169,21.214294,15.179443,-37.583923,-3.6433654,-1.8466834,8.915494,3.359748,-1.1032565,6.1215067,-0.13345337,0.5460663,-0.24417114
2019-07-01T19:03:15.410Z,-0.16109294,0.19164255,-0.40137517,1.2466583,-5.2139587,9.286545,18.164062,23.841858,-34.111023,-2.0434082,-4.2923484,8.577332,2.401539,-1.4047823,5.9966793,-1.326355,-0.5357208,-0.4552307
2019-07-01T19:03:15.601Z,0.015174098,0.36123782,-0.39357185,-3.7208405,-3.385849,8.432312,26.690674,22.680664,-27.75116,-6.1054935,-2.5369363,7.24274,3.2039716,-2.9039378,2.654471,1.1371613,2.7158813,0.33413696
2019-07-01T19:03:15.805Z,-0.003560472,0.43830013,-0.336917,-7.750351,-1.1964111,13.445267,39.79492,15.011597,-16.784668,-7.139834,-2.9545019,6.038549,-1.2278221,1.530106,7.134997,-0.06210327,1.2111816,-0.49627686
2019-07-01T19:03:16.014Z,-0.24157467,0.37936416,-0.13297698,-1.7802582,-4.7569275,8.118851,37.36725,21.45996,-13.41095,-5.941466,-5.174094,5.83936,-0.7144339,-1.2005422,5.4560294,-2.297943,-1.0622253,0.18984985
2019-07-01T19:03:16.213Z,-0.16233154,0.14872977,0.11257457,-4.5798645,-9.360718,4.898102,35.96649,24.205017,-12.719727,-3.1849139,-2.7565942,8.855953,-1.7500699,-4.825802,1.2862725,0.5167084,-3.0688171,2.105835
2019-07-01T19:03:16.415Z,-0.11180857,0.24940036,-0.286615,-2.7350006,-1.1413727,12.198608,31.08368,10.113525,-33.13141,-3.8630629,-3.415619,8.341503,-3.4899857,-3.200132,2.8323226,1.2262726,1.660965,-4.2552643
2019-07-01T19:03:16.622Z,-0.16748685,0.20603141,-0.16949137,0.624527,2.0291138,6.357727,26.835632,28.549194,-21.730042,-3.278457,-3.8026392,8.423897,1.533196,5.649444,8.551685,-0.5863495,-0.16999817,-0.14466858
2019-07-01T19:03:16.819Z,-0.13076878,0.0142982295,0.2639142,-6.417557,-7.566101,7.532608,30.325317,20.716858,-25.128174,-0.9448546,-2.3767486,9.467244,-4.3197117,-3.0387268,0.6777444,0.085235596,-2.6955109,3.7218933
2019-07-01T19:03:17.019Z,-0.101321384,0.080536984,0.065587714,-0.38763428,0.6388855,11.277374,28.956604,6.4331055,-37.342834,-1.6932181,-1.8626136,9.478084,-1.3254982,-2.8429651,3.9015503,0.635025,0.8415375,-2.4421997
2019-07-01T19:03:17.217Z,-0.07429335,0.10581648,0.0338404,0.062210083,2.6033936,10.925629,29.803467,16.999817,-29.716492,-2.106102,-1.3738331,9.478783,1.3394883,3.8983424,5.3113723,0.31718445,0.5648804,-1.2586517
2019-07-01T19:03:17.417Z,-0.0981324,0.041309852,0.4275098,-3.1130676,1.5840454,8.676376,32.000732,14.245605,-31.64978,-1.5501801,-1.3814613,9.584304,-0.45121646,2.3694134,2.8415618,-0.83180237,-0.85350037,3.6287994
2019-07-01T19:03:17.624Z,-0.1258296,0.019432263,0.86408913,-6.4247284,3.9601288,8.303101,29.307556,-11.030579,-38.497925,-2.318114,-0.8724775,9.488705,-3.2814305,4.36976,3.0127316,-1.1008759,-0.63731384,6.3206635
2019-07-01T19:03:17.828Z,0.15100214,-0.014991434,-0.9580099,-7.7407837,2.6871338,7.377075,-4.9224854,-18.676758,-41.59851,-2.7657547,1.0022289,9.355026,-6.9242334,2.086043,2.204207,-0.90864563,-0.0995636,7.2615204
2019-07-01T19:03:18.075Z,0.15379462,-0.007649513,-0.83698595,-6.5108643,0.6149597,8.740982,-14.543152,-3.3538818,-41.1026,-2.4459176,1.709535,9.341594,-4.4972057,0.24007654,3.5938702,-0.32202148,0.0874176,2.8046722
2019-07-01T19:03:18.282Z,0.016609646,-0.05451067,-0.59648246,-0.17468262,-4.175476,12.404388,-18.395996,11.174011,-39.193726,0.66163343,0.89853144,9.74296,-3.19385,-2.9433255,3.9794316,-0.6498108,-1.1277161,3.9601898
2019-07-01T19:03:18.486Z,0.042851325,0.035192326,-0.13708186,-0.6053772,-1.9525452,6.994217,-4.1915894,21.907043,-41.970825,-0.7978607,0.73659724,9.746344,0.25717503,-2.448484,2.1503434,0.13887024,1.1141205,4.896164
2019-07-01T19:03:18.645Z,-0.09774071,0.13070583,0.2834036,3.144165,-2.2157593,11.928223,33.898926,17.141724,-31.666565,-2.9658933,-1.0850766,9.284205,4.4051657,-2.3247929,3.608829,-1.6237793,1.4120941,3.7342987
2019-07-01T19:03:18.928Z,-0.08774961,0.03226687,0.38630167,2.6033936,-3.0197449,10.935196,34.762573,13.500977,-34.329224,-1.2455741,-1.3348069,9.635207,0.6133996,-2.073488,3.8631616,-0.27804565,-0.9472046,0.5724945
2019-07-01T19:03:19.134Z,-0.1058676,0.01278197,0.44394103,-1.282547,-2.9120636,12.583847,34.84497,9.786987,-33.958435,-1.1448468,-1.7360656,9.583621,2.003462,-1.0808591,4.7164536,-0.2250824,0.018218994,0.20315552
2019-07-01T19:03:19.337Z,-0.072508454,0.036943093,0.46560663,-1.9549408,-0.8757782,7.1066895,33.605957,10.56366,-32.164,-1.3006803,-0.91587394,9.676765,-1.2569795,-0.09525108,1.0959344,0.43165588,0.03794861,0.004257202
2019-07-01T19:03:19.543Z,-0.08232812,-0.033818457,0.48049048,-0.13639832,1.7276154,10.892136,32.88269,10.665894,-32.41577,-0.19715731,-1.7275085,9.651281,0.56718636,-0.51840913,3.0315375,-0.4201355,-0.5440979,-0.08847046
2019-07-01T19:03:19.747Z,-0.07139001,-0.11752849,0.5537533,1.1940155,-2.5842438,8.104492,29.728699,10.8428955,-35.57129,1.1177138,-2.4263747,9.435773,-0.71336186,1.1400563,3.4893785,-0.39697266,-0.91171265,0.7338867
2019-07-01T19:03:20.017Z,-0.057110008,-0.23436132,0.7551073,0.22732544,-4.926819,6.867401,26.098633,9.161377,-37.80365,1.9563322,-4.153761,8.665416,-0.16352189,-0.5704138,3.2319803,-0.2568512,-1.3961334,1.5137787
2019-07-01T19:03:20.160Z,-0.15256648,-0.276597,0.78312105,-0.82073975,-8.865402,9.693329,25.186157,5.101013,-38.89618,0.56262356,-5.8513093,7.8495874,-1.0282847,-1.5216618,3.9702225,-0.9078522,0.26879883,0.929245
2019-07-01T19:03:20.368Z,-0.26557228,-0.4127097,0.7373847,1.031311,-11.870789,11.344376,17.036438,1.7532349,-43.850708,-0.083998725,-8.38631,5.082631,0.6358813,-0.91188383,-2.1823468,-1.8870087,0.332016,0.20524597
2019-07-01T19:03:20.569Z,-0.27430084,-0.49819732,0.6780704,2.0410767,-7.1808624,2.9910278,19.9646,25.984192,-31.860352,0.9014862,-9.130503,3.4628944,0.44355208,0.36107635,3.8186061,-1.0476837,-0.26882935,-0.4320221
2019-07-01T19:03:20.777Z,-0.23086224,-0.38338867,0.7327244,1.1126556,-7.779068,11.263016,22.250366,21.710205,-34.487915,0.53727734,-7.831089,5.878415,0.9345819,-0.36695766,1.961544,1.3541412,0.43751526,0.017333984
2019-07-01T19:03:20.977Z,-0.2150321,-0.43176457,0.8091599,-2.1607208,-8.949158,4.926819,21.331787,15.911865,-37.216187,-0.57098705,-8.267454,5.2434306,-0.22341186,-1.4726686,-2.7722216,-0.30455017,-0.9855652,1.427414
2019-07-01T19:03:21.182Z,-0.3805655,-0.33145103,0.7667582,-3.4145508,-7.1401825,3.7040863,27.957153,19.073486,-30.72815,-3.1441357,-7.945804,4.8113413,-0.73497844,-1.41436,1.309844,0.22860718,1.9897308,0.36039734
2019-07-01T19:03:21.389Z,-0.6235742,-0.23002489,0.6550552,-8.049454,-6.754944,0.59820557,39.711,8.865356,-23.924255,-6.390241,-7.350526,1.1423519,-1.1342177,-1.0672703,1.2909628,-0.7867737,2.652893,1.0431671
2019-07-01T19:03:21.599Z,-0.71464545,-0.16263139,0.5983131,-9.126221,-6.08255,-2.096115,46.858215,2.5222778,-0.21209717,-7.3534126,-6.4471936,-0.7289697,-1.6714225,-1.1789575,-1.0671558,-0.19215393,1.1473541,0.6687622
2019-07-01T19:03:21.798Z,-0.75313777,-0.08895194,0.5667184,-7.704895,-5.314453,-2.411972,43.692017,-4.0542603,12.243652,-7.8094687,-5.7455454,-1.4735272,-0.8934603,-0.44680405,-0.9621409,0.28327942,0.69010925,0.50901794
2019-07-01T19:03:21.893Z,-0.7593959,-0.09178565,0.5623452,-7.9489594,-5.11586,-3.562912,41.56189,-8.042908,19.599915,-7.8102593,-5.6906877,-1.6692234,-1.1915507,-0.50881624,-1.38286,-0.06607056,0.03465271,0.0079956055
2019-07-01T19:03:22.093Z,-0.75780576,-0.11847089,0.57285297,-7.25264,-5.4723816,-1.8257294,40.59601,-8.111572,20.002747,-7.842779,-5.62686,-1.7319514,-1.0149131,-0.25390768,-1.129178,-0.30711365,-0.21879578,-0.041122437
2019-07-01T19:03:22.292Z,-0.74375534,-0.14631106,0.5963984,-7.659424,-5.2833557,-2.096115,41.22467,-8.125305,18.086243,-7.9421887,-5.5634885,-1.4627395,-0.9909663,-0.17928648,-1.3430514,-0.25427246,-0.40046692,-0.028167725
2019-07-01T19:03:22.496Z,-0.6360506,-0.18521886,0.7061653,-9.133408,-5.264206,0.71066284,43.026733,-8.407593,13.349915,-7.9015203,-5.683193,1.199033,-1.8436885,-0.1290946,-2.1635475,0.21231079,-1.6376648,-0.106674194
2019-07-01T19:03:22.703Z,-0.17442738,-0.21930163,0.92378616,-3.8117676,-4.5296173,4.886139,44.73419,-6.9335938,-2.5039673,-2.0379057,-4.866191,8.266651,-5.0266857,-0.8941841,-1.7860203,1.630127,-5.107895,-0.82284546
2019-07-01T19:03:22.905Z,-0.066386975,-0.17986543,0.9535591,-0.8039856,-3.000595,7.35553,29.086304,-7.421875,-35.86731,-0.42207846,-3.6664011,9.085689,-1.395385,-1.3863275,0.10068035,0.7507782,-1.0630798,0.12136841
2019-07-01T19:03:23.106Z,0.07682364,-0.12612422,0.9756893,2.0291138,-1.7395782,10.00679,16.851807,-14.334106,-38.885498,1.8707023,-2.1695843,9.378901,-0.7004565,-0.61702335,1.1570292,0.86146545,-1.4078674,0.47065735
2019-07-01T19:03:23.301Z,0.09681914,-0.12113877,0.9815614,1.9788666,-1.450058,9.765106,5.177307,-21.50879,-40.776062,2.1294453,-2.1199102,9.334978,-0.21250463,0.5630206,1.2056379,0.117614746,-0.26242065,0.49465942
2019-07-01T19:03:23.510Z,0.11967925,-0.11551793,0.98306996,2.6895294,-1.6869354,8.209778,1.1169434,-22.363281,-40.782166,2.4816835,-2.0469391,9.263999,0.17900157,-0.09182596,1.2221785,0.11999512,-0.27775574,0.34475708
2019-07-01T19:03:23.712Z,0.11156963,-0.15620221,0.9805153,2.3784637,-3.275772,10.66481,-1.5670776,-23.208618,-39.486694,2.273509,-2.912594,9.083961,0.44718003,0.6830516,1.3698854,-0.39318848,-0.0012664795,0.46009827
2019-07-01T19:03:23.922Z,-0.2613213,0.23810925,-0.9349387,6.0586243,-4.043869,8.611771,-5.619812,-17.913818,-42.39502,4.65144,-4.5204287,7.355285,-0.20454073,0.51366997,2.1425323,-0.8016815,-1.7029724,0.51109314
2019-07-01T19:03:24.171Z,0.22975576,-0.18390861,0.9522988,3.7734833,-2.9072723,9.611969,-11.312866,-14.758301,-37.28943,4.582501,-3.071217,8.107941,0.17896652,-0.213619,0.43855476,0.2635498,0.59817505,-1.1052551
2019-07-01T19:03:24.339Z,0.19555095,-0.21635373,0.9477193,4.2951202,-3.4432678,6.546768,-9.109497,-11.6744995,-40.301514,4.1845474,-3.524748,8.1385565,0.12579942,-0.15715122,0.59463215,-0.46514893,0.3665924,-0.33073425
2019-07-01T19:03:24.554Z,0.18683952,-0.21137774,0.95231235,4.6205444,-3.6394806,8.085342,-2.5115967,-13.269043,-41.275024,3.9716945,-3.5221467,8.245637,0.4931252,-0.30647445,0.65173197,0.07833862,0.069107056,0.15808105
2019-07-01T19:03:24.760Z,0.098623656,-0.1473398,0.9719299,1.8424683,-2.725418,9.937393,-1.9821167,-19.503784,-41.35742,2.326949,-2.5095577,9.190094,0.3295939,-0.48698258,1.0317612,0.5201721,1.0295715,-0.21485901
2019-07-01T19:03:24.970Z,0.23001896,-0.09704549,0.9661327,3.883545,-1.6103668,9.178864,-18.217468,-22.087097,-35.328674,4.4828877,-1.5444278,8.584221,-1.7932811,-0.4570837,1.2577119,0.76023865,-1.4013824,0.54115295
2019-07-01T19:03:25.219Z,-0.28351903,0.09281791,-0.9483353,5.721237,-2.486145,7.7455597,-28.23639,-18.18695,-31.855774,5.0768566,-2.3269184,8.061101,1.408813,-0.79384303,-0.33169508,1.2497406,0.6411133,0.3990631
2019-07-01T19:03:25.416Z,-0.20540635,0.17580293,-0.9407912,3.4552307,-3.7040863,8.829514,-26.419067,-18.630981,-33.83484,3.0850875,-4.0677214,8.372949,1.6776989,1.07638,-0.47457647,-0.451828,0.7809448,1.2876282
2019-07-01T19:03:25.622Z,-0.122049354,0.15836233,-0.9410766,1.0408783,-3.349945,8.346161,-23.165894,-9.407043,-39.489746,1.4055334,-3.5759313,9.022615,0.8075267,-0.7999656,0.16608906,0.5203552,0.6255951,0.837677
2019-07-01T19:03:25.868Z,-0.15746297,0.2593418,-0.88843757,2.548355,-6.6927185,9.056839,-22.55249,-8.195496,-39.87274,0.99190754,-5.5827804,8.001191,-0.19219548,0.5446377,1.018815,-1.1255035,-0.2037201,0.8525696
2019-07-01T19:03:26.063Z,-0.4777708,0.21164398,-0.8197167,8.446671,-5.4340973,5.962921,-35.466003,-1.6159058,-30.830383,6.707727,-5.600417,4.4510794,-1.8808198,0.12719631,1.6760416,-1.219635,-2.7958832,-1.9044647
2019-07-01T19:03:26.289Z,-0.55975246,0.13259538,-0.81397957,8.930008,-2.1176453,2.7589264,-40.78064,-14.894104,-18.666077,8.72615,-3.0042243,3.3165238,0.8605881,-0.7792177,0.91944623,-0.37034607,-0.5619812,-1.8479004
2019-07-01T19:03:26.487Z,-0.5812079,0.12359008,-0.8042249,9.08316,-2.3306122,3.0173492,-36.538696,-22.85614,-17.970276,9.138474,-2.086815,2.8816426,0.46721458,-1.3219818,0.6527889,-0.32757568,-0.1733551,-0.6678772
2019-07-01T19:03:26.691Z,0.58702624,-0.11004581,0.8019033,9.054443,-0.84706116,2.8594208,-36.47003,-27.01416,-16.705322,9.2662525,-1.5519761,2.810392,0.60719776,0.14044261,0.17530179,-0.051956177,-0.028213501,-0.30429077
2019-07-01T19:03:26.898Z,-0.53488994,0.14557725,-0.83224684,8.27916,-2.1176453,3.8476562,-34.822083,-23.67096,-20.32013,8.708014,-2.4609754,3.779483,0.2724886,0.8771472,-0.027468443,-0.07896423,0.5654907,0.51426697
2019-07-01T19:03:27.100Z,-0.54499775,0.17549638,-0.81849706,9.4253235,-3.3020935,3.0460663,-36.816406,-19.648743,-20.17517,8.586138,-3.323339,3.3769884,0.8265257,-0.0071606636,0.4259138,-0.07817078,-0.2164154,0.48532104
2019-07-01T19:03:27.299Z,0.51451796,-0.1941522,0.83519787,9.317657,-3.0101776,4.5056915,-36.08551,-19.224548,-21.55304,8.445624,-3.1345255,3.8751204,1.3693485,-0.040045023,-0.41550493,-0.33485413,0.45663452,-0.24650574
2019-07-01T19:03:27.500Z,0.54227567,-0.2653613,0.7958183,11.028519,-3.9625092,0.85902405,-33.102417,-18.339539,-25.801086,8.707944,-3.643777,2.6580043,-0.46322823,0.86224914,1.2179935,-0.921463,-0.39968872,-0.03239441
2019-07-01T19:03:27.709Z,0.56857175,-0.30748913,0.7514594,7.405792,-4.261612,2.4550323,-37.147522,-11.611938,-25.24414,9.177427,-3.057361,1.6117545,0.31603622,-1.1149802,0.6969203,-0.94914246,-0.2571106,-0.58473206
2019-07-01T19:03:27.911Z,0.43807402,-0.14753665,0.8798704,5.9653015,-2.8211365,10.473389,-29.489136,-21.496582,-29.38385,7.8789053,-1.5988995,5.615761,-0.5707569,-1.6650969,0.187747,1.5615845,1.9241943,-0.21461487
2019-07-01T19:03:28.111Z,0.21633147,-0.14662793,0.90546966,4.955536,-0.62213135,9.061615,-5.343628,-21.038818,-41.078186,4.803581,-1.185137,8.467081,0.34835577,-0.6360465,1.2857046,-1.200882,2.4241943,-1.8259583
2019-07-01T19:03:28.313Z,0.012289011,-0.121782325,0.8528578,3.4002075,-0.74417114,9.568893,16.868591,-11.31134,-43.33191,1.4179778,-1.9147521,9.512805,1.1124377,0.8681848,0.27177143,-1.0815125,2.115509,-0.6414795
2019-07-01T19:03:28.516Z,0.017072419,-0.11034717,0.8409539,0.55752563,-1.5218353,9.365509,23.745728,-7.1533203,-41.029358,1.4274874,-1.6427649,9.562112,-0.31545913,0.21007872,0.53394794,0.10057068,0.03012085,-0.24465942
2019-07-01T19:03:28.719Z,0.08308485,-0.13167982,0.81539154,2.0937195,-1.0337067,8.853439,24.935913,-7.739258,-39.990234,2.7687812,-1.1972796,9.331172,-1.610832,-0.4519359,0.46544743,0.14633179,-0.6983948,-0.48301697
2019-07-01T19:03:28.921Z,0.11308788,-0.091006674,0.79665715,3.048462,-0.28953552,9.552155,18.751526,-10.681152,-42.44995,2.814307,-0.1205766,9.393377,0.090873,-0.2396944,-0.015254021,0.457016,0.010818481,-0.442276
2019-07-01T19:03:29.187Z,0.07947118,-0.059984263,0.8105288,2.371292,-1.0408783,12.279968,22.039795,-11.279297,-40.515137,1.9424036,-0.053942867,9.612209,1.1067493,0.025429934,0.47065544,0.06794739,0.4946289,0.14494324
2019-07-01T19:03:29.380Z,0.097930536,-0.102198586,0.80459106,2.9742737,-0.37327576,9.485153,19.795227,-9.011841,-42.077637,2.701405,-0.5050469,9.413699,-0.009752035,-0.058499753,0.5102415,-0.24664307,-0.4086609,-0.024871826
2019-07-01T19:03:29.587Z,0.021003513,-0.13909496,0.8265268,1.9908295,-2.7062836,10.470993,22.273254,-6.0897827,-39.997864,1.8274068,-2.0303304,9.418531,0.93696964,0.5001546,1.2723083,-0.7120056,0.41485596,0.54164124
2019-07-01T19:03:29.777Z,0.039643858,-0.1017708,0.84088737,1.6654053,-3.041275,12.988235,24.557495,-10.746765,-40.58838,1.7118915,-1.2663046,9.572684,-0.30586743,-1.368216,0.9239569,0.4648285,0.023529053,0.11488342
2019-07-01T19:03:29.982Z,0.08393316,0.13448691,0.8884919,-2.148758,2.904892,8.374878,23.05603,-30.244446,-30.375671,0.32672867,3.0525258,9.313739,-2.1242313,-2.995364,2.5544024,2.4783783,0.7612152,0.83662415
2019-07-01T19:03:30.186Z,0.0952919,0.23180386,0.9487153,1.105484,1.5266266,10.334595,11.500549,-40.187073,-22.41211,0.8971294,4.6733932,8.574669,-0.87805474,-2.0101576,-0.57005596,1.0831451,0.7582855,2.3138428
2019-07-01T19:03:30.398Z,0.23694542,0.302945,0.90866774,0.4139557,4.577469,7.2335052,2.5009155,-42.796326,-16.532898,3.2573385,6.1542315,6.905475,-2.2594707,-3.3062897,1.96344,1.1259155,-1.3349762,0.4828186
2019-07-01T19:03:30.589Z,0.4394136,0.39950585,0.7935872,2.9144592,7.9537354,0.110076904,-4.1519165,-46.403503,-3.479004,5.8019676,7.3593335,2.8892498,-4.0074596,-0.33038235,0.47938633,1.6486969,-1.9928894,0.5391388
2019-07-01T19:03:30.797Z,-0.51413894,-0.3802222,-0.75143105,7.458435,1.7826538,-0.007171631,-20.01648,-40.281677,11.181641,8.790088,3.9639282,1.7866198,-2.793562,1.0450373,-2.0081143,1.574173,0.5079498,2.7835999
2019-07-01T19:03:31.000Z,-0.5383896,-0.18943566,-0.6732796,8.106888,-6.2811584,3.115448,-39.645386,-15.075684,14.247131,8.856006,-2.461978,3.417632,0.06274891,-0.12748837,-2.6385472,0.6000824,1.0865631,3.6790009
2019-07-01T19:03:31.198Z,-0.5495511,-0.029390413,-0.5525189,8.472992,-10.303497,4.4482574,-44.5282,12.127686,8.659363,6.3161736,-6.428651,3.8663652,1.9161825,-2.3430943,-0.46838784,0.021774292,0.34594727,2.6029053
2019-07-01T19:03:31.401Z,-0.62197345,-0.06277358,-0.4564302,6.587448,-8.149948,2.9886322,-37.054443,21.534729,16.082764,6.3475037,-7.1618214,2.1419394,0.8763037,-2.3188639,0.5060153,-0.20993042,-1.1978455,0.4838562
2019-07-01T19:03:31.611Z,-0.57553947,-0.12595034,-0.4548325,5.967697,-6.9655,5.6614227,-34.99756,21.932983,19.630432,6.7840347,-6.4152246,2.9986937,-0.7042761,-0.9868736,0.1730423,0.8345337,-0.2118988,-0.30252075
2019-07-01T19:03:31.810Z,-0.36233178,-0.19938423,-0.49600208,6.5563354,0.6029968,9.633499,-38.609314,24.568176,6.3430786,6.5106087,-3.4862254,6.452023,1.1307225,-0.96671486,0.19101381,2.2944489,0.89419556,-0.5837555
2019-07-01T19:03:32.013Z,-0.19951524,-0.19000278,-0.79773235,5.333603,4.546356,9.322433,-40.11078,-1.1276245,-20.724487,5.1205544,0.87383336,8.317856,-2.0502076,2.7311664,1.0795698,-0.39465332,1.425354,-4.0536194
2019-07-01T19:03:32.206Z,-0.009428844,0.07718279,0.99629635,2.177475,8.130814,8.377274,-15.779114,-26.348877,-28.744507,-0.23981479,1.5014142,9.6880665,4.537176,3.2528868,-0.9403448,-1.702591,1.679657,-7.2369385
2019-07-01T19:03:32.412Z,0.11061998,0.08876565,0.94974756,5.654236,5.8002014,8.188232,4.197693,-33.787537,-28.546143,1.5747888,2.2589107,9.412107,5.5417213,3.6919312,-0.7745199,0.35487366,-1.1078644,-2.4307861
2019-07-01T19:03:32.615Z,0.13736713,-0.032565042,0.9305831,4.388443,2.096115,8.398804,4.161072,-29.87976,-34.46808,2.7229311,0.31564176,9.415753,3.274464,2.8866556,-0.16227913,-1.1976471,-0.61634827,-0.35162354
2019-07-01T19:03:32.813Z,0.17051362,-0.054508757,0.9171331,4.359726,1.7395782,12.323044,4.13208,-26.51062,-36.650085,3.4479258,0.21047735,9.178121,2.1981442,1.2844865,0.20533752,-0.1630249,-0.33700562,-0.2043457
2019-07-01T19:03:33.009Z,0.2491996,-0.011928881,0.90253013,5.5345917,1.9429779,7.625931,4.772949,-30.94635,-32.522583,4.49335,1.5043663,8.585864,0.89325714,0.9329885,-0.8398814,0.65444946,-0.5707855,-0.12120056
2019-07-01T19:03:33.209Z,0.01687682,0.048188232,0.85401773,-2.926422,1.1222382,12.315857,22.348022,-24.978638,-30.970764,-0.206636,0.9785327,9.75552,4.8349795,-1.4139521,1.8015375,-0.67108154,2.3998718,-1.91716
2019-07-01T19:03:33.430Z,0.18525214,0.56080776,0.37473404,-10.107285,-0.7657013,-2.5986023,43.18695,-22.566223,-13.13324,-6.4992833,6.718489,2.9650655,1.5904884,-5.2971215,1.5425243,5.369385,-1.1685181,-2.5888214
2019-07-01T19:03:33.625Z,0.39919087,0.6597627,0.027239565,-10.758133,0.8063812,-6.214157,45.50934,-12.242126,-3.6819458,-8.017887,5.3327637,-1.8562056,-3.664384,-5.0821595,-4.7436566,3.877884,-0.2661438,-1.1248016
2019-07-01T19:03:33.826Z,0.48613578,0.53024006,-0.0948827,-8.855835,1.5625153,-2.8187408,47.665405,-1.5258789,-4.2297363,-8.061004,5.574318,-0.34289026,-1.4158225,-3.6121087,-4.028418,0.9313507,-1.673645,0.481781
2019-07-01T19:03:34.028Z,0.47621664,0.5152459,-0.16471182,-10.384857,3.5748749,-1.7706909,45.021057,-6.184387,-17.980957,-8.544296,4.810649,0.15179415,-2.42058,-2.2845492,-0.7165015,0.20655823,-0.48147583,-0.36683655
2019-07-01T19:03:34.246Z,0.43057153,0.5027935,-0.2221564,-10.693527,2.313858,-0.9643097,42.73987,-4.0405273,-23.040771,-8.93549,3.8545918,1.212237,-1.1384735,-0.4236858,-1.7392724,-0.16955566,-0.5980377,-0.5149231
2019-07-01T19:03:34.441Z,0.3633049,0.4890753,-0.28392985,-10.724625,3.488739,-2.0554352,40.35492,0.93536377,-26.835632,-9.125415,2.5522687,2.5264852,-2.8203878,1.1794884,-2.5289485,-0.30589294,-0.72979736,-0.679657
2019-07-01T19:03:34.646Z,0.24943556,0.5960705,-0.3943678,-10.207779,0.8111725,-4.0390778,38.024902,7.3013306,-31.184387,-9.568407,-1.4138291,1.6177406,-2.952816,2.761084,-3.147203,-0.30932617,0.40971375,-2.203537
2019-07-01T19:03:34.851Z,0.24869867,0.6753633,-0.5014863,-6.546768,-5.883957,-0.1651001,33.203125,22.447205,-23.220825,-8.806279,-4.3006587,-0.35238528,1.6124024,0.35655832,-0.24908614,0.7567749,1.3260193,-1.5820465
2019-07-01T19:03:35.050Z,0.39046815,0.6143845,-0.59768385,-6.2069855,-5.1517487,2.0027924,28.85437,25.260925,-18.917847,-8.625122,-4.6295767,-0.5870983,0.58312273,-1.7812033,2.1301937,1.9376984,1.254364,0.015991211
2019-07-01T19:03:35.260Z,0.5048312,0.5261696,-0.6575784,-8.453842,-6.448654,0.8829498,31.060791,20.092773,-18.655396,-8.465797,-4.910588,-0.62191784,-0.06664801,-1.1155777,0.7547723,1.8912811,1.0958405,0.0068359375
2019-07-01T19:03:35.461Z,0.54256886,0.49542496,-0.67577666,-9.724426,-5.8695984,1.0839539,33.955383,14.450073,-18.110657,-7.7661066,-5.936986,-0.78113586,-2.1757808,-1.006105,0.70344234,1.0939636,0.8405609,-0.5634155
2019-07-01T19:03:35.664Z,-0.361019,-0.31835535,0.8228917,-3.4911346,-4.381256,7.7982025,32.302856,15.286255,-17.947388,-3.941432,-7.276064,5.2625456,-2.9955108,1.7961245,-1.5231957,4.1584015,-0.2518463,-2.7037811
2019-07-01T19:03:35.865Z,-0.042921066,-0.24013002,0.71995515,2.5435638,-2.251648,8.810379,19.691467,12.658691,-31.48346,2.454025,-3.9377682,8.639567,-2.277893,0.40846324,-0.54745054,2.7198029,-1.0817108,-4.247574
2019-07-01T19:03:36.069Z,0.017058233,-0.17755859,0.66143584,2.1798553,-1.1916199,14.464615,7.608032,9.635925,-36.964417,2.758238,-2.0597303,9.182594,0.73744106,1.1921186,3.377633,0.66960144,0.17930603,-1.0621948
2019-07-01T19:03:36.269Z,0.07565867,-0.110398956,0.67774695,1.931015,1.3830566,9.037689,8.261108,6.4071655,-37.95166,2.5712497,-0.39462745,9.455334,0.06664729,0.17971483,1.2865944,0.8988495,0.108078,0.009887695
2019-07-01T19:03:36.479Z,0.08331715,-0.13104637,0.6835408,3.632309,0.1531372,8.985046,11.305237,2.607727,-38.923645,2.9500995,-0.5914113,9.333678,-0.8627305,1.4805775,-0.49327564,-0.0960083,-0.2312622,0.18875122
2019-07-01T19:03:36.672Z,0.09534802,-0.15763082,0.6334901,5.403,0.24645996,14.799606,9.877014,3.251648,-40.170288,3.5080647,-0.5531649,9.141,0.028287172,0.6454953,2.1739578,-0.2104187,-0.2902069,-0.57984924
2019-07-01T19:03:36.882Z,0.062012043,-0.113142595,0.535146,-2.170288,1.8089752,7.228714,6.9595337,8.155823,-39.579773,2.5034893,-0.17214882,9.480153,-0.7866874,0.6557915,0.7571564,-0.21633911,0.56915283,-1.1992035
2019-07-01T19:03:37.081Z,0.042766567,-0.11305898,0.5308259,1.529007,1.4763641,9.930222,7.9299927,11.785889,-38.57727,2.3052945,-0.47349155,9.520075,-1.2295158,1.6837181,-0.42303085,-0.18849182,0.06652832,0.09779358
2019-07-01T19:03:37.280Z,0.030225094,-0.115294576,0.5577658,-0.30867004,-0.15553284,13.875977,4.0649414,13.645935,-39.248657,2.1880794,-0.77434504,9.528016,-0.74204254,1.4969139,2.337885,-0.09007263,-0.010925293,0.51194763
2019-07-01T19:03:37.482Z,0.034446694,-0.08846811,0.6211117,0.3397827,-0.29431152,9.578476,2.7877808,15.90271,-40.246582,1.7694936,-0.5521292,9.629872,-1.663693,0.11538464,1.4374714,0.3037567,0.09945679,0.89711
2019-07-01T19:03:37.690Z,0.05257908,-0.08174696,0.6416529,-0.1603241,1.7922211,6.86261,4.472351,12.380981,-41.79077,1.8815347,-0.24419327,9.621362,-1.1451032,1.2413931,-0.9992733,0.20820618,-0.10658264,0.43553162
2019-07-01T19:03:37.929Z,0.034838784,-0.078021325,0.67924464,2.4143524,0.5120697,7.831711,2.7633667,13.571167,-40.571594,1.5795655,-0.54134375,9.663452,0.40363657,1.0781438,1.1534481,-0.054595947,0.13562012,0.7468872
2019-07-01T19:03:38.132Z,0.048219718,-0.02157943,0.6827311,0.933197,1.6988983,9.092728,8.692932,11.729431,-43.75763,0.9541336,0.40025905,9.751914,0.55807155,-0.5708548,0.7964401,0.5276947,0.33488464,0.0973053
2019-07-01T19:03:38.298Z,0.08387514,0.034696113,0.68031025,1.3088684,3.5461578,7.800598,12.95929,4.8080444,-45.414734,0.6242376,1.6593833,9.645059,0.18809348,0.4049549,-0.7270994,0.64930725,0.18663025,0.0766449
2019-07-01T19:03:38.495Z,-0.017590694,0.07238775,0.6627652,-2.8307037,1.0887299,9.908676,16.018677,4.107666,-41.531372,-1.2865447,0.68389666,9.697807,2.5080743,1.5833803,-0.084754944,-0.551651,1.0597382,-0.11479187
2019-07-01T19:03:38.698Z,-0.11092985,0.14016728,0.5966188,-7.8341064,1.552948,6.6065826,29.328918,8.937073,-33.239746,-3.4488947,-0.06199977,9.17996,-0.9469936,1.3158386,0.8253441,-0.2765808,1.1286469,-0.6143036
2019-07-01T19:03:38.905Z,-0.10653412,0.08607931,0.56009823,-4.965103,0.5288086,8.243271,31.391907,11.383057,-30.259705,-2.549701,-0.76154983,9.438721,-1.4787726,1.7398794,-0.121406555,-0.30192566,-0.5177002,-0.38912964
2019-07-01T19:03:39.114Z,-0.12740807,0.060215827,0.52915674,-4.2879333,0.39959717,8.178665,27.961731,12.637329,-33.262634,-2.3105223,-1.4659739,9.417154,-1.5459523,1.0989351,-0.72874355,-0.33790588,-0.14390564,-0.30941772
2019-07-01T19:03:39.317Z,-0.17871264,0.0036517214,0.5475675,-2.6416779,-2.4526367,9.973282,26.774597,18.154907,-31.182861,-1.9778504,-2.826049,9.179975,-2.3817453,1.71611,0.81000614,-0.8580017,-0.31800842,0.26382446
2019-07-01T19:03:39.540Z,-0.18827663,-0.06165596,0.5945597,-0.36610413,-3.8404846,10.344177,24.699402,20.805359,-33.57849,-1.2532029,-3.5965886,9.036838,-1.1845891,0.7099941,0.13855553,-0.5408325,-0.62802124,0.5099945
2019-07-01T19:03:39.711Z,-0.11616749,-0.10773951,0.6594581,-0.899704,-6.0538483,7.3124695,17.83142,20.89386,-37.809753,-0.48881105,-3.4472675,9.167759,-1.250935,-3.95707,0.28576946,0.30906677,-0.3622284,0.085510254
2019-07-01T19:03:39.912Z,-0.04500727,-0.032890856,0.6817012,-0.052642822,-1.4476624,9.784256,12.097168,21.124268,-41.604614,-0.13116394,-1.0837272,9.745702,-0.7423126,-2.030064,0.48525238,1.1112518,0.032684326,0.18940735
2019-07-01T19:03:40.115Z,-0.024815612,-0.018151227,0.6645807,0.07896423,0.071777344,9.990036,12.301636,15.635681,-46.43097,-0.057674207,-0.5999686,9.78811,-0.05622892,0.79043424,0.6750231,0.22921753,-0.039520264,-0.015029907
2019-07-01T19:03:40.317Z,-0.023874138,-0.017476091,0.6563443,0.0765686,-0.26081848,9.762711,13.525391,8.94928,-47.843933,-0.048930448,-0.5779764,9.789481,0.13857973,0.4364605,0.3484106,-0.0015106201,-0.0005493164,-0.00019836426
2019-07-01T19:03:40.523Z,-0.022744434,-0.016598124,0.6476816,0.112457275,0.04307556,9.78186,11.517334,8.880615,-47.01996,-0.041060314,-0.5505002,9.7911005,0.1339468,0.45662868,0.35273457,0.0008087158,-0.00022888184,-0.00038146973
2019-07-01T19:03:40.726Z,-0.021902205,-0.015913973,0.6373771,0.086135864,-0.23449707,9.7986145,11.657715,8.456421,-47.187805,-0.03344046,-0.5297468,9.7922735,0.12639727,0.39820892,0.329957,-0.0009613037,-0.00035095215,-1.5258789e-05
2019-07-01T19:03:40.936Z,-0.020847628,-0.015174945,0.62982476,0.095718384,0.026321411,9.829712,11.691284,9.185791,-47.114563,-0.026476057,-0.50488085,9.793609,0.116831206,0.40484536,0.3135891,0.0010528564,-0.000289917,-7.6293945e-05
2019-07-01T19:03:41.142Z,-0.014589856,-0.012051667,0.60421604,0.105285645,-0.20578003,9.7986145,12.098694,9.283447,-46.961975,0.015394127,-0.37077042,9.799627,0.0801568,0.2563232,0.2075262,-0.0010223389,-0.00035095215,-7.6293945e-05
2019-07-01T19:03:41.353Z,-0.010192286,-0.009872564,0.58246994,0.08135986,-0.0023956299,9.815353,12.789917,8.831787,-48.51532,0.04093322,-0.27525368,9.802701,0.050569218,0.18045786,0.13895512,0.00074768066,0.0,0.0
2019-07-01T19:03:41.544Z,-0.00741933,-0.008779068,0.5675457,0.107681274,-0.19142151,9.800995,12.414551,9.310913,-47.87445,0.059166666,-0.21752273,9.804059,0.035180286,0.11426957,0.0956831,-0.00065612793,-0.00035095215,-1.5258789e-05
2019-07-01T19:03:41.754Z,-0.0054796985,-0.007998063,0.5529485,0.088531494,-0.01914978,9.829712,12.550354,8.660889,-47.48535,0.07126821,-0.17628388,9.804806,0.024182513,0.07826346,0.060424805,0.00062561035,-6.1035156e-05,0.00010681152
2019-07-01T19:03:41.948Z,-0.0042580557,-0.007537765,0.5430461,0.095718384,-0.16270447,9.805786,12.547302,8.815002,-48.583984,0.07878321,-0.15040784,9.80518,0.014398873,0.05167459,0.04172516,-0.00022888184,-0.00022888184,0.00012207031
2019-07-01T19:03:42.173Z,-0.003495163,-0.007298551,0.5344706,0.093322754,-0.04067993,9.8033905,12.075806,8.924866,-47.86377,0.084342994,-0.1344451,9.805366,0.010414496,0.030203968,0.026226044,0.00032043457,-0.00022888184,-1.5258789e-05
2019-07-01T19:03:42.363Z,-0.0028643194,-0.007031259,0.5256426,0.093322754,-0.1483612,9.78186,12.245178,9.158325,-48.20099,0.08778294,-0.12027905,9.80552,0.0054619834,0.029597074,0.020049095,-0.0004119873,-0.0004119873,0.00016784668
2019-07-01T19:03:42.566Z,-0.002613537,-0.0069187046,0.51797265,0.098098755,-0.055038452,9.817749,11.778259,9.338379,-47.31598,0.08952057,-0.11413428,9.805578,0.0027043894,0.010633998,0.013678551,0.00038146973,-0.00022888184,-0.0001373291
2019-07-01T19:03:42.786Z,-0.0023310836,-0.0067785713,0.50959677,0.088531494,-0.13160706,9.786652,11.938477,9.501648,-48.34442,0.09108923,-0.10708791,9.805642,0.002543576,0.015104055,0.006257057,-0.000289917,-0.00016784668,-0.00019836426
2019-07-01T19:03:42.963Z,-0.00230237,-0.006752911,0.5024933,0.095718384,-0.06700134,9.810577,12.002563,8.836365,-46.369934,0.09181604,-0.10559429,9.805652,0.0006048158,0.0014457777,0.004799843,0.00038146973,-0.00022888184,0.0
2019-07-01T19:03:43.163Z,-0.0021239652,-0.006593725,0.4978846,0.098098755,-0.117248535,9.808182,12.223816,8.48999,-46.902466,0.09141155,-0.100515224,9.805709,-0.0014121532,0.009795316,0.005601883,7.6293945e-05,-0.00016784668,-0.0001373291
2019-07-01T19:03:43.369Z,-0.002240464,-0.0066760452,0.49623343,0.08375549,-0.093322754,9.832108,11.869812,9.484863,-46.611023,0.09187038,-0.10312594,9.805677,0.00028716773,-0.005300544,0.0018138885,1.5258789e-05,-0.00016784668,-7.6293945e-05
2019-07-01T19:03:43.569Z,-0.0019964636,-0.006579023,0.49005637,0.098098755,-0.095718384,9.796219,12.731934,9.185791,-47.76306,0.09328704,-0.09736703,9.805723,0.0019623712,0.01191292,0.001376152,-0.00010681152,-0.00022888184,-1.5258789e-05
2019-07-01T19:03:43.770Z,-0.0021451262,-0.0066743926,0.49046484,0.090927124,-0.093322754,9.796219,12.734985,9.260559,-47.973633,0.0934412,-0.10086901,9.805686,-0.00034261495,-0.007062711,-0.00019931793,1.5258789e-05,-0.00016784668,-7.6293945e-05
2019-07-01T19:03:43.973Z,-0.0019418099,-0.0065386067,0.48989403,0.095718384,-0.093322754,9.808182,11.834717,8.833313,-47.496033,0.093139336,-0.096026875,9.805738,-0.0014778152,0.0093849525,0.0006723404,7.6293945e-05,-0.00022888184,6.1035156e-05
2019-07-01T19:03:44.174Z,-0.0021403683,-0.006665955,0.4904395,0.093322754,-0.110076904,9.796219,12.24823,8.924866,-46.28601,0.093345694,-0.10070381,9.805689,-0.00095809996,-0.009157158,-0.001947403,-4.5776367e-05,-0.00035095215,-1.5258789e-05
2019-07-01T19:03:44.377Z,-0.0019913237,-0.0065531894,0.48999095,0.093322754,-0.08375549,9.824936,12.408447,9.013367,-47.10388,0.092902094,-0.09702389,9.80573,-0.0014935806,0.0065610483,0.0038080215,0.00019836426,-0.00016784668,0.00012207031
2019-07-01T19:03:44.583Z,-0.0021153542,-0.006638917,0.49034578,0.090927124,-0.114852905,9.800995,12.219238,8.4198,-47.36786,0.093134984,-0.10000619,9.805698,0.00020579249,-0.005771823,-0.0020885468,-4.5776367e-05,-6.1035156e-05,-0.0001373291
2019-07-01T19:03:44.788Z,-0.0019579458,-0.006540639,0.48991942,0.088531494,-0.086135864,9.800995,13.447571,8.865356,-47.177124,0.093016215,-0.09632499,9.805736,-0.0013575777,0.006344311,0.0008459091,0.0002593994,-0.000289917,-0.0002593994
2019-07-01T19:03:44.990Z,-0.0020543258,-0.006568272,0.4901064,0.088531494,-0.107681274,9.791428,11.508179,8.737183,-47.351074,0.09254145,-0.09825823,9.805721,-0.002072081,-0.0034578145,-0.00022411346,-0.00010681152,-0.000289917,-0.0001373291
2019-07-01T19:03:45.188Z,-0.0019013904,-0.0065041957,0.4897637,0.093322754,-0.071777344,9.808182,11.299133,9.45282,-47.42279,0.09295358,-0.09499125,9.805749,0.00084718317,0.006454669,0.0022411346,1.5258789e-05,0.0,6.1035156e-05
2019-07-01T19:03:45.405Z,-0.002033436,-0.00658734,0.49012288,0.086135864,-0.122039795,9.805786,11.686707,9.037781,-46.91925,0.093066365,-0.098086156,9.805718,-0.00069060177,-0.0055361018,-0.0020103455,-0.00016784668,-0.00022888184,-0.00038146973
2019-07-01T19:03:45.594Z,-0.0019415633,-0.0065171956,0.48984498,0.088531494,-0.07896423,9.805786,12.908936,9.715271,-48.719788,0.09278102,-0.09581171,9.805743,6.442517e-05,0.0034389272,0.00072956085,0.000289917,0.00016784668,-0.00016784668
2019-07-01T19:03:45.821Z,-0.0020434929,-0.0065318802,0.4900096,0.090927124,-0.107681274,9.810577,11.471558,7.8582764,-47.14966,0.09203433,-0.09771301,9.805732,-0.000851579,-0.003510736,-0.00015544891,-7.6293945e-05,0.00016784668,-0.00010681152
2019-07-01T19:03:46.000Z,-0.0019616275,-0.006495643,0.48982173,0.090927124,-0.08135986,9.808182,12.127686,9.561157,-44.866943,0.09222231,-0.095945254,9.805747,0.0006175414,0.0031051785,0.0013284683,0.00010681152,6.1035156e-05,-0.00015258789
2019-07-01T19:03:46.230Z,-0.00196638,-0.006475182,0.48978126,0.095718384,-0.08375549,9.808182,12.832642,9.402466,-46.4386,0.09183125,-0.09582569,9.805752,-0.0008981973,0.001535438,-0.0005226135,4.5776367e-05,0.0,-0.000289917
2019-07-01T19:03:46.420Z,-0.0019718092,-0.0065281335,0.4899088,0.090927124,-0.119644165,9.810577,11.386108,9.300232,-45.796204,0.09267038,-0.09644074,9.805738,0.0023330897,-0.0009431988,0.00075912476,-7.6293945e-05,0.00016784668,1.5258789e-05
2019-07-01T19:03:46.729Z,-0.0019414305,-0.00649502,0.48979434,0.090927124,-0.08135986,9.805786,11.408997,9.962463,-46.5683,0.0924087,-0.09559102,9.805749,-0.000760749,0.0005860105,-0.00029087067,0.000289917,-6.1035156e-05,1.5258789e-05
2019-07-01T19:03:46.923Z,-0.0020083066,-0.0065377345,0.48997763,0.098098755,-0.105285645,9.7986145,12.394714,8.569336,-46.36383,0.09247615,-0.09716431,9.805733,0.00013389438,-0.0026175901,-0.00019168854,-0.0001373291,0.0,1.5258789e-05
2019-07-01T19:03:47.117Z,-0.0019515777,-0.006502782,0.48982507,0.088531494,-0.08375549,9.8033905,12.243652,9.080505,-47.68982,0.09244056,-0.095842354,9.805746,-0.00031283498,0.0013186112,-0.001250267,0.00035095215,-6.1035156e-05,9.1552734e-05
2019-07-01T19:03:47.320Z,-0.0019647374,-0.006518804,0.48987848,0.098098755,-0.110076904,9.800995,12.501526,9.236145,-46.68579,0.09258217,-0.09622696,9.805741,4.002452e-05,1.8283725e-05,-0.0013084412,-0.00019836426,-6.1035156e-05,0.00015258789
2019-07-01T19:03:47.515Z,-0.0019624783,-0.006524232,0.48988792,0.090927124,-0.086135864,9.810577,11.51886,8.728027,-46.06781,0.09269564,-0.09624148,9.805739,0.0011170357,-0.0006846264,-7.343292e-05,0.00016784668,0.00022888184,-4.5776367e-05
2019-07-01T19:03:47.722Z,-0.0020157443,-0.006512682,0.48993018,0.098098755,-0.107681274,9.800995,11.44104,8.947754,-47.003174,0.09198165,-0.09704571,9.805738,-0.0007911548,-0.00084445626,-0.0005264282,-0.00019836426,0.00016784668,-4.5776367e-05
2019-07-01T19:03:47.921Z,-0.0019933553,-0.006509012,0.489893,0.095718384,-0.07896423,9.810577,12.486267,8.946228,-46.97113,0.09213817,-0.096623726,9.805741,0.0011995286,0.0008896738,0.00091838837,-1.5258789e-05,0.00022888184,-0.00010681152
2019-07-01T19:03:48.122Z,-0.0019995011,-0.00652622,0.48994008,0.093322754,-0.110076904,9.805786,12.078857,8.921814,-47.486877,0.092368096,-0.09689914,9.805737,4.671514e-06,-2.130121e-05,0.00077819824,-0.0001373291,-0.00012207031,0.00021362305
2019-07-01T19:03:48.312Z,-0.0020207665,-0.0065165255,0.48994538,0.098098755,-0.088531494,9.7986145,12.025452,9.34906,-46.492004,0.091997415,-0.09717012,9.8057375,0.00013247877,-0.0009571761,-0.00028896332,0.00010681152,0.00022888184,-0.00016784668
2019-07-01T19:03:48.518Z,-0.0020031214,-0.0065568816,0.49001455,0.088531494,-0.107681274,9.8033905,10.96344,9.138489,-47.39685,0.0928492,-0.09726359,9.805728,0.0019228831,-0.00013372302,-0.0005083084,-1.5258789e-05,6.1035156e-05,-0.000289917
2019-07-01T19:03:48.719Z,-0.0020148463,-0.0065591815,0.49003488,0.086135864,-0.086135864,9.810577,11.428833,8.807373,-47.56012,0.09277356,-0.097488314,9.805727,0.00031786412,-0.0008680448,0.00045204163,0.00010681152,0.00012207031,-0.00010681152
2019-07-01T19:03:48.922Z,-0.0020210657,-0.0065467875,0.49001467,0.093322754,-0.098098755,9.810577,12.010193,9.210205,-47.576904,0.092504166,-0.09747338,9.80573,0.00034167618,0.0005528331,0.0003004074,-0.0001373291,0.00022888184,-4.5776367e-05
2019-07-01T19:03:49.120Z,-0.0020076176,-0.0065690205,0.49004796,0.086135864,-0.090927124,9.815353,12.376404,10.028076,-46.520996,0.09300977,-0.09746068,9.805724,0.0007895902,-0.0001688078,0.0016450882,4.5776367e-05,-6.1035156e-05,1.5258789e-05
2019-07-01T19:03:49.321Z,-0.0019759845,-0.0065346314,0.48992896,0.100494385,-0.100494385,9.800995,11.3220215,9.887695,-47.03369,0.09273911,-0.0965767,9.805736,0.00058214366,0.0015770346,0.0010824203,4.5776367e-05,0.000289917,-0.00010681152
2019-07-01T19:03:49.540Z,-0.0019620894,-0.006580281,0.490015,0.090927124,-0.088531494,9.805786,12.268066,9.515381,-47.224426,0.09364354,-0.096787006,9.805725,0.0013411567,-0.0005932823,-7.1525574e-05,4.5776367e-05,-0.00012207031,9.1552734e-05
2019-07-01T19:03:49.723Z,-0.0019257145,-0.0065529123,0.4899059,0.090927124,-0.095718384,9.805786,12.123108,9.716797,-46.270752,0.09353726,-0.095890395,9.805736,1.6510487e-05,0.002565451,-0.0006866455,-0.00019836426,6.1035156e-05,1.5258789e-05
2019-07-01T19:03:49.963Z,-0.0019446579,-0.006540973,0.4899031,0.095718384,-0.090927124,9.793823,11.357117,8.869934,-46.939087,0.09315143,-0.09609927,9.8057375,-0.0010138229,-0.0010586306,-0.00061130524,0.00016784668,-6.1035156e-05,-4.5776367e-05
2019-07-01T19:03:50.161Z,-0.0019187008,-0.006510755,0.4898009,0.090927124,-0.100494385,9.817749,11.505127,8.358765,-45.61615,0.09289539,-0.09535423,9.805747,-0.00028275698,0.0015512332,-0.0004081726,-1.5258789e-05,6.1035156e-05,-4.5776367e-05
2019-07-01T19:03:50.362Z,-0.001962119,-0.006545993,0.48993698,0.100494385,-0.093322754,9.808182,12.109375,9.42688,-46.403503,0.09306572,-0.096449666,9.805735,0.0012212098,-0.0028575063,0.0008420944,0.00016784668,0.00022888184,-0.000289917
2019-07-01T19:03:50.562Z,-0.001988413,-0.006533122,0.48994154,0.093322754,-0.098098755,9.7986145,11.448669,9.2453,-47.547913,0.092592485,-0.09677603,9.805736,-0.0004734099,0.0001097545,0.0002374649,-0.00019836426,0.00012207031,1.5258789e-05
2019-07-01T19:03:50.771Z,-0.0019737694,-0.00654834,0.48995733,0.093322754,-0.093322754,9.796219,12.4053955,9.169006,-48.431396,0.09299163,-0.09667358,9.805733,0.0010424629,-0.00022893399,0.0015907288,0.00010681152,6.1035156e-05,-0.00016784668
2019-07-01T19:03:50.977Z,-0.0019897628,-0.0065471954,0.4899753,0.088531494,-0.102890015,9.808182,13.943481,9.191895,-47.584534,0.09281636,-0.09693793,9.805732,0.0005113706,-0.00044885278,-0.0022888184,-1.5258789e-05,0.00022888184,-4.5776367e-05
2019-07-01T19:03:51.176Z,-0.0019934261,-0.006526368,0.4899326,0.088531494,-0.105285645,9.805786,12.109375,9.428406,-46.55304,0.09242983,-0.096795894,9.805737,-0.0007794127,-0.00036323816,-0.00024604797,0.00016784668,0.0,-0.00010681152
2019-07-01T19:03:51.376Z,-0.001996002,-0.0065596304,0.49001163,0.088531494,-0.100494385,9.7986145,13.066101,9.347534,-47.06421,0.09296494,-0.097167976,9.805728,0.0015465543,-0.000944525,0.001584053,4.5776367e-05,0.00012207031,-0.00022888184
2019-07-01T19:03:51.567Z,-0.0019998176,-0.0065785223,0.49005955,0.088531494,-0.100494385,9.805786,11.761475,8.972168,-47.38922,0.09324589,-0.0974199,9.805723,0.0010354519,-0.00044713914,0.00025081635,-1.5258789e-05,0.00012207031,1.5258789e-05
2019-07-01T19:03:51.784Z,-0.0019835343,-0.0065446235,0.48996145,0.088531494,-0.095718384,9.808182,12.356567,9.666443,-46.97113,0.092833795,-0.09680525,9.805733,2.7567148e-05,0.00084585696,-0.0030212402,0.00010681152,0.00022888184,-4.5776367e-05
2019-07-01T19:03:51.984Z,-0.0020360353,-0.006571923,0.49009115,0.088531494,-0.095718384,9.7986145,11.834717,8.757019,-47.058105,0.0927814,-0.09797902,9.805722,0.0005495325,-0.002295129,0.00069999695,-1.5258789e-05,0.00016784668,1.5258789e-05
2019-07-01T19:03:52.187Z,-0.0020370448,-0.0065285997,0.48999384,0.095718384,-0.100494385,9.808182,11.585999,10.186768,-45.62378,0.09204198,-0.09756957,9.805733,-0.00038342923,0.0011189133,-0.0012960434,-7.6293945e-05,0.000289917,-0.00016784668
2019-07-01T19:03:52.394Z,-0.0020356616,-0.006567649,0.49008095,0.095718384,-0.102890015,9.8033905,12.078857,8.921814,-47.41211,0.09271308,-0.09793046,9.805723,0.0015817657,-0.0011409968,0.0007314682,0.00010681152,6.1035156e-05,-4.5776367e-05
2019-07-01T19:03:52.594Z,-0.0020137448,-0.0065732645,0.49006552,0.088531494,-0.102890015,9.810577,12.356567,7.9208374,-47.702026,0.09302147,-0.0976081,9.805723,0.0012688115,0.00044885278,0.00096321106,4.5776367e-05,0.00016784668,-0.00022888184
2019-07-01T19:03:52.798Z,-0.0020466319,-0.0065666465,0.49009278,0.095718384,-0.100494385,9.812973,12.545776,8.589172,-47.64862,0.092589155,-0.098109625,9.805722,-0.00022153556,-0.00071282685,-0.0,-7.6293945e-05,0.00016784668,-0.00010681152
2019-07-01T19:03:52.995Z,-0.0020332846,-0.0065515274,0.4900412,0.086135864,-0.088531494,9.793823,12.350464,9.672546,-47.950745,0.092464775,-0.097730644,9.805727,0.00062378496,0.001528725,-0.00079345703,-0.00019836426,0.00022888184,1.5258789e-05
2019-07-01T19:03:53.273Z,-0.001998961,-0.0065304297,0.489949,0.098098755,-0.105285645,9.805786,12.075806,9.2300415,-49.613953,0.09244427,-0.09693129,9.805736,0.00040797144,0.0014384165,-0.0016498566,4.5776367e-05,0.00012207031,-4.5776367e-05
2019-07-01T19:03:53.408Z,-0.00202239,-0.00653981,0.4900005,0.088531494,-0.093322754,9.800995,12.698364,8.685303,-49.29962,0.09237372,-0.09742745,9.80573,0.0004989207,2.169609e-05,-0.0010986328,-0.0002593994,0.00016784668,9.1552734e-05
2019-07-01T19:03:53.610Z,-0.0019700571,-0.006496261,0.48983398,0.090927124,-0.098098755,9.8033905,12.268066,9.513855,-46.99707,0.09215054,-0.09609662,9.805746,-0.00023119897,0.0024974868,-0.0016899109,4.5776367e-05,6.1035156e-05,-0.00010681152
2019-07-01T19:03:53.809Z,-0.00198322,-0.006548418,0.48996967,0.090927124,-0.095718384,9.812973,11.549377,9.535217,-46.661377,0.092900775,-0.09683722,9.805732,0.0016244128,-0.0022356063,0.0030260086,4.5776367e-05,-0.00012207031,-0.00035095215
2019-07-01T19:03:54.023Z,-0.001978882,-0.006534824,0.48993313,0.093322754,-0.105285645,9.805786,11.456299,9.237671,-46.417236,0.0927141,-0.09662853,9.805736,0.0001322627,-3.2395124e-05,0.0032958984,0.00010681152,0.00012207031,-3.0517578e-05
2019-07-01T19:03:54.214Z,-0.002013601,-0.0065343156,0.48997667,0.090927124,-0.098098755,9.800995,12.437439,9.6710205,-46.972656,0.092366934,-0.09722187,9.805734,-0.0002483353,-0.0018395409,-0.0010004044,0.00016784668,0.00012207031,-0.0004119873
2019-07-01T19:03:54.436Z,-0.001971457,-0.0065435874,0.48994353,0.093322754,-0.098098755,9.800995,12.179565,9.367371,-47.55249,0.09293413,-0.096586905,9.805735,0.0011140406,0.0006310567,-0.0014724731,0.00016784668,0.0,-0.00016784668
2019-07-01T19:03:54.685Z,-0.0019735252,-0.0065293177,0.4899137,0.100494385,-0.102890015,9.7986145,12.559509,8.956909,-47.727966,0.09267359,-0.09648197,9.8057375,-0.00029925257,-0.00019587576,-0.0009832382,0.00010681152,6.1035156e-05,-0.00010681152
2019-07-01T19:03:54.877Z,-0.0019781573,-0.006521581,0.48990205,0.100494385,-0.090927124,9.812973,12.101746,9.358215,-47.09778,0.0924981,-0.0964856,9.805739,0.00011590868,-0.00020287186,0.0009393692,4.5776367e-05,0.00012207031,-0.000289917
2019-07-01T19:03:55.080Z,-0.0019096663,-0.006536165,0.48984712,0.095718384,-0.105285645,9.808182,12.193298,9.658813,-47.494507,0.093411565,-0.095448785,9.80574,0.0018240511,0.0016473755,0.0006246567,0.00010681152,0.0,-0.00022888184
2019-07-01T19:03:55.281Z,-0.0019431761,-0.0065696714,0.4899665,0.098098755,-0.098098755,9.800995,12.864685,8.615112,-48.260498,0.093649305,-0.09635649,9.80573,0.0011142492,-0.0019930676,-0.00022697449,4.5776367e-05,0.00016784668,-0.00010681152
2019-07-01T19:03:55.481Z,-0.0019614927,-0.0065753455,0.490003,0.095718384,-0.088531494,9.793823,12.341309,9.378052,-47.557068,0.09356624,-0.096728094,9.805727,0.00023818016,-0.0011507198,-0.00046920776,0.00010681152,0.00010681152,-4.5776367e-05
2019-07-01T19:03:55.684Z,-0.0019526741,-0.0065989834,0.49004543,0.095718384,-0.095718384,9.805786,11.528015,9.022522,-46.53778,0.094050385,-0.09680907,9.805721,0.0009594783,0.00036462396,4.7683716e-06,-0.0001373291,0.0,-0.00022888184
2019-07-01T19:03:55.890Z,-0.002003242,-0.0065966495,0.4901052,0.093322754,-0.090927124,9.805786,12.010193,9.133911,-47.213745,0.09351775,-0.097657576,9.805718,-0.00018724054,-0.0014105812,0.00016403198,-7.6293945e-05,0.00022888184,-0.00016784668
2019-07-01T19:03:56.092Z,-0.0019858014,-0.006564452,0.4900095,0.093322754,-0.090927124,9.8033905,11.053467,9.059143,-45.75653,0.09314565,-0.09703969,9.805728,-0.00028333068,0.0008351654,-0.0010118484,0.00010681152,0.00012207031,1.5258789e-05
2019-07-01T19:03:56.294Z,-0.0019807175,-0.0065382,0.48994318,0.098098755,-0.095718384,9.800995,11.613464,9.178162,-46.81244,0.09275307,-0.09669343,9.805735,0.0003329888,0.0009672865,0.0010824203,-7.6293945e-05,0.000289917,-0.00022888184
2019-07-01T19:03:56.497Z,-0.0019363405,-0.006544529,0.4899005,0.093322754,-0.095718384,9.8033905,11.898804,8.396912,-47.058105,0.09329242,-0.09599094,9.805737,0.0019470453,0.0012242272,-0.0004005432,4.5776367e-05,0.00022888184,-0.00022888184
2019-07-01T19:03:56.700Z,-0.0019187238,-0.006568764,0.48993298,0.095718384,-0.095718384,9.800995,12.002563,8.834839,-46.369934,0.093872465,-0.09592609,9.805732,0.0016154721,-0.00027930737,-0.000910759,0.00010681152,0.00012207031,-0.00016784668
2019-07-01T19:03:56.901Z,-0.0019332882,-0.006530145,0.4898638,0.090927124,-0.090927124,9.808182,11.709595,9.545898,-46.665955,0.093079865,-0.09579664,9.80574,-0.00023498386,6.753951e-05,0.00066947937,4.5776367e-05,0.00035095215,-0.00022888184
2019-07-01T19:03:57.103Z,-0.001939727,-0.006557496,0.48993436,0.095718384,-0.090927124,9.7986145,11.270142,8.79364,-47.406006,0.09347784,-0.096177064,9.805733,0.001282163,-0.0002462268,0.0015649796,-0.0001373291,0.00012207031,1.5258789e-05
2019-07-01T19:03:57.311Z,-0.0019221602,-0.0065591955,0.48991564,0.095718384,-0.088531494,9.832108,12.07428,8.546448,-46.12732,0.09367777,-0.095891036,9.805734,0.00084605813,-6.73756e-05,-0.0016765594,0.00016784668,0.00012207031,-0.00022888184
2019-07-01T19:03:57.514Z,-0.0018971108,-0.00654277,0.48984602,0.090927124,-0.100494385,9.817749,11.450195,9.243774,-47.39685,0.09364527,-0.095297456,9.80574,0.00040557235,0.0012464225,-0.0,-1.5258789e-05,0.00012207031,1.5258789e-05
2019-07-01T19:03:57.716Z,-0.001957897,-0.00655731,0.48995733,0.100494385,-0.093322754,9.805786,11.386108,9.451294,-46.67206,0.09329752,-0.0964884,9.805732,-0.00068564713,-0.0018609911,0.0009584427,-0.0001373291,0.0,1.5258789e-05
2019-07-01T19:03:57.925Z,-0.0019420941,-0.006569734,0.48996526,0.093322754,-0.093322754,9.805786,13.063049,9.20105,-46.86737,0.093660906,-0.09633845,9.80573,0.0018264428,0.00013355911,-0.0014400482,4.5776367e-05,0.000289917,-0.00010681152
2019-07-01T19:03:58.123Z,-0.0019573567,-0.0066209254,0.4901014,0.098098755,-0.098098755,9.815353,12.179565,9.289551,-46.965027,0.09437425,-0.09710607,9.805716,0.0020712838,-0.0014912412,0.0006351471,-1.5258789e-05,0.00016784668,-0.00022888184
2019-07-01T19:03:58.322Z,-0.0019493162,-0.0066062897,0.49005774,0.093322754,-0.098098755,9.796219,12.612915,10.124207,-47.491455,0.09420619,-0.09682321,9.805719,0.00055577606,-9.038299e-05,0.0010490417,0.00016784668,0.00022888184,1.5258789e-05
2019-07-01T19:03:58.523Z,-0.0019823702,-0.006586042,0.49005422,0.093322754,-0.098098755,9.8033905,11.627197,9.544373,-46.965027,0.09354274,-0.097193316,9.805722,-0.00045731664,-0.0006836355,-0.0004119873,-1.5258789e-05,0.00022888184,-0.00016784668
2019-07-01T19:03:58.789Z,-0.001977824,-0.006595036,0.49006882,0.090927124,-0.098098755,9.805786,11.77063,9.115601,-46.983337,0.09373856,-0.09720361,9.80572,0.00078285486,4.211068e-05,-0.0011987686,-0.0001373291,0.00012207031,-0.00010681152
2019-07-01T19:03:58.979Z,-0.0019515024,-0.0065687494,0.48997512,0.098098755,-0.095718384,9.7986145,12.258911,9.21936,-46.754456,0.093552575,-0.09649091,9.80573,0.00025632232,0.0012472793,-0.00096416473,4.5776367e-05,0.00016784668,-0.000289917
2019-07-01T19:03:59.182Z,-0.0019348408,-0.006573934,0.4899655,0.088531494,-0.098098755,9.805786,12.0147705,9.130859,-46.611023,0.09380239,-0.096254826,9.805729,0.0009647384,-0.00019103289,0.0006351471,0.00016784668,0.00012207031,-0.000289917
2019-07-01T19:03:59.387Z,-0.0019436389,-0.0065742997,0.48997763,0.08375549,-0.095718384,9.8033905,12.091064,9.214783,-47.502136,0.09372275,-0.09641007,9.805729,-0.00015164167,-0.0005028397,0.0012159348,4.5776367e-05,0.0,-0.00010681152
2019-07-01T19:03:59.588Z,-0.0019673118,-0.0066086818,0.49008635,0.088531494,-0.093322754,9.796219,12.542725,8.439636,-47.15271,0.09407093,-0.09715694,9.805717,0.00069177896,-0.00096288323,-0.00030612946,-0.0001373291,0.0,-4.5776367e-05
2019-07-01T19:03:59.795Z,-0.0020263942,-0.006563792,0.49006024,0.093322754,-0.090927124,9.7986145,11.853027,9.272766,-47.56012,0.09273855,-0.09773275,9.805725,-0.0018025935,-0.00086358935,-0.0006837845,-7.6293945e-05,0.00022888184,-0.00035095215
2019-07-01T19:03:59.994Z,-0.001969292,-0.0065252185,0.48989892,0.100494385,-0.093322754,9.8033905,11.514282,8.883667,-47.322083,0.092645824,-0.09636864,9.805739,0.00044535846,0.0023156554,-0.00077438354,0.00010681152,0.00016784668,-0.00022888184
2019-07-01T19:04:00.195Z,-0.0019797613,-0.006527481,0.48991755,0.095718384,-0.105285645,9.805786,12.930298,9.848022,-46.80481,0.092581846,-0.096571356,9.8057375,0.0007498488,-0.0008348152,0.00075149536,0.00010681152,0.00022888184,-0.000289917
2019-07-01T19:04:00.398Z,-0.001999044,-0.0065396014,0.48996997,0.086135864,-0.095718384,9.808182,12.272644,9.663391,-47.496033,0.09259793,-0.09702307,9.805733,0.0004932359,0.00010135025,-0.0007686615,-0.0002593994,0.00012207031,-4.5776367e-05
2019-07-01T19:04:00.603Z,-0.0019902808,-0.0065774177,0.49004477,0.093322754,-0.105285645,9.805786,12.406921,8.787537,-46.092224,0.093320325,-0.09724466,9.805724,0.0014456585,-0.00063449144,0.0007686615,4.5776367e-05,0.0,-0.00016784668
2019-07-01T19:04:00.808Z,-0.0019761843,-0.0065699955,0.49000973,0.086135864,-0.100494385,9.7986145,12.350464,9.3688965,-46.27533,0.09333283,-0.096928574,9.805727,0.00048006326,2.2351742e-06,-0.0017290115,0.00016784668,0.00012207031,1.5258789e-05
2019-07-01T19:04:01.039Z,-0.0019381753,-0.006549655,0.4899145,0.090927124,-0.090927124,9.800995,11.758423,8.746338,-46.377563,0.09336089,-0.096073076,9.805736,0.0006986335,0.001539953,-0.00051403046,4.5776367e-05,0.00016784668,1.5258789e-05
2019-07-01T19:04:01.216Z,-0.001979008,-0.006541576,0.48994866,0.098098755,-0.086135864,9.808182,12.849426,9.764099,-46.29059,0.092826605,-0.096697226,9.805735,4.271418e-05,-0.001193054,-3.0517578e-05,-1.5258789e-05,0.000289917,-0.00010681152
2019-07-01T19:04:01.415Z,-0.0019528168,-0.006531472,0.48989198,0.098098755,-0.093322754,9.812973,11.436462,8.798218,-46.505737,0.0929118,-0.096146286,9.805738,0.0004216209,0.00090514123,0.0018911362,4.5776367e-05,6.1035156e-05,-4.5776367e-05
2019-07-01T19:04:01.613Z,-0.0019621276,-0.006558861,0.4899663,0.086135864,-0.098098755,9.817749,12.675476,9.614563,-47.068787,0.09328238,-0.096576594,9.805731,0.00051727146,-0.001053147,0.0014238358,4.5776367e-05,-6.1035156e-05,-4.5776367e-05
2019-07-01T19:04:01.819Z,-0.0019776807,-0.006578342,0.49003065,0.098098755,-0.098098755,9.8033905,13.05542,9.207153,-47.846985,0.0934588,-0.09703661,9.805724,0.00010430068,-0.00084517896,-0.0016031265,-1.5258789e-05,-6.1035156e-05,1.5258789e-05
2019-07-01T19:04:02.020Z,-0.001944872,-0.0065855994,0.49000496,0.095718384,-0.095718384,9.796219,13.119507,8.847046,-47.695923,0.09390105,-0.09654268,9.805725,0.0013402998,9.556115e-05,4.5776367e-05,0.00022888184,0.00012207031,-0.00035095215
2019-07-01T19:04:02.221Z,-0.001942993,-0.006587372,0.49000657,0.090927124,-0.090927124,9.800995,12.200928,9.805298,-47.387695,0.09394924,-0.09652777,9.805725,0.000101044774,-0.00014731288,0.0001821518,4.5776367e-05,0.0,7.6293945e-05
2019-07-01T19:04:02.420Z,-0.0018868911,-0.0065714554,0.48989815,0.098098755,-0.093322754,9.820145,11.978149,9.844971,-45.17975,0.09422819,-0.09540393,9.805734,7.111579e-05,0.0023098812,-0.0009851456,-1.5258789e-05,-0.00012207031,-0.00016784668
2019-07-01T19:04:02.678Z,-0.0019299999,-0.006556125,0.48991874,0.090927124,-0.090927124,9.796219,10.716248,8.898926,-46.983337,0.093549594,-0.0959959,9.805734,-0.00046489388,-0.00044588745,0.0018959045,-0.00019836426,0.00022888184,-0.00022888184
2019-07-01T19:04:02.824Z,-0.0019667067,-0.006515852,0.48987427,0.086135864,-0.090927124,9.8033905,11.178589,8.570862,-47.59674,0.09251324,-0.09623182,9.805741,-0.0018301085,4.0262938e-05,0.0012655258,-0.0001373291,6.1035156e-05,-0.00010681152
2019-07-01T19:04:03.033Z,-0.0019163014,-0.006508122,0.48979184,0.095718384,-0.090927124,9.812973,13.589478,8.514404,-47.70813,0.092874415,-0.09528694,9.805748,0.001173079,0.0024294406,-0.0015573502,-0.0001373291,0.00012207031,-0.00010681152
2019-07-01T19:04:03.231Z,-0.0019477052,-0.0065588714,0.48994777,0.090927124,-0.100494385,9.808182,12.82959,9.481812,-47.253418,0.09342321,-0.096328124,9.805732,0.00062301755,-0.002738431,0.00024318695,0.00016784668,-0.00012207031,-0.00016784668
2019-07-01T19:04:03.430Z,-0.0019847534,-0.0065880925,0.49006194,0.095718384,-0.095718384,9.8033905,12.652588,9.103394,-47.172546,0.09355402,-0.0972546,9.805721,0.000490576,-0.0013372973,0.00032615662,-0.0001373291,6.1035156e-05,-0.00022888184
2019-07-01T19:04:03.641Z,-0.0019763056,-0.006605219,0.49009004,0.095718384,-0.090927124,9.805786,11.972046,10.002136,-46.733093,0.093924865,-0.09727781,9.805717,-0.00013402104,-0.00083109736,0.0024223328,-1.5258789e-05,6.1035156e-05,-0.00022888184
2019-07-01T19:04:03.849Z,-0.0019444806,-0.006585964,0.49000528,0.093322754,-0.093322754,9.800995,12.64801,9.107971,-47.698975,0.093911014,-0.09653953,9.805725,0.0008440986,0.0010673031,-0.0006170273,0.00010681152,0.00022888184,-0.00010681152
2019-07-01T19:04:04.048Z,-0.001954513,-0.0065753274,0.48999396,0.100494385,-0.095718384,9.8033905,11.701965,9.329224,-46.710205,0.093634,-0.09660761,9.805727,-0.0007987395,-0.00054591894,-0.0005750656,0.00010681152,-6.1035156e-05,-0.00010681152
2019-07-01T19:04:04.252Z,-0.001941213,-0.0065947343,0.49002102,0.102890015,-0.100494385,9.808182,12.364197,9.812927,-47.091675,0.09409061,-0.09656965,9.805723,0.0013847053,-9.588152e-05,-6.9618225e-05,4.5776367e-05,0.00012207031,9.1552734e-05
2019-07-01T19:04:04.453Z,-0.0019362752,-0.006600342,0.49002743,0.098098755,-0.105285645,9.815353,11.921692,8.908081,-47.03064,0.09423323,-0.09653982,9.805722,0.000764668,-0.000121198595,0.00090789795,4.5776367e-05,0.00012207031,9.1552734e-05
2019-07-01T19:04:04.656Z,-0.0019377912,-0.0066122394,0.49005646,0.093322754,-0.098098755,9.805786,12.898254,9.191895,-47.088623,0.09441883,-0.09668323,9.805719,0.00058452785,-0.00022753328,-0.0011453629,-1.5258789e-05,6.1035156e-05,-0.000289917
2019-07-01T19:04:04.859Z,-0.0019363285,-0.006608893,0.49004695,0.088531494,-0.095718384,9.7986145,12.342834,9.45282,-47.76764,0.09437674,-0.09662503,9.80572,0.00014200062,-0.0002894774,-0.0007658005,0.00010681152,6.1035156e-05,-4.5776367e-05
2019-07-01T19:04:05.072Z,-0.0019463176,-0.0066269543,0.49010092,0.095718384,-0.098098755,9.817749,13.2873535,9.005737,-47.747803,0.09458348,-0.096975245,9.805715,0.0006494224,-0.0011263862,0.00060653687,0.00010681152,6.1035156e-05,-0.00016784668
2019-07-01T19:04:05.268Z,-0.0019669698,-0.006590802,0.49004522,0.090927124,-0.093322754,9.805786,12.005615,9.138489,-47.743225,0.09377314,-0.09697481,9.805722,-0.001403138,0.0003015399,-0.0011930466,-7.6293945e-05,6.1035156e-05,-0.00022888184
2019-07-01T19:04:05.474Z,-0.0019224616,-0.006579914,0.48996317,0.090927124,-0.102890015,9.7986145,11.31897,9.967041,-47.695923,0.09402385,-0.0961004,9.805729,0.0007387623,0.00062049925,0.0006341934,0.000289917,6.1035156e-05,-0.00010681152
2019-07-01T19:04:05.673Z,-0.0019593136,-0.0065936665,0.49004188,0.093322754,-0.098098755,9.800995,11.312866,9.440613,-45.690918,0.09389607,-0.09687109,9.805722,0.00039292127,-0.0012480095,0.00010585785,-7.6293945e-05,0.00016784668,1.5258789e-05
2019-07-01T19:04:05.876Z,-0.0019557804,-0.0065712174,0.48998624,0.08375549,-0.098098755,9.7986145,11.535645,9.321594,-47.23358,0.09355241,-0.096588954,9.805728,-0.0004653409,0.000388816,-0.0007343292,4.5776367e-05,6.1035156e-05,-0.00016784668
2019-07-01T19:04:06.073Z,-0.0019676336,-0.006588293,0.49004036,0.095718384,-0.093322754,9.808182,12.020874,9.429932,-47.532654,0.09372441,-0.09696153,9.805723,0.00057271123,-0.00020469725,-0.0009660721,-0.0001373291,6.1035156e-05,9.1552734e-05
2019-07-01T19:04:06.282Z,-0.0019337005,-0.0065747704,0.48996592,0.093322754,-0.105285645,9.808182,12.091064,9.214783,-47.502136,0.093827605,-0.09624342,9.805729,0.00069081783,0.001007691,0.0015916824,0.00010681152,0.00012207031,-3.0517578e-05
2019-07-01T19:04:06.526Z,-0.0019739054,-0.006569589,0.49000588,0.095718384,-0.095718384,9.808182,12.091064,9.214783,-47.502136,0.093348205,-0.096885286,9.805727,-0.0004927814,-0.0014635175,-6.0081482e-05,4.5776367e-05,0.00012207031,-0.00010681152
2019-07-01T19:04:06.684Z,-0.0019869476,-0.006582545,0.49005213,0.102890015,-0.100494385,9.805786,12.426758,9.378052,-46.879578,0.09343919,-0.09723774,9.805723,0.0008453354,-0.0015939251,0.0010738373,0.00022888184,0.00016784668,0.0001373291
2019-07-01T19:04:06.887Z,-0.0020167427,-0.0065943142,0.49011728,0.095718384,-0.100494385,9.808182,12.265015,9.442139,-47.087097,0.093346685,-0.09786721,9.805717,0.00045291334,-0.0011968538,-0.0007200241,-1.5258789e-05,0.00016784668,-0.00010681152
2019-07-01T19:04:07.090Z,-0.0019828125,-0.006599045,0.49008438,0.095718384,-0.105285645,9.810577,11.482239,9.898376,-46.887207,0.09375741,-0.0973291,9.805719,0.0014750361,0.0011352599,0.0003118515,-1.5258789e-05,0.00016784668,9.1552734e-05
2019-07-01T19:04:07.294Z,-0.0019740441,-0.006594696,0.4900632,0.088531494,-0.098098755,9.808182,11.938477,9.272766,-46.957397,0.093769714,-0.09713512,9.805721,-0.00021135807,0.0004637316,-0.000910759,-1.5258789e-05,-6.1035156e-05,0.00021362305
2019-07-01T19:04:07.498Z,-0.00195785,-0.0065689473,0.48998374,0.102890015,-0.098098755,9.812973,12.088013,9.065247,-47.157288,0.093494,-0.09660226,9.805729,8.098036e-05,0.00064664334,-0.00028514862,0.00010681152,0.00016784668,-0.000289917
2019-07-01T19:04:07.701Z,-0.0019516136,-0.0065666502,0.4899705,0.093322754,-0.095718384,9.805786,11.456299,9.315491,-47.15576,0.09351613,-0.09647214,9.80573,0.0005221516,5.353242e-05,0.0020360947,4.5776367e-05,0.00012207031,-0.000289917
2019-07-01T19:04:07.905Z,-0.0019597686,-0.006577012,0.49000457,0.090927124,-0.102890015,9.820145,12.179565,9.518433,-48.35205,0.09361112,-0.096714795,9.805726,0.00042670965,-0.00019162148,8.583069e-05,-7.6293945e-05,6.1035156e-05,1.5258789e-05
2019-07-01T19:04:08.107Z,-0.0019874605,-0.006601694,0.4900964,0.095718384,-0.093322754,9.805786,12.693787,8.232117,-47.42737,0.09375667,-0.09743531,9.805717,0.0007553473,-0.0006777495,-0.0002565384,-0.00019836426,0.00012207031,-0.00010681152
2019-07-01T19:04:08.302Z,-0.0019846463,-0.006591669,0.49006996,0.090927124,-0.100494385,9.796219,12.580872,9.317017,-47.050476,0.09361529,-0.097288,9.80572,0.0001834333,-0.00034080446,-0.00081539154,0.00016784668,0.00012207031,9.1552734e-05
2019-07-01T19:04:08.515Z,-0.0020371946,-0.0066020614,0.49016124,0.095718384,-0.098098755,9.808182,12.123108,8.354187,-48.96393,0.09327756,-0.098296024,9.805714,-0.00019802153,-0.001253292,0.00041389465,-0.00019836426,0.00012207031,9.1552734e-05
2019-07-01T19:04:08.718Z,-0.0019983265,-0.006609038,0.4901271,0.095718384,-0.098098755,9.8033905,12.712097,8.595276,-47.12677,0.093774326,-0.09769497,9.805716,0.00051473826,0.0017424896,-0.0008401871,-0.0001373291,-0.00012207031,3.0517578e-05
2019-07-01T19:04:08.916Z,-0.0019774046,-0.0066212704,0.49012798,0.093322754,-0.098098755,9.8033905,11.988831,8.621216,-47.0932,0.09418446,-0.09745499,9.805714,0.0010533482,0.00078258663,-0.0005598068,-7.6293945e-05,6.1035156e-05,9.1552734e-05
2019-07-01T19:04:09.122Z,-0.0019540668,-0.006604467,0.4900597,0.100494385,-0.100494385,9.808182,13.221741,9.364319,-47.747803,0.09412915,-0.09688712,9.805719,-0.00033456832,0.0011699572,0.001865387,-1.5258789e-05,-6.1035156e-05,-0.00016784668
2019-07-01T19:04:09.321Z,-0.001995481,-0.0066230274,0.49015525,0.086135864,-0.098098755,9.805786,12.741089,9.329224,-47.583008,0.09403766,-0.09778384,9.805712,0.0004703328,-0.001744099,0.0007638931,-1.5258789e-05,0.00016784668,-4.5776367e-05
2019-07-01T19:04:09.528Z,-0.001968056,-0.0066030878,0.49007457,0.093322754,-0.095718384,9.810577,12.013245,9.283447,-47.56317,0.093969464,-0.09711463,9.805719,0.00031722337,0.001881808,-0.0015659332,-0.0001373291,0.00012207031,-4.5776367e-05
2019-07-01T19:04:09.724Z,-0.0020059084,-0.0065882723,0.4900896,0.102890015,-0.093322754,9.8033905,12.207031,9.796143,-46.333313,0.093350664,-0.09762096,9.80572,-0.0014622211,-0.00024893135,0.0005559921,-0.00019836426,-6.1035156e-05,0.0001373291
2019-07-01T19:04:09.929Z,-0.0019579136,-0.0065925447,0.49003753,0.090927124,-0.100494385,9.805786,11.700439,9.176636,-45.90912,0.09389083,-0.096835904,9.805722,0.0013322383,0.0020860806,0.0014810562,-0.0001373291,6.1035156e-05,9.1552734e-05
2019-07-01T19:04:10.128Z,-0.0019423227,-0.0065704277,0.48996714,0.090927124,-0.098098755,9.812973,11.584473,8.596802,-47.45941,0.09367036,-0.096349224,9.805729,0.0013230592,0.0013560355,0.0004453659,4.5776367e-05,0.00016784668,-4.5776367e-05
2019-07-01T19:04:10.331Z,-0.0019483857,-0.006563711,0.48995966,0.095718384,-0.100494385,9.8033905,11.531067,9.172058,-46.884155,0.093498096,-0.09638754,9.805731,0.00029001385,-0.0002689883,-3.1471252e-05,4.5776367e-05,0.00016784668,-0.0004119873
2019-07-01T19:04:10.594Z,-0.0019751594,-0.0065439884,0.4899492,0.098098755,-0.093322754,9.800995,12.162781,8.850098,-46.67511,0.09290478,-0.09665466,9.805734,-0.00055010617,-0.0002468601,-0.0001745224,-7.6293945e-05,0.00016784668,-0.00022888184
2019-07-01T19:04:10.789Z,-0.001966542,-0.0065536527,0.48996013,0.095718384,-0.095718384,9.8033905,11.444092,10.5407715,-45.394897,0.0931516,-0.09660136,9.805732,0.0013588592,-0.0003046319,-0.0009241104,0.00010681152,0.00022888184,-0.00022888184
2019-07-01T19:04:10.999Z,-0.0019275289,-0.0065535433,0.48990968,0.093322754,-0.093322754,9.8033905,11.341858,8.503723,-47.01233,0.0935302,-0.09592788,9.805735,0.001225844,0.001644887,-0.00030136108,-7.6293945e-05,0.00012207031,1.5258789e-05
2019-07-01T19:04:11.198Z,-0.0019068684,-0.0065446,0.48986274,0.093322754,-0.095718384,9.808182,11.193848,9.013367,-48.18573,0.09358097,-0.09548367,9.805739,0.0016573966,0.000718154,-0.001955986,4.5776367e-05,0.0004119873,-0.00035095215
2019-07-01T19:04:11.401Z,-0.0019063338,-0.006497977,0.4897559,0.090927124,-0.088531494,9.7986145,12.477112,10.546875,-46.87195,0.09280061,-0.09501522,9.805751,-0.00068093836,0.0009728819,0.0012464523,-1.5258789e-05,0.00022888184,-0.000289917
2019-07-01T19:04:11.607Z,-0.0019252724,-0.0065146345,0.4898182,0.098098755,-0.098098755,9.800995,13.20343,8.924866,-47.68524,0.092896685,-0.0955057,9.805745,0.00018482655,-0.0011617094,-0.00012588501,4.5776367e-05,0.0,-0.00016784668
2019-07-01T19:04:11.807Z,-0.0019240001,-0.006533439,0.48985937,0.095718384,-0.095718384,9.7986145,12.016296,8.976746,-45.585632,0.093225904,-0.095668994,9.80574,0.0015344098,-0.0002815947,-8.678436e-05,-1.5258789e-05,0.00022888184,-0.0004119873
2019-07-01T19:04:12.073Z,-0.0019249818,-0.0065190964,0.489828,0.095718384,-0.102890015,9.8033905,12.4053955,9.397888,-49.668884,0.0929747,-0.09554464,9.805744,0.00035538524,0.00053589046,-0.00086307526,-7.6293945e-05,0.00022888184,-0.0004119873
2019-07-01T19:04:12.212Z,-0.0019379042,-0.006552513,0.48992068,0.098098755,-0.086135864,9.8033905,12.927246,8.486938,-49.80011,0.093411684,-0.09609656,9.805735,0.0006329268,-0.0010609776,0.00054454803,-1.5258789e-05,-6.1035156e-05,-0.000289917
2019-07-01T19:04:12.412Z,-0.0019204817,-0.0065233074,0.48983178,0.093322754,-0.102890015,9.7986145,11.343384,8.425903,-46.273804,0.09308951,-0.09550855,9.805743,-7.897615e-06,0.00074838847,0.00035953522,0.00010681152,0.00016784668,-0.00035095215
2019-07-01T19:04:12.619Z,-0.0019634927,-0.006545575,0.4899378,0.093322754,-0.090927124,9.808182,11.303711,9.373474,-46.38214,0.09304528,-0.09646922,9.805735,0.0014739484,-0.0016360506,-0.0007200241,-7.6293945e-05,0.0004119873,-0.0004119873
2019-07-01T19:04:12.830Z,-0.00195888,-0.006522418,0.48987916,0.090927124,-0.102890015,9.810577,12.246704,8.926392,-46.58661,0.09270017,-0.096161604,9.80574,-7.844716e-05,0.0009147674,-0.0020780563,-7.6293945e-05,0.00016784668,-0.0004119873
2019-07-01T19:04:13.022Z,-0.0019636573,-0.0065484587,0.48994458,0.088531494,-0.093322754,9.805786,11.602783,8.958435,-47.00775,0.09309225,-0.09650047,9.805734,0.0016708523,-0.00088736415,0.0021209717,4.5776367e-05,0.00022888184,-0.00035095215
2019-07-01T19:04:13.217Z,-0.001974846,-0.006528065,0.48991257,0.098098755,-0.100494385,9.810577,12.420654,9.30481,-47.195435,0.09263961,-0.096492395,9.8057375,0.00019792467,5.365163e-05,0.0006170273,-1.5258789e-05,0.000289917,-0.0004119873
2019-07-01T19:04:13.423Z,-0.001968411,-0.006506778,0.48985583,0.090927124,-0.095718384,9.810577,12.704468,8.372498,-46.643066,0.09234376,-0.096171826,9.805744,0.00027051568,0.0009326786,-0.0011873245,-7.6293945e-05,0.00022888184,-0.00047302246
2019-07-01T19:04:13.621Z,-0.0019581402,-0.0065028328,0.48983362,0.093322754,-0.090927124,9.8033905,12.333679,9.155273,-47.224426,0.09237743,-0.09595595,9.805745,0.0007060617,0.00023250282,0.0008029938,4.5776367e-05,0.00016784668,-0.0004119873
2019-07-01T19:04:13.822Z,-0.0019683833,-0.006518718,0.48988298,0.100494385,-0.098098755,9.7986145,11.550903,9.686279,-47.16034,0.092545174,-0.09628895,9.805741,0.00031217188,-0.00038339943,-0.000582695,-7.6293945e-05,0.0,-0.00047302246
2019-07-01T19:04:14.025Z,-0.0019637083,-0.006541053,0.4899278,0.088531494,-0.098098755,9.810577,12.42981,9.375,-46.427917,0.092966996,-0.09642839,9.805736,0.0010762736,-0.00023952127,0.00089263916,-1.5258789e-05,6.1035156e-05,-0.000289917
2019-07-01T19:04:14.235Z,-0.0019513917,-0.006500053,0.4898186,0.088531494,-0.100494385,9.808182,11.499023,8.364868,-46.520996,0.0923964,-0.095812276,9.805747,-0.0005043596,0.0005784258,-5.054474e-05,0.00016784668,0.00016784668,-0.00022888184
2019-07-01T19:04:14.440Z,-0.0019559534,-0.0064985384,0.48982102,0.095718384,-0.100494385,9.805786,11.921692,8.604431,-45.506287,0.09232641,-0.09587598,9.805747,0.00074916333,-0.0010294393,0.0013952255,0.00022888184,0.00022888184,-0.00016784668
2019-07-01T19:04:14.644Z,-0.001951172,-0.006559595,0.48995388,0.086135864,-0.088531494,9.800995,12.747192,9.324646,-46.829224,0.09377394,-0.096109115,9.805731,0.0027867109,-0.00075449795,-2.7656555e-05,-7.6293945e-05,0.00016784668,-0.000289917
2019-07-01T19:04:14.846Z,-0.0019424452,-0.006549905,0.4899206,0.093322754,-0.100494385,9.810577,12.609863,9.97467,-47.14508,0.09332346,-0.096149124,9.805735,0.00021965057,-0.0002776459,0.0013074875,4.5776367e-05,0.000289917,-0.00022888184
2019-07-01T19:04:15.110Z,-0.0019566768,-0.006543957,0.48992535,0.090927124,-0.100494385,9.8033905,12.802124,8.746338,-46.720886,0.09308449,-0.09633581,9.805736,-0.00024511665,-8.901209e-05,0.0003938675,-7.6293945e-05,6.1035156e-05,-0.00016784668
2019-07-01T19:04:15.257Z,-0.0019738057,-0.006527106,0.48990902,0.090927124,-0.093322754,9.808182,11.437988,9.103394,-48.10486,0.0926336,-0.09646502,9.805738,-0.0002776906,-0.00043778121,-0.0010118484,4.5776367e-05,0.00016784668,-0.00035095215
2019-07-01T19:04:15.457Z,-0.0019782472,-0.0065123253,0.4898811,0.088531494,-0.098098755,9.815353,12.413025,9.237671,-47.813416,0.092341304,-0.09639598,9.805741,0.00074023753,0.0006745383,-0.0017957687,-0.0001373291,0.00035095215,-0.000289917
2019-07-01T19:04:15.658Z,-0.0019396645,-0.006566571,0.48995495,0.090927124,-0.095718384,9.793823,11.274719,8.866882,-47.164917,0.09363133,-0.09626541,9.805731,0.0028059408,7.224083e-05,0.00023555756,4.5776367e-05,6.1035156e-05,-0.000289917
2019-07-01T19:04:15.862Z,-0.0019322193,-0.006546928,0.48990065,0.090927124,-0.086135864,9.793823,11.6622925,8.604431,-47.610474,0.09337302,-0.09594355,9.805737,-0.0007633567,0.0004651174,-0.00048351288,4.5776367e-05,-6.1035156e-05,-0.00022888184
2019-07-01T19:04:16.066Z,-0.0018900493,-0.0065427823,0.48983696,0.090927124,-0.093322754,9.805786,12.232971,8.863831,-47.958374,0.0937143,-0.09517585,9.80574,0.0012986362,0.0011240393,-0.0015974045,0.00010681152,0.00016784668,-0.0004119873
2019-07-01T19:04:16.269Z,-0.0019011585,-0.0065429676,0.48985168,0.098098755,-0.090927124,9.805786,12.321472,8.786011,-46.694946,0.093609124,-0.09536916,9.805739,0.0004376471,-0.00011206418,0.0010089874,-7.6293945e-05,0.00016784668,-0.000289917
2019-07-01T19:04:16.472Z,-0.0019305614,-0.0064896853,0.4897682,0.088531494,-0.095718384,9.7986145,12.159729,8.776855,-46.766663,0.09242476,-0.09535115,9.805751,-0.0017290637,0.000580959,-0.0012407303,-0.0001373291,0.00016784668,-4.5776367e-05
2019-07-01T19:04:16.674Z,-0.0019187906,-0.0065164235,0.48981392,0.093322754,-0.093322754,9.810577,11.4730835,9.603882,-46.417236,0.09299001,-0.0954116,9.805745,0.0020187646,-0.00031454116,0.0010824203,4.5776367e-05,0.00022888184,-0.00016784668
2019-07-01T19:04:16.873Z,-0.0019583842,-0.0065087033,0.4898473,0.095718384,-0.093322754,9.805786,12.791443,8.679199,-47.64099,0.09247396,-0.09601798,9.805744,-0.0005754158,-0.0018623993,-0.0005636215,0.00016784668,0.00012207031,-0.00022888184
2019-07-01T19:04:17.077Z,-0.0019553532,-0.006538111,0.48991033,0.095718384,-0.095718384,9.8033905,12.640381,8.657837,-46.20514,0.09299891,-0.0962554,9.805737,0.0015198141,-0.0009032935,0.0009031296,0.00010681152,0.00012207031,-0.00022888184
2019-07-01T19:04:17.271Z,-0.001942446,-0.0065760417,0.48998007,0.093322754,-0.102890015,9.815353,13.212585,9.222412,-48.379517,0.093763724,-0.096406676,9.805728,0.002184108,-0.00025833398,0.0010786057,-1.5258789e-05,0.00016784668,-0.00010681152
2019-07-01T19:04:17.489Z,-0.001989175,-0.006553308,0.48998848,0.086135864,-0.098098755,9.812973,11.3342285,10.18219,-47.200012,0.09292505,-0.09698803,9.80573,-0.0005656928,-0.0013526827,0.00055217743,4.5776367e-05,0.000289917,-0.00022888184
2019-07-01T19:04:17.686Z,-0.0019615912,-0.006535969,0.4899135,0.093322754,-0.105285645,9.808182,12.516785,9.526062,-46.401978,0.092902005,-0.09634181,9.805737,0.00041922182,0.0011132956,-0.000111579895,4.5776367e-05,0.00012207031,-0.00010681152
2019-07-01T19:04:17.884Z,-0.0019667873,-0.006483008,0.48979962,0.093322754,-0.08135986,9.800995,12.666321,9.396362,-47.113037,0.09195914,-0.09590977,9.80575,-0.0007874742,0.0006792471,-0.0003938675,4.5776367e-05,0.000289917,-0.00035095215
2019-07-01T19:04:18.098Z,-0.0019583995,-0.00650141,0.4898307,0.088531494,-0.098098755,9.8033905,11.413574,8.441162,-47.558594,0.09235094,-0.095946416,9.805746,0.0012265816,0.00070527196,-0.0021734238,-0.00019836426,0.00012207031,-0.00016784668
2019-07-01T19:04:18.293Z,-0.0019593388,-0.0065183532,0.4898705,0.086135864,-0.093322754,9.796219,12.284851,9.880066,-46.922302,0.09262721,-0.09612947,9.805741,0.0014256239,-7.534027e-05,-0.00049495697,-7.6293945e-05,0.00022888184,-0.0002746582
2019-07-01T19:04:18.491Z,-0.0019540107,-0.006524495,0.4898776,0.088531494,-0.098098755,9.793823,12.081909,8.918762,-46.958923,0.09278263,-0.09609814,9.80574,0.00030896813,-0.0003508553,-1.6212463e-05,0.00010681152,0.0,-4.5776367e-05
2019-07-01T19:04:18.689Z,-0.0019542829,-0.0065133385,0.48985258,0.088531494,-0.098098755,9.800995,11.715698,9.541321,-45.910645,0.09259203,-0.095992945,9.805743,0.0002699569,0.0005059913,0.00015068054,-7.6293945e-05,0.00016784668,9.1552734e-05
2019-07-01T19:04:18.913Z,-0.0019774127,-0.0065145087,0.489885,0.105285645,-0.105285645,9.810577,10.836792,9.62677,-45.78247,0.09238622,-0.09640311,9.805741,0.00023185462,-0.000762634,-6.389618e-05,-1.5258789e-05,0.00016784668,-4.5776367e-05
2019-07-01T19:04:19.108Z,-0.0019612738,-0.0065619107,0.48997214,0.093322754,-0.093322754,9.805786,12.844849,9.768677,-46.66748,0.09334208,-0.09659193,9.80573,0.002141811,-0.0005707741,0.0005970001,4.5776367e-05,6.1035156e-05,-0.000289917
2019-07-01T19:04:19.304Z,-0.0019510277,-0.006576399,0.48999193,0.095718384,-0.098098755,9.810577,11.776733,9.338379,-47.314453,0.093686044,-0.0965581,9.805727,0.0013236776,-0.00035922974,0.00023174286,0.00010681152,0.00016784668,-0.00035095215
2019-07-01T19:04:19.512Z,-0.0019610776,-0.006548187,0.48994064,0.088531494,-0.098098755,9.7986145,12.727356,8.883667,-46.6156,0.09311283,-0.09645333,9.805734,-3.1001866e-05,1.4461577e-05,0.0011072159,4.5776367e-05,0.000289917,-0.00022888184
2019-07-01T19:04:19.716Z,-0.0019787624,-0.0065680975,0.4900087,0.100494385,-0.105285645,9.810577,11.839294,8.828735,-46.89331,0.09327572,-0.09695431,9.805728,0.00077519566,-0.0014000162,-0.0016546249,0.00010681152,0.00012207031,-0.00010681152
2019-07-01T19:04:19.919Z,-0.0019651237,-0.006600124,0.49006405,0.095718384,-0.093322754,9.808182,12.139893,8.566284,-48.091125,0.09394815,-0.09703488,9.80572,0.0020047203,0.00012052804,0.0011234283,-7.6293945e-05,0.00016784668,-0.00010681152
2019-07-01T19:04:20.120Z,-0.0019494836,-0.006593314,0.49002844,0.086135864,-0.093322754,9.7986145,10.8810425,9.057617,-47.035217,0.09398602,-0.0966982,9.805723,6.432831e-05,0.00074020773,-0.0010004044,-1.5258789e-05,0.0,-4.5776367e-05
2019-07-01T19:04:20.325Z,-0.0019702448,-0.0066303504,0.49013942,0.090927124,-0.098098755,9.8033905,12.237549,8.935547,-47.71881,0.09440722,-0.09742111,9.805712,0.000832662,-0.0004588589,0.0001296997,-0.0002593994,0.0,-0.000289917
2019-07-01T19:04:20.524Z,-0.0020034597,-0.0065732594,0.49005225,0.090927124,-0.100494385,9.805786,12.234497,8.938599,-48.24524,0.09312173,-0.0974308,9.805724,-0.0017092526,0.00026518852,-0.0005464554,-7.6293945e-05,0.00022888184,-0.0004119873
2019-07-01T19:04:20.726Z,-0.0020097448,-0.0065716524,0.4900567,0.093322754,-0.093322754,9.810577,11.6241455,9.47113,-47.131348,0.09303334,-0.09752328,9.805724,5.7809055e-05,-0.00035973638,-5.054474e-05,4.5776367e-05,6.1035156e-05,1.5258789e-05
2019-07-01T19:04:20.929Z,-0.0019872752,-0.0065355278,0.48994553,0.090927124,-0.098098755,9.800995,11.4227295,8.355713,-45.83893,0.0926441,-0.096780114,9.805735,-0.0012349412,0.0015405938,0.0007619858,-1.5258789e-05,-0.00012207031,9.1552734e-05
2019-07-01T19:04:21.127Z,-0.0019841667,-0.006547228,0.48996818,0.086135864,-0.095718384,9.800995,12.353516,9.518433,-46.774292,0.09287149,-0.096841805,9.805732,0.00045709312,-0.00054585934,0.00066947937,0.00010681152,0.0,-0.00010681152
2019-07-01T19:04:21.330Z,-0.0019509796,-0.0065553174,0.4899439,0.086135864,-0.088531494,9.8033905,12.864685,10.13031,-46.066284,0.09333141,-0.096349545,9.805733,0.0014238879,0.0011212826,0.00035476685,-1.5258789e-05,0.0,1.5258789e-05
2019-07-01T19:04:21.544Z,-0.0019408835,-0.0065127537,0.489834,0.102890015,-0.102890015,9.808182,11.860657,9.342957,-47.166443,0.09271281,-0.09575624,9.805744,-0.00011152029,0.0012477413,0.00054836273,-1.5258789e-05,0.000289917,0.00021362305
2019-07-01T19:04:21.741Z,-0.001963771,-0.0065300814,0.48990288,0.095718384,-0.090927124,9.805786,13.200378,10.447693,-46.392822,0.09278157,-0.09632139,9.805738,0.00077074766,-0.00083203614,-0.0010700226,-7.6293945e-05,0.00016784668,-0.00022888184
2019-07-01T19:04:21.942Z,-0.0019455688,-0.0065589715,0.48994523,0.088531494,-0.100494385,9.810577,12.898254,9.039307,-46.36383,0.093445726,-0.09629229,9.805732,0.0015549734,0.00057443976,0.00024414062,-0.0001373291,6.1035156e-05,-0.000289917
2019-07-01T19:04:22.148Z,-0.0019424738,-0.006546894,0.48991376,0.100494385,-0.098098755,9.812973,12.997437,9.637451,-47.37854,0.09327246,-0.096119955,9.805736,0.0005242899,-7.2456896e-05,-0.0003194809,0.00010681152,0.00022888184,-0.00022888184
2019-07-01T19:04:22.351Z,-0.0018986798,-0.0065714773,0.48991337,0.090927124,-0.098098755,9.808182,11.177063,10.317993,-47.016907,0.094113626,-0.09560735,9.805733,0.0023223385,0.00013267994,9.727478e-05,0.00022888184,0.00016784668,-0.00022888184