timestamp,rotationVector_x,rotationVector_y,rotationVector_z,accelerometer_x,accelerometer_y,accelerometer_z,magneticField_x,magneticField_y,magneticField_z,gravity_x,gravity_y,gravity_z,linearAcceleration_x,linearAcceleration_y,linearAcceleration_z,gyroscope_x,gyroscope_y,gyroscope_z
2019-07-01T19:40:00.025Z,-0.2742135,-0.6561395,0.6543729,-0.90448,-11.07399,2.1966095,3.3859253,31.640625,-12.837219,-0.21114321,-9.803737,-0.11203316,-1.0238365,0.18698215,1.8949167,-0.4590912,-0.27061462,-0.018676758
2019-07-01T19:40:00.230Z,-0.23645347,-0.63348335,0.68829644,-0.8111725,-7.4727783,0.4665985,-3.2974243,32.62329,-8.963013,0.07250103,-9.770406,0.8392249,-0.61218333,-0.46839142,0.5197256,1.1591644,-1.0733032,0.021575928
2019-07-01T19:40:00.428Z,-0.10765805,-0.6330348,0.75156796,-0.43310547,-8.812759,2.8378906,-12.156677,31.413269,-13.452148,0.2887155,-9.650384,1.7196286,0.7151357,-0.40328217,-1.4504638,0.03527832,-2.0335236,0.13421631
2019-07-01T19:40:00.630Z,0.011079945,-0.6318812,0.7745486,-0.55752563,-8.767303,1.6175537,-16.43219,31.5094,-15.449524,0.49099606,-9.593536,1.9731648,-1.5311546,0.41200733,-0.044561744,0.035842896,-0.9924774,0.24032593
2019-07-01T19:40:00.831Z,-0.01922659,0.63313943,-0.7734723,0.28474426,-9.61676,4.9100647,-18.37616,31.08368,-14.851379,0.012516333,-9.6134205,1.9371034,0.15906516,0.7900171,0.29242527,0.056243896,-0.47850037,0.28431702
2019-07-01T19:40:01.047Z,-0.05578618,0.6559742,-0.7515563,-1.2442627,-6.7836456,-0.4737854,-15.774536,29.872131,-14.752197,0.28426123,-9.715145,1.3059667,-0.4631679,-1.9157352,0.97634304,-0.42518616,0.1968689,-0.19247437
2019-07-01T19:40:01.238Z,-0.021701211,-0.66005945,0.7505814,-0.04307556,-9.5234375,1.0695953,-15.171814,30.863953,-15.4800415,-0.03638924,-9.726293,1.2523209,-2.5539024,0.8265743,-0.7750883,0.04902649,2.0691986,-0.11830139
2019-07-01T19:40:01.444Z,-0.16369253,-0.64901114,0.72125006,-1.1126556,-8.93959,2.498108,-8.518982,31.500244,-21.81549,-0.04610011,-9.753385,1.0196823,-0.60428315,0.038132668,0.26516342,-0.24473572,2.239563,-0.43284607
2019-07-01T19:40:01.661Z,-0.30834523,-0.58841467,0.6630851,2.9599152,-13.093521,-1.9118652,-0.4928589,31.851196,-26.454163,-0.028816871,-9.7388115,1.1511323,-2.298821,0.3509016,1.4279398,0.21322632,2.2403564,-0.09185791
2019-07-01T19:40:01.855Z,-0.4319523,-0.5030714,0.575536,1.1365967,-8.573486,0.933197,13.401794,29.724121,-27.909851,-0.15327463,-9.733779,1.1833946,1.3370866,-0.35250664,-0.23362303,-0.21810913,2.5051727,-0.24414062
2019-07-01T19:40:02.057Z,-0.5664689,-0.3849295,0.4251525,-0.8805542,-9.74118,1.3471527,24.620056,32.357788,-17.637634,-0.25590038,-9.784508,0.60687995,0.71059346,0.26054955,1.3008907,-0.2722168,2.6600952,-0.121658325
2019-07-01T19:40:02.258Z,-0.65756536,-0.24726552,0.26596126,1.0289154,-8.164307,1.1629181,26.23291,33.06427,-0.7217407,-0.22882675,-9.80316,0.12685059,0.5524547,0.04793358,0.989893,0.043777466,1.8748169,0.006134033
2019-07-01T19:40:02.453Z,-0.6865071,-0.15126029,0.20347936,0.22013855,-10.882553,-2.0482635,23.164368,31.260681,8.099365,-0.71800596,-9.779662,0.114312425,0.9786129,0.59333897,0.00030640513,-0.049743652,0.8346863,0.3245697
2019-07-01T19:40:02.663Z,-0.69743574,-0.08868569,0.15508203,-3.2638092,-6.891327,5.95813,21.07544,30.729675,11.398315,-0.914173,-9.763304,0.112153195,0.18787414,-1.3073578,0.9652651,0.5308838,0.72509766,0.1013031
2019-07-01T19:40:02.896Z,-0.66350025,-0.024652924,0.101050206,-1.2442627,-9.480362,1.8065796,17.459106,30.628967,12.356567,-0.9567608,-9.690649,1.1603162,0.20064813,0.7067995,1.4678408,0.22612,0.8895416,-0.15885925
2019-07-01T19:40:03.074Z,-0.6650946,0.029235572,0.030868664,-0.6006012,-9.88475,1.2346954,15.113831,31.385803,16.984558,-0.8301741,-9.707747,1.1139262,0.030198991,0.072309494,0.56500435,-0.19940186,1.0354156,-0.2195282
2019-07-01T19:40:03.278Z,-0.68638885,0.08006109,-0.03512482,-0.093322754,-9.434906,1.5744781,11.602783,29.821777,19.302368,-0.6608045,-9.774439,0.4405263,0.92586195,0.12706375,0.9631419,-0.31932068,0.76205444,-0.037857056
2019-07-01T19:40:03.469Z,-0.6217102,-0.20123868,0.2856173,-2.3066864,-11.392227,-0.110076904,9.507751,31.732178,18.267822,-0.7159383,-9.675175,1.431368,-0.23025113,-0.29879093,-0.7669686,0.23008728,0.47799683,0.11706543
2019-07-01T19:40:03.689Z,-0.54677993,-0.27686155,0.3441726,0.22970581,-12.157928,0.43788147,10.136414,34.14612,12.995911,0.17142949,-9.496835,2.4394906,-0.6509143,-0.28233528,-0.99815345,0.7165222,-0.7323761,-0.18824768
2019-07-01T19:40:03.887Z,-0.48496503,-0.33815235,0.3967578,0.5934143,-9.9756775,2.3090668,11.973572,36.643982,7.6141357,0.8831353,-9.310303,2.9510548,-0.08209485,-0.18438816,-0.27074885,0.55104065,-0.91038513,-0.2605133
2019-07-01T19:40:04.083Z,-0.45469087,-0.39767855,0.47011432,2.1248322,-9.135803,3.2374878,12.919617,36.576843,5.5984497,0.82673997,-9.405576,2.6499135,-0.06561297,0.50539494,0.39420605,0.11268616,-1.0126953,0.11968994
2019-07-01T19:40:04.284Z,-0.42884463,-0.471226,0.55694723,-1.8352966,-16.579865,2.0626068,19.517517,33.39081,3.0181885,0.23953925,-9.628665,1.8444021,0.6370657,0.2968998,0.6585673,-0.28041077,-1.5081177,0.5448456
2019-07-01T19:40:04.484Z,-0.38760754,-0.5676328,0.6024122,-5.5417786,-11.059631,4.063019,23.773193,31.262207,3.617859,-0.062146403,-9.791552,0.5404134,-0.37239134,-0.42195892,-0.21365553,-0.6256714,-1.2965088,0.59347534
2019-07-01T19:40:04.682Z,-0.28907415,-0.6170942,0.65041715,-2.6560364,-12.40918,3.3260193,23.565674,31.37207,-2.9190063,0.3734798,-9.774586,0.6988389,-2.4869277,-2.18186,0.66222286,-0.17932129,-1.5369568,0.19067383
2019-07-01T19:40:04.884Z,-0.3111827,-0.38001817,0.86071444,14.648865,1.7036896,-5.929413,31.425476,19.044495,-19.117737,-4.255399,-7.2323327,5.074971,3.52285,-3.9538121,-4.5765734,0.9391327,-0.6434326,0.6139984
2019-07-01T19:40:05.088Z,-0.07999571,-0.5477487,0.7841535,-2.5866394,-10.80838,4.8717804,18.43872,28.285217,-33.996582,1.7830417,-8.86437,3.796587,7.4305553,4.3976707,7.2744846,0.072250366,-2.536087,2.2692108
2019-07-01T19:40:05.290Z,-0.026989449,-0.29606372,0.83991253,1.9286194,-7.9824524,7.4488525,21.383667,19.334412,-39.11133,2.1919837,-5.117547,8.073184,-3.9330485,-4.687906,-3.3503008,1.217926,0.4874115,-3.7068634
2019-07-01T19:40:05.498Z,-0.07754398,-0.17832197,0.8952537,-0.83270264,-2.5770721,8.528015,27.17743,17.150879,-37.149048,0.040503625,-3.7408378,9.065036,1.0094113,-2.6826422,-0.2771368,1.2876282,1.1348724,-0.33015442
2019-07-01T19:40:05.696Z,-0.06843838,-0.10072905,0.9462539,-0.94277954,-1.2586212,8.846268,37.04071,5.6411743,-38.386536,-0.6782169,-2.27163,9.515781,0.6027069,0.005373955,0.6819,1.2562256,0.27653503,1.3009186
2019-07-01T19:40:05.896Z,-0.038366873,-0.057131045,0.9655479,0.21057129,-0.07896423,9.32962,37.121582,-5.9692383,-34.864807,-0.4453672,-1.270772,9.713762,-0.28740525,0.7606069,-0.13186646,0.49264526,0.4041443,1.0022125
2019-07-01T19:40:06.108Z,-0.034367573,-0.055628657,0.96235085,0.122039795,-0.20578003,9.8033905,32.64923,-8.509827,-37.01172,-0.36083108,-1.2278204,9.722791,0.43535173,1.0135183,0.151515,0.12875366,-0.53067017,0.1398468
2019-07-01T19:40:06.310Z,-0.033068366,-0.052802492,0.9588476,0.13877869,-0.20578003,9.805786,33.67157,-9.101868,-36.79657,-0.33501816,-1.1726699,9.730519,0.46335998,0.96261835,0.043447495,0.0028381348,-0.00050354004,-0.0012664795
2019-07-01T19:40:06.507Z,-0.03177856,-0.050121535,0.95520645,0.12921143,-0.22013855,9.7986145,33.73108,-9.303284,-38.198853,-0.31034946,-1.1197219,9.737572,0.44325668,0.91166174,0.04058361,0.0028381348,-0.00093078613,-0.0009460449
2019-07-01T19:40:06.710Z,-0.030513437,-0.047625527,0.9514656,0.117248535,-0.21057129,9.800995,33.18329,-9.051514,-37.74872,-0.28684765,-1.0698026,9.743902,0.4202998,0.86095655,0.037730217,0.0026550293,-0.00062561035,-0.0011901855
2019-07-01T19:40:06.914Z,-0.022431247,-0.033892203,0.9209335,0.14356995,-0.20817566,9.808182,32.055664,-9.051514,-37.852478,-0.14751653,-0.7827021,9.774253,0.2765585,0.56767005,0.022805214,0.00289917,-0.00074768066,-0.0010070801
2019-07-01T19:40:07.118Z,-0.01602342,-0.025593625,0.89231217,0.1268158,-0.20817566,9.805786,32.081604,-8.61969,-36.9339,-0.054335196,-0.58946943,9.788767,0.18425551,0.37690115,0.017317772,0.0025939941,-0.0004272461,-0.0010681152
2019-07-01T19:40:07.325Z,-0.011254059,-0.020627817,0.86971444,0.117248535,-0.21057129,9.800995,33.779907,-9.954834,-38.48419,0.0074845287,-0.46068725,9.795821,0.12125675,0.2475436,0.008947372,0.00289917,-0.00062561035,-0.0011291504
2019-07-01T19:40:07.530Z,-0.016343797,-0.010171152,0.41356266,0.124420166,-0.21774292,9.796219,32.19757,-9.329224,-38.594055,0.049020156,-0.37429455,9.799382,0.08044908,0.16171154,0.008664131,0.0027160645,-0.00062561035,-0.0011291504
2019-07-01T19:40:07.731Z,-0.013118555,-0.010191705,0.4125728,0.13160706,-0.20817566,9.808182,32.36084,-9.321594,-38.223267,0.07590293,-0.31681067,9.801238,0.05093552,0.10399333,0.0029268265,0.0030212402,-0.0006866455,-0.0010223389
2019-07-01T19:40:07.927Z,-0.010949468,-0.010155599,0.41187823,0.16270447,-0.18664551,9.8033905,33.57544,-9.321594,-37.290955,0.09302757,-0.2777069,9.802276,0.03191647,0.06702936,8.869171e-05,0.0027770996,-0.00038146973,-0.0009460449
2019-07-01T19:40:08.129Z,-0.009542707,-0.010185862,0.41146478,0.114852905,-0.22492981,9.808182,32.684326,-9.300232,-38.23242,0.105050385,-0.2527678,9.802829,0.02250342,0.039033562,0.004429817,0.0028381348,-0.00061035156,-0.0011291504
2019-07-01T19:40:08.337Z,-0.008562439,-0.010204742,0.411176,0.122039795,-0.22970581,9.808182,33.224487,-9.848022,-38.137817,0.11337527,-0.23536457,9.803169,0.013948284,0.024035677,0.00095939636,0.0026550293,-0.00050354004,-0.0011444092
2019-07-01T19:40:08.535Z,-0.007979368,-0.010159569,0.41096756,0.124420166,-0.19621277,9.805786,32.417297,-10.131836,-36.95526,0.11732242,-0.22455095,9.803376,0.005679466,0.011324421,0.00088214874,0.0027160645,-0.0006866455,-0.0011291504
2019-07-01T19:40:08.748Z,-0.0075331256,-0.010139722,0.41081786,0.124420166,-0.20578003,9.800995,32.666016,-9.739685,-38.095093,0.12060085,-0.21639359,9.803521,0.003833048,0.0048516095,0.0005130768,0.0030212402,-0.0008087158,-0.0010070801
2019-07-01T19:40:08.948Z,-0.0072233197,-0.010184522,0.4107524,0.1268158,-0.21534729,9.805786,32.41272,-9.896851,-38.79547,0.123913705,-0.21120659,9.803593,0.0033972189,-0.0005925894,-0.0013208389,0.0026550293,-0.00074768066,-0.0011901855
2019-07-01T19:40:09.150Z,-0.0070614885,-0.010171613,0.41069442,0.1268158,-0.21534729,9.810577,33.387756,-9.838867,-37.91809,0.12500015,-0.20820118,9.803643,-0.0007932484,-0.0043034405,0.0009717941,0.0028381348,-0.0006866455,-0.0011291504
2019-07-01T19:40:09.356Z,-0.006944445,-0.010221521,0.41069126,0.1268158,-0.21534729,9.800995,32.84607,-9.214783,-38.52234,0.12683614,-0.20650992,9.803655,0.0011888146,-0.0076532364,0.001701355,0.0027770996,-0.0006866455,-0.0011901855
2019-07-01T19:40:09.559Z,-0.0068660956,-0.010210093,0.41065982,0.122039795,-0.21774292,9.796219,33.277893,-8.529663,-38.627625,0.12727012,-0.2050126,9.803681,-0.002119258,-0.007731989,-0.0016431808,0.0027770996,-0.00062561035,-0.0010681152
2019-07-01T19:40:09.763Z,-0.006843681,-0.010193532,0.41064215,0.122039795,-0.21296692,9.796219,33.135986,-10.075378,-37.878418,0.12715855,-0.20447598,9.803694,-0.0024835765,-0.009698287,0.00027561188,0.0026550293,-0.0006866455,-0.0011901855
2019-07-01T19:40:09.953Z,-0.0067522163,-0.010162025,0.41059357,0.119644165,-0.21534729,9.810577,32.543945,-9.024048,-37.338257,0.1273428,-0.20258003,9.803731,-0.0024289936,-0.009678245,0.0005607605,0.0028381348,-0.00074768066,-0.0010681152
2019-07-01T19:40:10.176Z,-0.006763592,-0.010157916,0.41059437,0.122039795,-0.21296692,9.8033905,33.44879,-8.526611,-37.5,0.12717754,-0.20275047,9.80373,-0.003486827,-0.010914028,0.002544403,0.0028381348,-0.00074768066,-0.0009460449
2019-07-01T19:40:10.371Z,-0.0067667807,-0.0101765115,0.41060752,0.12921143,-0.22013855,9.8033905,32.078552,-8.616638,-37.38861,0.1274814,-0.20295903,9.80372,-0.0028309375,-0.01142019,4.005432e-05,0.0027160645,-0.000869751,-0.0010070801
2019-07-01T19:40:10.568Z,-0.0067843767,-0.01013852,0.41058803,0.12921143,-0.21057129,9.8033905,34.446716,-9.703064,-37.176514,0.12666474,-0.20296508,9.803732,-0.004624054,-0.010720447,-0.0024232864,0.0028381348,-0.0008087158,-0.0010681152
2019-07-01T19:40:10.773Z,-0.0069325455,-0.010204453,0.41067645,0.1268158,-0.21296692,9.8033905,33.52661,-8.595276,-37.442017,0.12663019,-0.20615764,9.803665,-5.9440732e-05,-0.0065636486,0.00014305115,0.0028381348,-0.0006866455,-0.0010681152
2019-07-01T19:40:10.966Z,-0.007036472,-0.010237092,0.4107296,0.117248535,-0.21296692,9.805786,33.65326,-9.463501,-37.01935,0.12636435,-0.20828609,9.803623,-0.0012290627,-0.004433319,9.727478e-05,-7.6293945e-05,-0.00012207031,7.6293945e-05
2019-07-01T19:40:11.190Z,-0.007123187,-0.010222151,0.41074637,0.119644165,-0.20817566,9.8033905,33.05664,-8.413696,-36.55548,0.12539466,-0.20971848,9.803604,-0.00287728,-0.0025388896,-0.0010480881,4.5776367e-05,-0.00018310547,0.00018310547
2019-07-01T19:40:11.386Z,-0.007180181,-0.010202716,0.41075107,0.124420166,-0.21296692,9.800995,32.878113,-8.784485,-37.30316,0.12458688,-0.21058165,9.803597,-0.002071254,-0.0019017309,0.00025844574,4.5776367e-05,-0.00024414062,0.0001373291
2019-07-01T19:40:11.589Z,-0.0072004655,-0.010208284,0.41076094,0.1268158,-0.21057129,9.8033905,32.862854,-9.074402,-37.590027,0.12452069,-0.2109905,9.803589,-0.00057598203,-0.00076685846,0.00081539154,-1.5258789e-05,-6.1035156e-05,0.00019836426
2019-07-01T19:40:11.783Z,-0.0072373296,-0.010241264,0.41079378,0.117248535,-0.21534729,9.805786,33.413696,-9.333801,-37.286377,0.124805644,-0.21191978,9.803566,-0.00013732165,-0.0017711371,-0.0010499954,-1.5258789e-05,-0.00018310547,0.0001373291
2019-07-01T19:40:11.985Z,-0.007255998,-0.010273469,0.41082057,0.119644165,-0.21057129,9.805786,32.865906,-8.77533,-38.586426,0.12522472,-0.21251667,9.803548,-8.818507e-05,-0.0006777942,0.0007419586,-1.5258789e-05,-0.00012207031,-4.5776367e-05
2019-07-01T19:40:12.193Z,-0.007287311,-0.010272232,0.41082934,0.119644165,-0.21296692,9.808182,33.36487,-8.377075,-38.674927,0.124948196,-0.21306774,9.803539,-0.001237981,-0.00035849214,0.0011434555,-0.0002593994,-0.00035095215,0.00030517578
2019-07-01T19:40:12.396Z,-0.0072686677,-0.010288756,0.41083446,0.1268158,-0.21774292,9.805786,33.522034,-10.488892,-37.527466,0.12539269,-0.21286826,9.803538,-0.00027434528,0.0006507337,0.0017251968,-0.0001373291,-0.00024414062,-4.5776367e-05
2019-07-01T19:40:12.598Z,-0.0072706086,-0.010279546,0.410829,0.12921143,-0.21057129,9.7986145,33.354187,-8.824158,-37.483215,0.12521364,-0.212828,9.803541,-0.0005694479,0.0003835559,0.00019741058,-0.0001373291,-0.00012207031,7.6293945e-05
2019-07-01T19:40:12.814Z,-0.007301279,-0.0102696875,0.41083196,0.124420166,-0.2033844,9.7986145,33.102417,-8.982849,-38.03253,0.124789536,-0.21329735,9.803537,-0.0013261512,-0.00084140897,-0.0014629364,0.00016784668,-0.00012207031,7.6293945e-05
2019-07-01T19:40:12.998Z,-0.007300469,-0.010297686,0.41085002,0.1268158,-0.21534729,9.805786,33.911133,-8.854675,-38.038635,0.12529238,-0.21351092,9.803526,0.0005493909,0.00033678114,0.0003042221,-0.0002593994,-6.1035156e-05,0.00024414062
2019-07-01T19:40:13.204Z,-0.0073014223,-0.010295434,0.41084886,0.1268158,-0.20578003,9.800995,32.902527,-9.794617,-38.49182,0.1252447,-0.21350963,9.803526,-0.001059249,7.9616904e-05,-0.0010643005,0.00010681152,-0.00030517578,7.6293945e-05
2019-07-01T19:40:13.416Z,-0.0072240396,-0.010301247,0.41082895,0.1268158,-0.21774292,9.800995,32.28302,-9.480286,-37.269592,0.12597694,-0.21217021,9.803545,-0.00059339404,0.00206846,-0.0011835098,0.00010681152,-0.00030517578,1.5258789e-05
2019-07-01T19:40:13.615Z,-0.0072553325,-0.010312275,0.41084576,0.117248535,-0.21057129,9.8033905,33.924866,-8.6380005,-37.693787,0.12591797,-0.21282087,9.803533,-0.0005520135,-0.0010658801,0.0027246475,4.5776367e-05,-0.00024414062,1.5258789e-05
2019-07-01T19:40:13.811Z,-0.0072964104,-0.010289253,0.41084325,0.13160706,-0.18424988,9.805786,32.77893,-9.002686,-38.17444,0.1251759,-0.21336944,9.803529,-0.0026738197,-0.0017306358,-0.0007362366,-1.5258789e-05,-0.00012207031,7.6293945e-05
2019-07-01T19:40:14.012Z,-0.0072456407,-0.0102788545,0.41082093,0.1268158,-0.22492981,9.808182,33.14514,-9.703064,-38.786316,0.12540439,-0.21237491,9.803548,0.0006868541,0.0020602793,-0.0004911423,4.5776367e-05,0.0,-4.5776367e-05
2019-07-01T19:40:14.214Z,-0.0072687115,-0.010244226,0.4108053,0.112457275,-0.21296692,9.800995,32.481384,-10.108948,-39.067078,0.124603,-0.2125063,9.8035555,-0.0009051785,3.6478043e-05,-0.00032806396,-0.0001373291,7.6293945e-05,0.0001373291
2019-07-01T19:40:14.418Z,-0.007232972,-0.010246206,0.4107957,0.124420166,-0.22013855,9.796219,33.07953,-9.417725,-38.497925,0.12492867,-0.21188194,9.803565,-2.4862587e-05,0.001562655,-5.054474e-05,4.5776367e-05,-0.00012207031,0.00019836426
2019-07-01T19:40:14.623Z,-0.0072655864,-0.010201965,0.41077673,0.13639832,-0.21296692,9.805786,33.657837,-9.089661,-38.453674,0.12387933,-0.21210611,9.803574,-0.002803035,-0.00061288476,-0.00035762787,-1.5258789e-05,-0.00018310547,7.6293945e-05
2019-07-01T19:40:14.831Z,-0.007285458,-0.010206245,0.41078562,0.119644165,-0.21774292,9.800995,33.573914,-9.3185425,-37.66632,0.123793624,-0.21249707,9.803566,-0.0015257522,-0.0016586483,-0.00023937225,0.000289917,-0.00030517578,7.6293945e-05
2019-07-01T19:40:15.020Z,-0.007213465,-0.010171153,0.4107406,0.114852905,-0.22970581,9.800995,33.6792,-8.804321,-37.339783,0.1237568,-0.2109211,9.8036,-0.00028303266,0.0034631938,6.67572e-06,-0.00019836426,-0.00024414062,0.00019836426
2019-07-01T19:40:15.243Z,-0.0072925477,-0.010229024,0.4108027,0.14596558,-0.19142151,9.808182,32.681274,-9.526062,-37.295532,0.124139756,-0.21280964,9.803555,-0.00042437762,-0.003738135,0.00032520294,4.5776367e-05,0.0,-0.00016784668
2019-07-01T19:40:15.432Z,-0.007297404,-0.010236698,0.4108092,0.13639832,-0.21296692,9.7986145,32.33795,-9.832764,-38.3255,0.12423629,-0.21295917,9.80355,0.0006678179,-0.00024443865,0.0002155304,-0.0001373291,-6.1035156e-05,1.5258789e-05
2019-07-01T19:40:15.636Z,-0.0072788238,-0.010281471,0.4108328,0.112457275,-0.21534729,9.805786,34.21631,-9.347534,-37.625122,0.12518096,-0.21299091,9.803538,0.0011666119,0.000733003,-0.0014352798,-0.0001373291,-6.1035156e-05,1.5258789e-05
2019-07-01T19:40:15.856Z,-0.007269889,-0.01026289,0.4108179,0.1268158,-0.22013855,9.800995,31.515503,-10.328674,-37.939453,0.124924265,-0.21267943,9.803548,-0.0012203455,0.00042811036,0.0006322861,4.5776367e-05,-0.00024414062,-4.5776367e-05
2019-07-01T19:40:16.076Z,-0.007290185,-0.01027085,0.41082934,0.13160706,-0.20578003,9.800995,32.733154,-10.10437,-37.7182,0.12490033,-0.21310797,9.803538,-0.0004850924,-0.0010407269,0.00090026855,0.00010681152,-6.1035156e-05,0.0002593994
2019-07-01T19:40:16.249Z,-0.0072826273,-0.010258015,0.4108186,0.1603241,-0.17706299,9.805786,33.010864,-9.283447,-37.712097,0.1247343,-0.21286802,9.803547,-0.0007755384,0.00012542307,-0.002585411,0.00010681152,-0.00018310547,-0.00016784668
2019-07-01T19:40:16.444Z,-0.007171212,-0.010311505,0.4108195,0.13877869,-0.2416687,9.8033905,33.021545,-9.062195,-37.74414,0.12658827,-0.21130705,9.803556,0.0030899942,0.00170739,0.0015077591,-0.00019836426,-0.00018310547,-0.00022888184
2019-07-01T19:40:16.653Z,-0.007265326,-0.010263824,0.41081712,0.08375549,-0.21774292,9.796219,34.12628,-9.498596,-38.027954,0.124977924,-0.21260527,9.803549,-0.004140921,-0.002990663,-0.0013847351,0.00016784668,-0.00018310547,-0.00010681152
2019-07-01T19:40:16.863Z,-0.007287673,-0.01029047,0.41084138,0.16270447,-0.20100403,9.812973,33.346558,-8.969116,-37.661743,0.12526852,-0.2132228,9.803532,-0.00035987794,-0.0014228821,0.00036144257,-1.5258789e-05,-0.00016784668,-0.00024414062
2019-07-01T19:40:17.049Z,-0.0072786324,-0.010319961,0.41085792,0.117248535,-0.2033844,9.8033905,32.167053,-10.140991,-37.852478,0.12586474,-0.21330103,9.803522,0.00047250092,-0.00060255826,0.0008716583,0.00016784668,-0.00024414062,-0.00010681152
2019-07-01T19:40:17.255Z,-0.007182029,-0.010314538,0.4108248,0.112457275,-0.2416687,9.800995,32.75299,-9.510803,-38.653564,0.12655409,-0.2115256,9.803552,0.0004990101,0.0036055297,0.00026988983,-7.6293945e-05,-0.00030517578,-0.00018310547
2019-07-01T19:40:17.467Z,-0.0071991608,-0.010309877,0.41082698,0.15792847,-0.21774292,9.808182,33.906555,-8.9279175,-38.279724,0.12633218,-0.21179466,9.803549,-0.0014203936,-0.00068956614,-0.0015773773,0.00022888184,-0.00016784668,-6.1035156e-05
2019-07-01T19:40:17.659Z,-0.007240616,-0.010346681,0.41086376,0.1268158,-0.22492981,9.808182,33.76465,-10.473633,-37.382507,0.12664747,-0.21283743,9.803522,-6.109476e-05,-0.0020359308,0.00055885315,-0.0001373291,-0.00035095215,-4.5776367e-05
2019-07-01T19:40:17.874Z,-0.007229942,-0.01035722,0.4108674,0.119644165,-0.22253418,9.800995,33.55713,-9.53064,-38.616943,0.12692107,-0.21273202,9.803521,0.0010940582,1.9490719e-05,0.0008468628,-1.5258789e-05,6.1035156e-05,0.0001373291
2019-07-01T19:40:18.078Z,-0.007233196,-0.010316351,0.41084164,0.112457275,-0.23449707,9.8033905,33.424377,-9.036255,-37.756348,0.12617023,-0.21245737,9.803537,-0.0024592876,-0.00027877092,-0.0021543503,0.00016784668,0.0,1.5258789e-05
2019-07-01T19:40:18.274Z,-0.007242452,-0.010336705,0.4108578,0.124420166,-0.20100403,9.805786,32.281494,-9.480286,-37.269592,0.12645571,-0.21278906,9.803526,0.00012667477,-0.0011162907,0.001909256,0.00016784668,-0.00024414062,7.6293945e-05
2019-07-01T19:40:18.470Z,-0.007253182,-0.010320624,0.41085055,0.13877869,-0.2033844,9.815353,32.800293,-8.566284,-37.783813,0.12608343,-0.21285033,9.803529,-0.001187548,0.00062178075,0.0012807846,4.5776367e-05,-6.1035156e-05,7.6293945e-05
2019-07-01T19:40:18.685Z,-0.007272005,-0.010333403,0.41086468,0.13160706,-0.22253418,9.805786,32.659912,-9.886169,-37.973022,0.1261569,-0.2132918,9.803519,-0.00054842234,-0.001309365,0.0006914139,-1.5258789e-05,-0.00024414062,0.0001373291
2019-07-01T19:40:18.885Z,-0.0072817793,-0.010358935,0.41088438,0.122039795,-0.20578003,9.800995,32.711792,-8.71582,-38.038635,0.12652995,-0.21367498,9.803506,-0.0004454106,-0.00070247054,-0.0004892349,4.5776367e-05,-0.00024414062,1.5258789e-05
2019-07-01T19:40:19.093Z,-0.007274958,-0.010307067,0.41084835,0.1268158,-0.21534729,9.8033905,32.93152,-9.289551,-37.561035,0.12566607,-0.21313012,9.803528,-0.0017325431,0.0011476129,-1.04904175e-05,-0.0002593994,-0.00012207031,-0.00010681152
2019-07-01T19:40:19.291Z,-0.007264805,-0.010274276,0.4108238,0.12921143,-0.21774292,9.7986145,32.943726,-8.996582,-37.651062,0.12516741,-0.21268106,9.803544,-0.0017086565,0.0009456724,0.00032138824,4.5776367e-05,-0.00012207031,-0.00010681152
2019-07-01T19:40:19.483Z,-0.007272168,-0.0102808885,0.41083038,0.1268158,-0.21774292,9.793823,32.333374,-9.980774,-37.9776,0.12522475,-0.21286687,9.803539,-0.00010320544,-0.0007751137,4.9591064e-05,0.00010681152,-6.1035156e-05,7.6293945e-05
2019-07-01T19:40:19.690Z,-0.0072560958,-0.01025409,0.4108079,0.117248535,-0.22253418,9.8033905,32.980347,-9.8602295,-38.508606,0.12488043,-0.21236058,9.803556,-0.00094196945,0.00085800886,-0.0010757446,-1.5258789e-05,-6.1035156e-05,-4.5776367e-05
2019-07-01T19:40:19.894Z,-0.0072627203,-0.010275395,0.41082388,0.13639832,-0.20100403,9.8033905,33.306885,-9.919739,-37.475586,0.1252042,-0.21265282,9.803545,0.00016798079,-0.00029835105,8.010864e-05,-7.6293945e-05,0.0,6.1035156e-05
2019-07-01T19:40:20.097Z,-0.0073768483,-0.010235157,0.4108325,0.13639832,-0.22013855,9.808182,33.285522,-10.281372,-38.227844,0.12356302,-0.2143703,9.803528,-0.003452517,-0.0033610463,-0.0004234314,0.00010681152,-6.1035156e-05,-0.00010681152
2019-07-01T19:40:20.305Z,-0.0072679776,-0.010241858,0.41080356,0.105285645,-0.21774292,9.793823,33.558655,-9.455872,-38.752747,0.124567,-0.21247387,9.803557,0.0022360608,0.0031144768,0.0009832382,0.00022888184,6.1035156e-05,-0.00010681152
2019-07-01T19:40:20.498Z,-0.0073021813,-0.01020137,0.41078752,0.124420166,-0.20578003,9.812973,32.356262,-9.6206665,-37.150574,0.12357127,-0.21275707,9.803563,-0.002018392,-0.0009293407,-0.002216339,-0.0001373291,-6.1035156e-05,7.6293945e-05
2019-07-01T19:40:20.717Z,-0.0072886953,-0.010201674,0.4107836,0.122039795,-0.21534729,9.805786,32.765198,-9.446716,-37.358093,0.12368628,-0.21251786,9.803567,-0.00021855533,0.00027909875,0.0012388229,0.00022888184,-6.1035156e-05,1.5258789e-05
2019-07-01T19:40:20.908Z,-0.007337567,-0.010183766,0.41078684,0.124420166,-0.21057129,9.808182,32.62024,-9.016418,-37.79297,0.122971535,-0.21324784,9.80356,-0.0014236197,-0.0016202033,-0.00045681,4.5776367e-05,-0.00012207031,0.0001373291
2019-07-01T19:40:21.125Z,-0.0072510885,-0.010139904,0.41073167,0.13400269,-0.20817566,9.805786,31.773376,-9.870911,-38.31024,0.12289704,-0.2113409,9.803602,-0.00085840374,0.0034113675,-0.0003042221,4.5776367e-05,-6.1035156e-05,7.6293945e-05
2019-07-01T19:40:21.307Z,-0.0072940723,-0.010183876,0.4107736,0.12921143,-0.21057129,9.800995,32.928467,-9.289551,-37.71057,0.123327106,-0.21246928,9.803573,0.0008658543,-0.0026520193,-0.00052165985,-1.5258789e-05,0.0,0.00030517578
2019-07-01T19:40:21.510Z,-0.007254358,-0.010235291,0.4107951,0.117248535,-0.22970581,9.8033905,32.200623,-9.332275,-38.21869,0.124561325,-0.2121763,9.803563,0.0022552907,0.0013594627,0.00013637543,-0.00019836426,-0.00012207031,1.5258789e-05
2019-07-01T19:40:21.731Z,-0.0073346947,-0.010228597,0.4108153,0.13160706,-0.19381714,9.8033905,32.766724,-9.143066,-38.957214,0.12378952,-0.21356149,9.803544,-0.0017567724,-0.0027349442,0.0012111664,4.5776367e-05,0.0,0.0001373291
2019-07-01T19:40:21.922Z,-0.0072723557,-0.010207595,0.4107825,0.119644165,-0.22970581,9.808182,32.647705,-10.179138,-37.956238,0.123924084,-0.21227327,9.80357,2.2396445e-05,0.0028932989,-0.00094890594,-0.0001373291,-0.00030517578,-4.5776367e-05
2019-07-01T19:40:22.126Z,-0.0072626383,-0.010269629,0.4108201,0.110076904,-0.21296692,9.805786,32.717896,-8.721924,-37.283325,0.12510267,-0.21260437,9.803547,0.0009970516,-0.000364393,-0.00029945374,4.5776367e-05,-0.00024414062,7.6293945e-05
2019-07-01T19:40:22.327Z,-0.0073237214,-0.010221802,0.4108075,0.122039795,-0.20817566,9.805786,34.321594,-9.062195,-36.13434,0.12375829,-0.21330948,9.803549,-0.0031504259,-0.0013400465,-0.00019741058,-1.5258789e-05,-6.1035156e-05,1.5258789e-05
2019-07-01T19:40:22.526Z,-0.007279946,-0.010227707,0.41079795,0.112457275,-0.21534729,9.8033905,33.602905,-10.255432,-38.99231,0.12421888,-0.2125731,9.803559,0.0004457757,0.001284048,0.00034713745,4.5776367e-05,-0.00018310547,0.00012207031
2019-07-01T19:40:22.734Z,-0.0072704884,-0.010208499,0.4107825,0.119644165,-0.20817566,9.800995,33.718872,-9.74884,-37.306213,0.12395527,-0.21224715,9.803569,-0.00097141415,0.00024491549,0.0003824234,0.00010681152,-0.00012207031,7.6293945e-05
2019-07-01T19:40:22.936Z,-0.007228814,-0.010242503,0.410792,0.119644165,-0.21296692,9.800995,32.981873,-10.015869,-37.40692,0.12489685,-0.21177727,9.803568,0.00072678924,0.002399519,0.00038433075,-7.6293945e-05,-0.00012207031,0.00018310547
2019-07-01T19:40:23.138Z,-0.00733802,-0.010278827,0.41084918,0.107681274,-0.22970581,9.796219,34.020996,-10.012817,-38.128662,0.12465276,-0.2140302,9.803522,-0.00093666464,-0.004670292,-5.8174133e-05,-7.6293945e-05,-0.00012207031,0.0001373291
2019-07-01T19:40:23.346Z,-0.0071904603,-0.0102866385,0.41080913,0.1483612,-0.18902588,9.808182,32.637024,-10.321045,-38.589478,0.12599099,-0.21144941,9.80356,0.002017498,0.0047294796,0.0017213821,0.00016784668,-0.00012207031,0.0002593994
2019-07-01T19:40:23.539Z,-0.00734489,-0.010313448,0.41087395,0.1268158,-0.18902588,9.7986145,32.90558,-9.799194,-37.963867,0.1252105,-0.21443534,9.803506,-0.0024710596,-0.0059173554,0.0006637573,4.5776367e-05,-0.00024414062,0.00030517578
2019-07-01T19:40:23.758Z,-0.007269781,-0.010295135,0.41083896,0.124420166,-0.22492981,9.808182,32.904053,-9.797668,-38.113403,0.12549669,-0.21294017,9.803535,-0.00012610853,0.0021432042,-0.0009946823,0.00016784668,-0.00018310547,0.00018310547
2019-07-01T19:40:23.954Z,-0.0073165963,-0.010291033,0.4108506,0.119644165,-0.22492981,9.796219,34.57489,-8.44574,-38.059998,0.12504332,-0.21374571,9.803523,-0.00087200105,-0.0013385564,0.001414299,4.5776367e-05,-0.00012207031,0.00019836426
2019-07-01T19:40:24.153Z,-0.0072805756,-0.010280673,0.41083282,0.119644165,-0.21296692,9.7986145,33.276367,-10.424805,-38.48419,0.12515259,-0.2130158,9.803537,0.0002091378,0.0010438114,-1.6212463e-05,-1.5258789e-05,6.1035156e-05,0.00012207031
2019-07-01T19:40:24.358Z,-0.007287871,-0.0102745695,0.41083103,0.124420166,-0.22253418,9.810577,32.92694,-10.955811,-39.031982,0.12498506,-0.2130968,9.803537,-0.001050353,0.0003952235,-0.0011224747,-1.5258789e-05,-0.00012207031,-0.00016784668
2019-07-01T19:40:24.552Z,-0.0073274663,-0.010271619,0.41084123,0.13160706,-0.21774292,9.808182,33.57086,-9.390259,-37.683105,0.124610834,-0.21378236,9.803528,-0.0021087155,-0.0010735542,-0.00026226044,-1.5258789e-05,-0.00024414062,0.00012207031
2019-07-01T19:40:24.761Z,-0.0072776573,-0.01028022,0.41083163,0.117248535,-0.21534729,9.796219,34.173584,-8.476257,-37.672424,0.12516826,-0.2129598,9.803538,0.00043964386,0.0009842962,0.0011053085,-1.5258789e-05,-0.00035095215,0.0001373291
2019-07-01T19:40:24.959Z,-0.0073162555,-0.010297731,0.41085488,0.112457275,-0.21774292,9.808182,33.650208,-9.234619,-38.48419,0.12516479,-0.21379416,9.80352,-0.00025959313,-0.0013187081,-0.0022916794,4.5776367e-05,-0.00012207031,0.0001373291
2019-07-01T19:40:25.164Z,-0.007341236,-0.010221869,0.41081288,0.1531372,-0.17945862,9.815353,33.073425,-9.564209,-38.60321,0.12361707,-0.2136239,9.803544,-0.003256023,0.00065748394,-0.00040531158,-1.5258789e-05,1.5258789e-05,0.00019836426
2019-07-01T19:40:25.371Z,-0.0072694635,-0.010265254,0.41081932,0.13160706,-0.20578003,9.8033905,32.798767,-10.23407,-39.030457,0.124969624,-0.21269105,9.803547,0.0018365011,0.0014190674,0.0014801025,4.5776367e-05,-6.1035156e-05,1.5258789e-05
2019-07-01T19:40:25.567Z,-0.0072368574,-0.010270902,0.41081303,0.114852905,-0.22970581,9.812973,32.876587,-8.784485,-37.228394,0.12533483,-0.21215272,9.803554,-0.00019605458,0.0013606846,0.00067806244,-0.0001373291,-0.0004119873,0.0001373291
2019-07-01T19:40:25.774Z,-0.0071665216,-0.010265058,0.41078767,0.124420166,-0.23449707,9.8033905,33.576965,-9.170532,-37.864685,0.12580305,-0.2108446,9.8035755,5.541742e-05,0.0026878417,-0.00034713745,-1.5258789e-05,-0.00018310547,1.5258789e-05
2019-07-01T19:40:25.978Z,-0.0073705325,-0.010287417,0.41086477,0.1651001,-0.15553284,9.7986145,32.643127,-8.656311,-37.042236,0.124540634,-0.21468283,9.80351,-0.0037117228,-0.007597834,-0.0010194778,0.00010681152,-0.00018310547,1.5258789e-05
2019-07-01T19:40:26.180Z,-0.0072501116,-0.010329156,0.4108552,0.105285645,-0.25602722,9.8033905,33.537292,-10.121155,-37.828064,0.12625964,-0.21286483,9.803527,0.0027109087,0.0037223548,-0.0013170242,-0.0001373291,-0.00018310547,-0.00010681152
2019-07-01T19:40:26.380Z,-0.007213817,-0.010295573,0.41082212,0.110076904,-0.21296692,9.7986145,34.059143,-9.362793,-37.091064,0.12595946,-0.21194077,9.80355,-0.0005862564,0.0016275346,0.0018367767,-7.6293945e-05,0.0,-4.5776367e-05
2019-07-01T19:40:26.578Z,-0.007309545,-0.010256506,0.41082585,0.1268158,-0.2033844,9.805786,32.676697,-9.217834,-39.575195,0.12448868,-0.21333809,9.803539,-0.00365711,-0.0017755777,-0.0008401871,-0.0001373291,-0.00018310547,1.5258789e-05
2019-07-01T19:40:26.782Z,-0.007234394,-0.010290929,0.41082537,0.100494385,-0.21296692,9.800995,32.455444,-9.176636,-37.516785,0.12570985,-0.2122717,9.803546,0.0018158406,0.0017126948,0.00071144104,0.00022888184,-0.000289917,0.0001373291
2019-07-01T19:40:26.989Z,-0.0072800494,-0.010223471,0.4107952,0.13877869,-0.22253418,9.817749,33.711243,-9.741211,-38.36212,0.124142945,-0.21254045,9.803561,-0.00449571,-0.0013777763,-0.0015916824,0.00010681152,-0.00010681152,6.1035156e-05
2019-07-01T19:40:27.191Z,-0.0072186687,-0.010249356,0.41079336,0.102890015,-0.21774292,9.805786,33.97827,-8.988953,-39.05182,0.12510079,-0.21165127,9.803568,0.0012367368,0.0020501465,0.0013341904,-0.0002593994,-0.00016784668,0.00030517578
2019-07-01T19:40:27.393Z,-0.00719387,-0.010250812,0.41078672,0.098098755,-0.22253418,9.8033905,33.255005,-9.042358,-38.656616,0.1253282,-0.21121868,9.803574,0.0005338341,0.0018658489,0.00041866302,4.5776367e-05,-0.00016784668,0.00036621094
2019-07-01T19:40:27.592Z,-0.007308227,-0.010203858,0.410791,0.13877869,-0.20100403,9.808182,33.17871,-9.353638,-36.59973,0.12356621,-0.21288566,9.80356,-0.004877813,-0.003920749,-0.0021104813,4.5776367e-05,-0.00030517578,-4.5776367e-05
2019-07-01T19:40:27.798Z,-0.0072616967,-0.010243761,0.41080287,0.124420166,-0.19142151,9.800995,32.86743,-9.080505,-36.68518,0.12465181,-0.21237682,9.803558,0.0012244284,0.0010773242,-0.00013065338,0.00010681152,-0.00024414062,1.5258789e-05
2019-07-01T19:40:28.002Z,-0.007236834,-0.010277998,0.41081765,0.13160706,-0.18424988,9.8033905,34.588623,-9.82666,-38.641357,0.12546079,-0.2122101,9.803551,0.0011392534,0.0001822859,-0.001042366,-0.0001373291,-6.1035156e-05,7.6293945e-05
2019-07-01T19:40:28.210Z,-0.0072037727,-0.010206795,0.41076097,0.12921143,-0.22253418,9.805786,33.728027,-9.605408,-36.82556,0.12446743,-0.21103767,9.803589,-0.0024248958,0.0021401793,0.0016965866,0.00010681152,-0.00018310547,0.00018310547
2019-07-01T19:40:28.408Z,-0.007159163,-0.010221517,0.41075695,0.117248535,-0.21774292,9.800995,32.398987,-8.596802,-37.472534,0.12509102,-0.21035808,9.803596,0.0012575388,0.0009672642,-0.00046920776,0.00016784668,6.1035156e-05,0.0002593994
2019-07-01T19:40:28.623Z,-0.0072028795,-0.010233083,0.4107779,0.122039795,-0.20817566,9.808182,33.27942,-8.680725,-37.677002,0.12494069,-0.21123578,9.803579,-0.000507839,-0.0014826655,0.0012874603,-0.0001373291,-0.00012207031,0.0001373291
2019-07-01T19:40:28.816Z,-0.007228128,-0.010220615,0.41077745,0.12921143,-0.20817566,9.805786,31.689453,-9.797668,-39.12201,0.12451442,-0.2115867,9.803576,-0.0020085573,-0.00065124035,0.0007009506,4.5776367e-05,-0.00035095215,0.0001373291
2019-07-01T19:40:29.025Z,-0.007244965,-0.010239582,0.41079503,0.1268158,-0.21774292,9.808182,32.235718,-10.197449,-39.224243,0.12471375,-0.21204291,9.803564,-0.0017148554,-0.0007020384,-0.0015439987,-1.5258789e-05,-0.00030517578,1.5258789e-05
2019-07-01T19:40:29.225Z,-0.007143311,-0.010286361,0.41079453,0.13877869,-0.22013855,9.808182,33.502197,-9.104919,-37.695312,0.12636939,-0.2106022,9.803575,0.0030898005,0.0036107004,0.0015306473,-0.0001373291,-0.00010681152,6.1035156e-05
2019-07-01T19:40:29.419Z,-0.007191841,-0.010298913,0.41081756,0.095718384,-0.2536316,9.796219,33.598328,-8.883667,-36.90033,0.12619735,-0.21157417,9.8035555,-0.0008109063,-0.0023471415,-0.00025177002,-7.6293945e-05,-0.00018310547,-4.5776367e-05
2019-07-01T19:40:29.624Z,-0.0072545228,-0.0102136545,0.410781,0.114852905,-0.20817566,9.800995,32.580566,-9.817505,-38.406372,0.12417645,-0.21200302,9.803572,-0.0049890056,-0.0012205988,-0.0017633438,0.00016784668,-6.1035156e-05,0.00019836426
2019-07-01T19:40:29.825Z,-0.0072030867,-0.010230597,0.41077632,0.14596558,-0.19621277,9.805786,32.536316,-9.092712,-37.956238,0.12489494,-0.21121924,9.80358,0.00074046105,0.0018368363,0.0010671616,-1.5258789e-05,-0.00030517578,0.0001373291
2019-07-01T19:40:30.025Z,-0.0072140386,-0.010231267,0.41078013,0.117248535,-0.22732544,9.808182,32.569885,-10.110474,-38.08899,0.124817766,-0.21142095,9.803576,-0.00014512241,-0.00011050701,0.00022506714,-7.6293945e-05,6.1035156e-05,1.5258789e-05
2019-07-01T19:40:30.224Z,-0.0072987904,-0.010197907,0.4107842,0.122039795,-0.19142151,9.7986145,34.199524,-9.713745,-37.69684,0.12353745,-0.2126681,9.803566,-0.0034201145,-0.002694711,0.0012712479,4.5776367e-05,-0.00024414062,-4.5776367e-05
2019-07-01T19:40:30.439Z,-0.0072166407,-0.010235566,0.41078374,0.105285645,-0.21774292,9.800995,32.948303,-8.999634,-37.124634,0.124872826,-0.2115026,9.803574,0.0019440055,0.0028521717,-0.00010204315,4.5776367e-05,-0.00018310547,-4.5776367e-05
2019-07-01T19:40:30.639Z,-0.0071786046,-0.01026311,0.41079012,0.107681274,-0.22732544,9.8033905,32.676697,-9.674072,-37.023926,0.1256703,-0.2110453,9.803574,0.00091199577,0.00072592497,0.00088977814,-0.0002593994,-0.00024414062,-4.5776367e-05
2019-07-01T19:40:30.841Z,-0.0072153434,-0.010242739,0.41078803,0.105285645,-0.23210144,9.789032,33.23822,-9.483337,-38.3667,0.12501052,-0.21153776,9.803571,-0.0022619665,-0.00141491,0.0005941391,0.00016784668,-6.1035156e-05,1.5258789e-05
2019-07-01T19:40:31.046Z,-0.0071776304,-0.010268418,0.41079327,0.093322754,-0.23210144,9.8033905,34.205627,-9.7213745,-36.793518,0.12577231,-0.21107107,9.803572,0.0015238672,0.0012302101,-8.010864e-05,0.00010681152,-0.00022888184,-4.5776367e-05
2019-07-01T19:40:31.268Z,-0.0072452486,-0.010236719,0.41079324,0.119644165,-0.22013855,9.808182,33.880615,-9.510803,-38.397217,0.12466069,-0.21202467,9.803565,-0.0021616146,-0.0021090806,0.00091171265,-1.5258789e-05,0.0001373291,-0.00010681152
2019-07-01T19:40:31.455Z,-0.007295033,-0.010218633,0.41079664,0.112457275,-0.21057129,9.800995,32.92694,-9.286499,-38.087463,0.12393538,-0.21276955,9.803558,-0.0016720891,-0.0011494309,-0.0013113022,-7.6293945e-05,-0.00012207031,0.0001373291
2019-07-01T19:40:31.662Z,-0.0072973506,-0.010215483,0.4107953,0.098098755,-0.20817566,9.789032,32.725525,-10.096741,-38.772583,0.12386069,-0.21278544,9.803559,-0.00062858313,-0.00041401386,-0.0011911392,4.5776367e-05,-0.00012207031,0.0002593994
2019-07-01T19:40:31.849Z,-0.0072714887,-0.010231321,0.41079774,0.098098755,-0.2632141,9.791428,32.914734,-9.577942,-38.146973,0.12435169,-0.21245097,9.80356,0.00030576438,0.0011742115,0.0014410019,-1.5258789e-05,-6.1035156e-05,7.6293945e-05
2019-07-01T19:40:32.052Z,-0.007214183,-0.010165874,0.41073737,0.107681274,-0.22970581,9.810577,33.044434,-10.070801,-39.38446,0.12365738,-0.21089098,9.803602,-0.0018650442,0.0027209818,-0.0004749298,-0.0001373291,-0.00030517578,0.00019836426
2019-07-01T19:40:32.257Z,-0.0073288414,-0.01020563,0.4107985,0.1268158,-0.19621277,9.8033905,32.47223,-10.481262,-38.237,0.12343002,-0.21326952,9.803554,-0.0011662468,-0.00470908,0.00016498566,0.00016784668,-6.1035156e-05,-0.00010681152
2019-07-01T19:40:32.464Z,-0.007183337,-0.010201612,0.4107513,0.093322754,-0.29670715,9.7986145,32.89032,-10.240173,-37.524414,0.12454164,-0.21062921,9.8035965,0.0020412356,0.006046191,-3.6239624e-05,-7.6293945e-05,-0.00012207031,-4.5776367e-05
2019-07-01T19:40:32.662Z,-0.0073748324,-0.010232547,0.41083017,0.117248535,-0.17468262,9.800995,32.806396,-10.317993,-37.68921,0.12353316,-0.21431293,9.80353,-0.0017332062,-0.007511556,-0.001461029,-0.0001373291,-0.00010681152,1.5258789e-05
2019-07-01T19:40:32.867Z,-0.0073621506,-0.010198622,0.4108041,0.14117432,-0.21296692,9.808182,33.04596,-10.148621,-38.720703,0.12303498,-0.21380936,9.803547,-0.001705654,0.0010749698,-0.00034046173,-7.6293945e-05,-0.00022888184,-4.5776367e-05
2019-07-01T19:40:33.104Z,-0.007371824,-0.01020114,0.41080868,0.1268158,-0.19621277,9.808182,32.408142,-10.121155,-38.08441,0.12300097,-0.21400322,9.803543,-0.0007412359,-0.000382483,0.002491951,4.5776367e-05,-0.00024414062,0.00019836426
2019-07-01T19:40:33.270Z,-0.00732348,-0.010227339,0.41081104,0.114852905,-0.22253418,9.7986145,32.754517,-9.590149,-37.91504,0.12385839,-0.21335024,9.803546,0.0010377169,0.0013658851,0.0005455017,0.00010681152,-0.00018310547,0.00019836426
2019-07-01T19:40:33.470Z,-0.0072474726,-0.010225273,0.41078642,0.112457275,-0.22492981,9.800995,32.751465,-9.664917,-37.779236,0.124439724,-0.21197131,9.80357,0.00046035647,0.002131462,-0.0005941391,0.00010681152,-0.00012207031,7.6293945e-05
2019-07-01T19:40:33.680Z,-0.0073195435,-0.010217243,0.41080323,0.12921143,-0.20100403,9.7986145,33.361816,-10.197449,-39.120483,0.12371145,-0.21319747,9.803552,-0.0014508218,-0.0026242286,-8.201599e-05,-7.6293945e-05,-6.1035156e-05,1.5258789e-05
2019-07-01T19:40:33.892Z,-0.0072979294,-0.010229966,0.41080493,0.13160706,-0.22253418,9.808182,32.788086,-8.935547,-37.254333,0.124112695,-0.21291375,9.803553,-0.00016317517,0.0006599277,-0.0016374588,0.00010681152,-0.00030517578,-4.5776367e-05
2019-07-01T19:40:34.078Z,-0.0073176078,-0.010298674,0.41085592,0.107681274,-0.22970581,9.7986145,33.081055,-9.571838,-37.62207,0.12517051,-0.21382609,9.80352,0.0014162213,-0.0020091683,0.00034427643,0.00010681152,-0.00018310547,0.00019836426
2019-07-01T19:40:34.300Z,-0.007247588,-0.010275077,0.41081905,0.107681274,-0.22970581,9.808182,33.070374,-9.561157,-38.978577,0.1253216,-0.21237904,9.803549,-0.00040625036,0.0025132,-0.0010519028,4.5776367e-05,-0.00024414062,7.6293945e-05
2019-07-01T19:40:34.491Z,-0.0073394617,-0.010285026,0.41085368,0.13877869,-0.1986084,9.8033905,32.859802,-9.072876,-37.74109,0.12475093,-0.21410654,9.803519,-0.0024793893,-0.0036412776,0.00058460236,-7.6293945e-05,-0.00016784668,6.1035156e-05
2019-07-01T19:40:34.696Z,-0.007277582,-0.010289557,0.4108377,0.1268158,-0.21296692,9.8033905,33.5907,-8.877563,-37.805176,0.1253344,-0.21303453,9.803535,0.0007699877,0.0022245795,-0.0004119873,0.00010681152,-0.00018310547,0.00048828125
2019-07-01T19:40:34.898Z,-0.0071862703,-0.010324273,0.41083246,0.112457275,-0.21057129,9.7986145,32.82776,-9.654236,-38.38501,0.12669218,-0.21168093,9.803547,0.0020498335,0.002309069,0.00036621094,-1.5258789e-05,-0.00012207031,0.00030517578
2019-07-01T19:40:35.095Z,-0.0071617602,-0.010288273,0.4108014,0.117248535,-0.23210144,9.808182,33.496094,-9.327698,-37.213135,0.12625329,-0.21094841,9.803569,-0.0013363659,0.0015531182,-0.0007095337,0.00016784668,-0.00018310547,0.00030517578
2019-07-01T19:40:35.323Z,-0.0072442614,-0.010291046,0.41082847,0.12921143,-0.20578003,9.810577,33.95996,-9.506226,-38.55133,0.1256317,-0.21244952,9.803544,-0.0023936033,-0.0033997595,6.67572e-06,4.5776367e-05,-0.00036621094,0.00036621094
2019-07-01T19:40:35.504Z,-0.0072582653,-0.010297183,0.4108368,0.13400269,-0.21057129,9.800995,33.63037,-9.898376,-37.48474,0.12562661,-0.21275045,9.803536,-0.0009429902,-0.0007221848,-0.0017528534,-1.5258789e-05,-0.00018310547,0.00024414062
2019-07-01T19:40:35.708Z,-0.0072411723,-0.010288624,0.41082594,0.119644165,-0.21296692,9.808182,32.39441,-10.566711,-37.11853,0.1256139,-0.21237443,9.803546,-0.00045989454,0.00058476627,0.00042915344,0.00016784668,-6.1035156e-05,0.00019836426
2019-07-01T19:40:35.911Z,-0.007190322,-0.010217317,0.41076374,0.114852905,-0.22970581,9.7986145,33.33893,-9.266663,-36.96747,0.12476329,-0.2108823,9.803589,0.000394471,0.0017366111,0.0014133453,4.5776367e-05,-0.00022888184,0.00019836426
2019-07-01T19:40:36.105Z,-0.0071924576,-0.010223539,0.41076845,0.112457275,-0.21296692,9.805786,33.728027,-9.375,-38.21411,0.12485621,-0.21097124,9.803585,-0.0011458993,-0.00080259144,-0.00033855438,0.000289917,-0.00018310547,0.0001373291
2019-07-01T19:40:36.327Z,-0.007222582,-0.010242593,0.41079015,0.12921143,-0.21534729,9.8033905,32.261658,-9.765625,-38.233948,0.12494909,-0.21166632,9.80357,-0.000748232,-0.0013168305,-0.00037384033,-1.5258789e-05,-0.00035095215,0.00030517578
2019-07-01T19:40:36.507Z,-0.0072455,-0.010268511,0.4108141,0.13639832,-0.2033844,9.805786,33.969116,-9.359741,-38.371277,0.12522219,-0.21228814,9.803553,-0.00078992546,-0.00092819333,-0.0004043579,-1.5258789e-05,-0.00024414062,0.00024414062
2019-07-01T19:40:36.714Z,-0.0072245332,-0.010297145,0.4108264,0.100494385,-0.21534729,9.784256,32.70874,-8.636475,-38.853455,0.12590021,-0.21214564,9.803547,0.00070266426,0.00035728514,-0.00059223175,-1.5258789e-05,-0.000289917,0.0001373291
2019-07-01T19:40:36.915Z,-0.0073080454,-0.010247446,0.41081947,0.13400269,-0.22253418,9.805786,32.141113,-8.74939,-38.775635,0.12434028,-0.21323742,9.803543,-0.0039708614,-0.0026120394,0.0012025833,-1.5258789e-05,-0.00022888184,-6.1035156e-05
2019-07-01T19:40:37.115Z,-0.0073078643,-0.010239216,0.41081405,0.102890015,-0.26560974,9.810577,33.181763,-9.127808,-37.460327,0.124195874,-0.21316715,9.803547,-0.0009628087,0.00019492209,0.0008049011,0.00010681152,-0.00018310547,0.0004272461
2019-07-01T19:40:37.336Z,-0.007250506,-0.010252807,0.41080537,0.122039795,-0.21534729,9.7986145,33.602905,-8.888245,-36.297607,0.124903135,-0.21224993,9.803557,0.0004843101,0.0019126385,-0.00041484833,-1.5258789e-05,-0.00024414062,0.0001373291
2019-07-01T19:40:37.533Z,-0.007270033,-0.010270425,0.41082287,0.1268158,-0.20817566,9.805786,33.12378,-8.546448,-37.867737,0.12505665,-0.21274339,9.803545,8.0004334e-05,-0.0021297485,0.000998497,0.00010681152,-0.00012207031,-0.00010681152
2019-07-01T19:40:37.729Z,-0.007282744,-0.010264062,0.4108226,0.1268158,-0.20100403,9.7986145,33.21991,-9.844971,-38.667297,0.12484053,-0.21291935,9.803544,-0.00089313835,-4.798174e-05,-0.00013446808,-1.5258789e-05,-0.00012207031,0.0001373291
2019-07-01T19:40:37.928Z,-0.007234903,-0.010246732,0.4107966,0.124420166,-0.21534729,9.796219,33.22754,-9.700012,-38.487244,0.1249223,-0.21192083,9.803564,-0.000505127,0.0018276274,0.0005531311,0.00016784668,-0.00018310547,0.00036621094
2019-07-01T19:40:38.132Z,-0.007260563,-0.010217373,0.41078526,0.107681274,-0.19381714,9.786652,34.13849,-9.281921,-37.683105,0.12419328,-0.21214156,9.803569,-0.0016765594,0.00012928247,-0.0010604858,-1.5258789e-05,-0.00012207031,0.00030517578
2019-07-01T19:40:38.337Z,-0.007255038,-0.010170172,0.41075268,0.124420166,-0.17945862,9.7986145,32.94983,-8.924866,-37.25891,0.12340151,-0.21165816,9.80359,-0.0013491064,0.0010652393,-0.0013484955,-0.00019836426,1.5258789e-05,0.00030517578
2019-07-01T19:40:38.560Z,-0.00727759,-0.0102442335,0.41080806,0.13400269,-0.21774292,9.805786,32.504272,-9.901428,-37.365723,0.12453097,-0.21266548,9.803554,0.0010994822,-0.0022170544,0.0011796951,0.00010681152,-0.00010681152,0.00019836426
2019-07-01T19:40:38.742Z,-0.007287383,-0.010229206,0.4108012,0.13160706,-0.17468262,9.7986145,33.572388,-9.317017,-37.81891,0.12418495,-0.21271855,9.8035555,-0.0014159456,-2.4855137e-05,-0.0011224747,-7.6293945e-05,-0.00024414062,-0.00016784668
2019-07-01T19:40:38.949Z,-0.007269755,-0.0102527775,0.41081125,0.124420166,-0.22970581,9.808182,33.007812,-9.2803955,-38.090515,0.124746114,-0.21259467,9.803553,0.0011384636,0.00056378543,-0.0004310608,4.5776367e-05,-0.00012207031,0.0002593994
2019-07-01T19:40:39.153Z,-0.0072702854,-0.010268581,0.41082174,0.114852905,-0.20100403,9.7986145,32.87506,-8.630371,-38.25531,0.12502192,-0.21273288,9.803545,-0.00035320222,-0.0007145852,0.0016260147,0.00016784668,-0.00018310547,6.1035156e-05
2019-07-01T19:40:39.355Z,-0.007226411,-0.010259083,0.4108021,0.1268158,-0.18424988,9.805786,33.398438,-9.541321,-38.461304,0.12521026,-0.21186922,9.803561,-0.0003041476,0.0008288771,0.001080513,0.00010681152,-0.00024414062,0.00036621094
2019-07-01T19:40:39.550Z,-0.007229853,-0.010290422,0.41082367,0.13639832,-0.21296692,9.808182,33.955383,-9.65271,-38.430786,0.12573779,-0.2121862,9.803548,0.00036393106,-0.0005417764,-0.00086307526,-1.5258789e-05,-0.00022888184,0.00030517578
2019-07-01T19:40:39.755Z,-0.007193601,-0.010297595,0.41081727,0.117248535,-0.20578003,9.812973,33.898926,-9.375,-36.862183,0.12615967,-0.21159497,9.8035555,-5.917251e-05,0.0014935732,0.00022411346,-0.0001373291,-0.00012207031,0.0002593994
2019-07-01T19:40:39.961Z,-0.0071825893,-0.010232165,0.41077107,0.093322754,-0.22013855,9.808182,32.951355,-8.853149,-37.24518,0.12508936,-0.21086466,9.803585,-0.002581343,0.0015068948,0.0011081696,4.5776367e-05,-0.00024414062,0.0001373291
2019-07-01T19:40:40.159Z,-0.0072593223,-0.010248322,0.41080514,0.1268158,-0.20817566,9.796219,33.05664,-10.003662,-38.31482,0.124751955,-0.2123714,9.803556,-0.0017759129,-0.0032033473,0.0007419586,0.00016784668,-0.00022888184,0.00024414062
2019-07-01T19:40:40.386Z,-0.007210503,-0.010345134,0.41085353,0.13400269,-0.22013855,9.810577,32.356262,-9.69696,-36.865234,0.12686491,-0.21228518,9.803532,0.003062591,-0.00019161403,-0.0014162064,-7.6293945e-05,-0.00022888184,0.00030517578
2019-07-01T19:40:40.575Z,-0.0071637915,-0.010340306,0.41083607,0.13877869,-0.22732544,9.8033905,33.122253,-9.00116,-35.394287,0.12715913,-0.2114087,9.803547,-0.00010214746,0.0020477772,0.00033283234,-0.0001373291,-0.00012207031,-4.5776367e-05
2019-07-01T19:40:40.770Z,-0.0071631568,-0.010320189,0.41082272,0.13639832,-0.20817566,9.8033905,33.38623,-9.988403,-37.41913,0.1268077,-0.21123342,9.803555,-0.0011790246,0.0013741851,-0.0008878708,-0.00019836426,-0.00012207031,0.00019836426
2019-07-01T19:40:40.976Z,-0.007174126,-0.0103204055,0.4108262,0.119644165,-0.19621277,9.805786,32.917786,-9.580994,-37.768555,0.12672235,-0.21143177,9.803552,-0.0006220192,-0.0003325343,0.00021457672,-0.0001373291,-0.00012207031,0.0001373291
2019-07-01T19:40:41.203Z,-0.00721189,-0.010321064,0.41083822,0.124420166,-0.23928833,9.800995,32.606506,-9.385681,-37.48932,0.126427,-0.21211393,9.803541,-0.0010458231,-0.00036421418,0.00031471252,-1.5258789e-05,-0.00030517578,0.00019836426
2019-07-01T19:40:41.388Z,-0.0072385813,-0.010312197,0.41084057,0.122039795,-0.21774292,9.805786,33.462524,-9.902954,-38.38501,0.1260528,-0.21252003,9.803537,-0.0020970851,-0.0016515106,-0.0013875961,0.00016784668,-0.00024414062,0.0001373291
2019-07-01T19:40:41.587Z,-0.0072330157,-0.010355309,0.41086707,0.12921143,-0.21057129,9.808182,32.339478,-9.75647,-38.68866,0.1268622,-0.21277153,9.803521,0.00092208385,-0.0006804466,0.00019550323,4.5776367e-05,-0.00024414062,0.0001373291
2019-07-01T19:40:41.784Z,-0.0072510513,-0.010344363,0.41086543,0.107681274,-0.23210144,9.793823,32.276917,-9.246826,-39.18457,0.12652153,-0.21300556,9.80352,-0.0013697892,-0.0009059608,0.0012388229,4.5776367e-05,0.0,0.0001373291
2019-07-01T19:40:41.996Z,-0.0071964096,-0.010270446,0.41080037,0.13877869,-0.16749573,9.793823,32.759094,-9.291077,-38.911438,0.12565558,-0.21142413,9.803565,-0.002422914,0.0037169755,-0.0004386902,-0.0001373291,-0.00016784668,0.00019836426
2019-07-01T19:40:42.200Z,-0.00719741,-0.010304506,0.41082293,0.1483612,-0.21534729,9.812973,33.306885,-9.617615,-38.99994,0.1262512,-0.21171953,9.803552,0.0010389835,-0.00028836727,0.00018882751,-7.6293945e-05,-4.5776367e-05,0.0001373291
2019-07-01T19:40:42.395Z,-0.0072346074,-0.010303863,0.4108339,0.124420166,-0.21296692,9.796219,32.83844,-9.359741,-38.70392,0.12593739,-0.21238092,9.803541,-0.0005605668,-0.0010511875,0.0009212494,-1.5258789e-05,-6.1035156e-05,-0.00022888184
2019-07-01T19:40:42.600Z,-0.0072360504,-0.010312121,0.41083974,0.124420166,-0.21534729,9.805786,33.08258,-9.495544,-37.834167,0.12607203,-0.21247405,9.803537,-0.00022004545,-0.0007175356,0.00014686584,0.00022888184,-0.00012207031,0.0002593994
2019-07-01T19:40:42.795Z,-0.007239314,-0.010277943,0.4108184,0.13877869,-0.18664551,9.808182,33.02307,-9.065247,-37.365723,0.12543967,-0.2122541,9.803551,-0.0017374456,0.0012110919,-0.00022029877,-0.0001373291,-0.00012207031,7.6293945e-05
2019-07-01T19:40:43.007Z,-0.0072891964,-0.01031701,0.41085923,0.1268158,-0.2033844,9.8033905,33.685303,-8.583069,-37.74872,0.12572654,-0.2134663,9.80352,-0.000106319785,-0.0030772835,0.00065517426,-1.5258789e-05,-0.00012207031,7.6293945e-05
2019-07-01T19:40:43.206Z,-0.007231155,-0.010309765,0.4108367,0.117248535,-0.23210144,9.8033905,32.89795,-9.942627,-38.220215,0.12607007,-0.21236713,9.80354,-0.0004492849,0.0020481348,-3.71933e-05,0.00010681152,-0.00024414062,0.00036621094
2019-07-01T19:40:43.409Z,-0.0072014113,-0.010304542,0.41082418,0.1268158,-0.20578003,9.805786,33.84857,-10.166931,-38.68103,0.12621933,-0.21179155,9.803551,-0.00035504997,0.0014735609,0.00013256073,-1.5258789e-05,-0.00018310547,0.00061035156
2019-07-01T19:40:43.612Z,-0.0072392756,-0.010322388,0.41084746,0.13877869,-0.20817566,9.8033905,33.459473,-9.899902,-38.7619,0.12622778,-0.21261549,9.803533,-0.001562506,-0.0022604018,-0.0010290146,0.00010681152,-0.00030517578,0.0004272461
2019-07-01T19:40:43.809Z,-0.0072654122,-0.010358335,0.41087896,0.119644165,-0.22013855,9.800995,32.392883,-8.743286,-37.350464,0.1266524,-0.21337678,9.803511,0.00040242076,-0.00077171624,0.00091838837,-7.6293945e-05,-0.00035095215,0.0001373291
2019-07-01T19:40:44.016Z,-0.00726502,-0.010333134,0.41086236,0.124420166,-0.21774292,9.8033905,32.82013,-9.414673,-40.904236,0.1262089,-0.21316439,9.80352,-0.0020294487,0.0011787862,0.0011014938,-0.00019836426,-0.00018310547,0.00030517578
2019-07-01T19:40:44.232Z,-0.007271371,-0.010274831,0.41082618,0.117248535,-0.20817566,9.808182,33.084106,-9.420776,-38.04474,0.12512387,-0.21280326,9.803543,-0.0023769587,0.00057059526,-0.00022220612,-7.6293945e-05,-0.00018310547,1.5258789e-05
2019-07-01T19:40:44.425Z,-0.0072515425,-0.010286738,0.41082788,0.12921143,-0.22732544,9.8033905,33.74939,-10.687256,-38.25531,0.12549615,-0.21254492,9.803544,-0.00013501942,0.0003296137,0.0016145706,0.00010681152,-0.00018310547,0.0005493164
2019-07-01T19:40:44.631Z,-0.007217893,-0.010312205,0.41083425,0.13877869,-0.2033844,9.812973,32.595825,-9.526062,-38.198853,0.12622115,-0.21214932,9.803542,-0.00013759732,0.00016903877,-0.000834465,0.00010681152,-0.00035095215,0.00036621094
2019-07-01T19:40:44.825Z,-0.007192944,-0.010333549,0.41084057,0.14117432,-0.1986084,9.8033905,33.38623,-9.837341,-38.14392,0.12680234,-0.21187612,9.803542,0.0004850775,0.00061547756,0.00024032593,-1.5258789e-05,-0.00024414062,0.00019836426
2019-07-01T19:40:45.029Z,-0.007216253,-0.01028923,0.41081873,0.1268158,-0.21057129,9.810577,33.680725,-10.246277,-39.294434,0.12582725,-0.21193278,9.803553,-0.0026177764,-0.00075545907,0.00063610077,0.00010681152,-0.00018310547,0.00030517578
2019-07-01T19:40:45.236Z,-0.0072442605,-0.010308903,0.41084015,0.122039795,-0.20578003,9.7986145,33.428955,-10.713196,-37.794495,0.1259482,-0.21259494,9.803535,-0.0015523881,-0.000559777,0.00059986115,4.5776367e-05,-0.00024414062,0.0004272461
2019-07-01T19:40:45.467Z,-0.007218022,-0.010325753,0.41084313,0.12921143,-0.2033844,9.805786,33.8562,-9.867859,-39.4516,0.12646024,-0.21226202,9.803537,-0.00013516843,0.0005302578,-0.0010309219,-0.00019836426,-0.0005340576,0.00030517578
2019-07-01T19:40:45.639Z,-0.0072676637,-0.010334444,0.41086403,0.102890015,-0.23210144,9.8033905,33.546448,-9.674072,-39.022827,0.12621064,-0.21322247,9.80352,-0.0020419806,-0.0018577427,0.0007543564,0.00016784668,-0.0004119873,0.00036621094
2019-07-01T19:40:45.840Z,-0.007253509,-0.010347012,0.41086793,0.13400269,-0.21057129,9.800995,33.5495,-9.82666,-37.92267,0.12654851,-0.21307121,9.803519,-0.00047165155,-8.793175e-05,-0.00013637543,0.00022888184,-0.00024414062,0.00048828125
2019-07-01T19:40:46.046Z,-0.0072755725,-0.010374134,0.41089243,0.119644165,-0.21774292,9.810577,33.40912,-9.477234,-37.31537,0.1268498,-0.21368758,9.803501,0.00018660724,-0.0016200691,0.00022315979,-0.0001373291,-0.00012207031,0.00061035156
2019-07-01T19:40:46.249Z,-0.0071875546,-0.010370344,0.41086298,0.124420166,-0.2033844,9.7986145,33.424377,-9.034729,-37.831116,0.12749836,-0.21207932,9.803528,-9.983778e-07,0.003489837,0.0019168854,-7.6293945e-05,-0.0004119873,0.00030517578
2019-07-01T19:40:46.454Z,-0.007225806,-0.010342458,0.41085646,0.119644165,-0.21296692,9.808182,33.502197,-8.950806,-38.571167,0.12669303,-0.21253759,9.803527,-0.0025349706,-0.00060246885,-0.00031280518,0.00016784668,-0.00012207031,0.0002593994
2019-07-01T19:40:46.664Z,-0.0071849446,-0.010315906,0.4108266,0.124420166,-0.20578003,9.805786,33.399963,-9.315491,-39.471436,0.12655464,-0.21158901,9.803551,-0.00095550716,0.0010619909,-0.0010051727,4.5776367e-05,-0.00018310547,0.0005493164
2019-07-01T19:40:46.856Z,-0.0072109075,-0.010335875,0.4108476,0.12921143,-0.21296692,9.805786,32.226562,-10.569763,-38.168335,0.1266975,-0.21221699,9.803535,-0.0006252527,-0.0011787415,-3.528595e-05,-7.6293945e-05,-0.00024414062,0.0001373291
2019-07-01T19:40:47.055Z,-0.007285408,-0.010331448,0.4108675,0.117248535,-0.21534729,9.800995,33.23517,-9.631348,-37.79297,0.12601323,-0.21351604,9.803515,-0.0018431395,-0.0022836179,-0.0008125305,-1.5258789e-05,-0.00018310547,0.00024414062
2019-07-01T19:40:47.252Z,-0.007306143,-0.010314084,0.4108625,0.119644165,-0.21534729,9.8033905,32.687378,-11.123657,-37.92267,0.12553687,-0.21374618,9.803517,-0.0016114563,-0.0008469522,9.918213e-05,0.00016784668,-0.00012207031,0.0005493164
2019-07-01T19:40:47.466Z,-0.0073341094,-0.010309136,0.4108678,0.13877869,-0.20817566,9.812973,33.22296,-9.846497,-38.290405,0.12522174,-0.21420702,9.803511,-0.0008288473,-0.0013377368,0.0008573532,4.5776367e-05,-0.00012207031,0.00030517578
2019-07-01T19:40:47.660Z,-0.0073045846,-0.010307019,0.41085738,0.119644165,-0.22732544,9.7986145,33.366394,-10.348511,-38.020325,0.12542431,-0.21366067,9.80352,-0.00028929114,0.0009678155,-0.001502037,-1.5258789e-05,-0.00035095215,0.0004272461
2019-07-01T19:40:47.875Z,-0.0072853356,-0.010303814,0.4108494,0.122039795,-0.21296692,9.796219,34.761047,-9.825134,-37.365723,0.12552406,-0.21328963,9.803528,-0.0013478547,0.0008366406,-0.00035381317,4.5776367e-05,-0.00030517578,0.00048828125
2019-07-01T19:40:48.071Z,-0.007320262,-0.010316652,0.4108685,0.12921143,-0.22970581,9.808182,32.104492,-9.78241,-37.55188,0.12546757,-0.2140201,9.803512,-0.0012787879,-0.0013381839,-0.0019798279,-1.5258789e-05,-0.00024414062,0.00036621094
2019-07-01T19:40:48.266Z,-0.007277122,-0.010293232,0.41083997,0.110076904,-0.20817566,9.793823,33.442688,-8.520508,-38.404846,0.12540327,-0.2130562,9.803534,-0.0014558882,0.0024845153,-0.00035381317,-0.0002593994,-0.00035095215,0.00036621094
2019-07-01T19:40:48.481Z,-0.007285652,-0.010282211,0.41083536,0.117248535,-0.22492981,9.8033905,34.280396,-9.861755,-36.82556,0.12513857,-0.2131193,9.803535,-0.0011956245,0.0008766949,0.0007305145,-0.0001373291,-0.00018310547,0.00048828125
2019-07-01T19:40:48.684Z,-0.0072715427,-0.010319992,0.41085577,0.13400269,-0.20578003,9.8033905,34.057617,-9.057617,-38.99231,0.12592293,-0.21317422,9.803524,0.00066271424,0.00045359135,-0.00046157837,-0.00019836426,-0.00030517578,0.0005493164
2019-07-01T19:40:48.876Z,-0.0072596567,-0.010302214,0.41084048,0.1268158,-0.20817566,9.808182,33.72345,-9.52301,-38.090515,0.12570447,-0.21281637,9.8035345,-0.0017553121,0.0012803823,-0.0004606247,-1.5258789e-05,-0.0004119873,0.0004272461
2019-07-01T19:40:49.083Z,-0.0072273468,-0.010259628,0.41080275,0.1268158,-0.21534729,9.800995,32.588196,-9.518433,-39.17694,0.12521233,-0.21189046,9.803561,-0.0010272712,0.0010855645,5.9127808e-05,0.00010681152,-6.1035156e-05,0.0001373291
2019-07-01T19:40:49.279Z,-0.0072133536,-0.010228453,0.41077808,0.12921143,-0.21296692,9.800995,33.55255,-9.831238,-37.394714,0.124773465,-0.21138576,9.803577,-0.0015537888,0.0008319169,0.00068187714,4.5776367e-05,-0.00024414062,7.6293945e-05
2019-07-01T19:40:49.503Z,-0.0072451467,-0.010283412,0.41082376,0.1268158,-0.22013855,9.805786,34.57184,-8.596802,-37.561035,0.12548919,-0.21240318,9.803546,-0.00012239814,-0.002446264,0.000620842,0.00010681152,-0.00030517578,0.00030517578
2019-07-01T19:40:49.696Z,-0.00720663,-0.010315859,0.41083318,0.124420166,-0.21774292,9.7986145,32.92694,-9.284973,-38.238525,0.1263775,-0.21197726,9.803545,0.00042915344,0.0007041544,-0.00086307526,-1.5258789e-05,-0.0004119873,0.00030517578
2019-07-01T19:40:49.897Z,-0.0072282725,-0.01031954,0.4108422,0.1268158,-0.21534729,9.7986145,32.699585,-10.6033325,-39.25171,0.12626678,-0.21239512,9.803537,-0.0011432022,-0.0010216832,0.00070858,-1.5258789e-05,-0.00030517578,0.00019836426
2019-07-01T19:40:50.101Z,-0.0072752796,-0.010301486,0.4108448,0.13400269,-0.21296692,9.8033905,32.548523,-10.700989,-37.52899,0.12556455,-0.21309043,9.803531,-0.001854822,-0.0012963116,-0.0008068085,0.00010681152,-0.00024414062,0.00018310547
2019-07-01T19:40:50.295Z,-0.0073242118,-0.01031894,0.4108712,0.13877869,-0.1986084,9.8033905,33.75244,-9.172058,-36.210632,0.125476,-0.21410953,9.80351,-0.0015310794,-0.0019511431,-0.0010099411,4.5776367e-05,-0.00024414062,0.00019836426
2019-07-01T19:40:50.502Z,-0.0073316204,-0.010296955,0.41085908,0.1268158,-0.22013855,9.800995,33.921814,-8.7890625,-37.045288,0.12502609,-0.21406318,9.803516,-0.0013300627,-8.198619e-05,0.0007619858,-1.5258789e-05,-0.00018310547,0.0004272461
2019-07-01T19:40:50.706Z,-0.0072399327,-0.010319026,0.41084546,0.110076904,-0.22253418,9.8033905,33.522034,-8.66394,-37.683105,0.12616284,-0.21259987,9.803534,0.0013632178,0.0034745485,3.71933e-05,-7.6293945e-05,-0.00012207031,0.00019836426
2019-07-01T19:40:50.906Z,-0.0072553125,-0.010343017,0.41086584,0.119644165,-0.22013855,9.7986145,32.359314,-9.545898,-37.435913,0.12646303,-0.21307096,9.803519,0.00035269558,-0.001330167,-0.0010957718,4.5776367e-05,-0.00024414062,0.00024414062
2019-07-01T19:40:51.105Z,-0.0072252555,-0.010340395,0.41085494,0.12921143,-0.21296692,9.805786,32.911682,-9.654236,-37.783813,0.12666097,-0.21251096,9.80353,0.00040470064,0.00073987246,-0.00088596344,4.5776367e-05,-6.1035156e-05,7.6293945e-05
2019-07-01T19:40:51.308Z,-0.0073054526,-0.010312249,0.41086107,0.1268158,-0.21057129,9.805786,33.21228,-10.067749,-38.409424,0.12550995,-0.21371883,9.803517,-0.0027518421,-0.002835855,0.0006799698,0.00010681152,-6.1035156e-05,0.00030517578
2019-07-01T19:40:51.516Z,-0.0073115155,-0.010321557,0.41086903,0.119644165,-0.21296692,9.800995,33.38623,-9.837341,-38.142395,0.12562563,-0.21390332,9.803513,-0.00047777593,0.00020132959,-0.001452446,4.5776367e-05,-0.00012207031,1.5258789e-05
2019-07-01T19:40:51.717Z,-0.0072776135,-0.010323089,0.41085964,0.12921143,-0.21534729,9.791428,33.901978,-9.075928,-38.082886,0.12592845,-0.21330823,9.80352,-0.000534147,0.0012808591,-0.00032138824,-7.6293945e-05,-0.00018310547,0.00048828125
2019-07-01T19:40:51.919Z,-0.007299287,-0.010362234,0.4108919,0.122039795,-0.21296692,9.7986145,32.373047,-10.697937,-39.334106,0.12644602,-0.21401559,9.803499,-9.535253e-05,-0.0011162013,0.00074863434,-7.6293945e-05,-0.0004119873,0.0005493164
2019-07-01T19:40:52.124Z,-0.0072603114,-0.010359474,0.41087815,0.122039795,-0.22013855,9.800995,33.546448,-9.823608,-38.29956,0.12671407,-0.21329464,9.803512,0.00010865927,0.0015215129,0.00018596649,-1.5258789e-05,-0.00018310547,0.00030517578
2019-07-01T19:40:52.322Z,-0.0072086356,-0.010346373,0.41085377,0.1268158,-0.22970581,9.8033905,32.17163,-9.989929,-38.198853,0.12690204,-0.2122618,9.803532,-0.00054976344,0.0016746223,-0.0003528595,-1.5258789e-05,-0.00018310547,0.00019836426
2019-07-01T19:40:52.538Z,-0.007269761,-0.010323409,0.41085747,0.110076904,-0.22492981,9.8033905,32.099915,-9.927368,-37.504578,0.125998,-0.21317016,9.803524,-0.0020347983,-0.0014871359,-0.0010356903,4.5776367e-05,-0.00012207031,0.00024414062
2019-07-01T19:40:52.728Z,-0.0072242646,-0.010316698,0.41083914,0.13160706,-0.1986084,9.796219,32.751465,-9.664917,-37.779236,0.12624897,-0.2123001,9.803538,8.8870525e-05,0.0017371029,0.0032997131,-0.0001373291,-0.00018310547,0.00036621094
2019-07-01T19:40:52.932Z,-0.0072359447,-0.0103128385,0.41084018,0.12921143,-0.21774292,9.810577,33.87146,-9.805298,-37.930298,0.1260856,-0.212478,9.803537,-0.0016496927,-0.00048972666,-0.00082683563,0.00016784668,-0.00035095215,0.0004272461
2019-07-01T19:40:53.136Z,-0.0072316136,-0.0102475565,0.41079617,0.114852905,-0.22013855,9.800995,33.569336,-9.313965,-38.1958,0.12496366,-0.2118686,9.803565,-0.0029236525,0.00035087764,8.678436e-05,4.5776367e-05,-0.00030517578,0.00036621094
2019-07-01T19:40:53.337Z,-0.007250802,-0.010284972,0.4108265,0.122039795,-0.21534729,9.800995,32.740784,-9.95636,-37.687683,0.12547088,-0.21251726,9.803545,-0.00079354644,-0.0007006079,-0.002005577,-1.5258789e-05,-0.00024414062,0.0004272461
2019-07-01T19:40:53.546Z,-0.0072684637,-0.010286081,0.41083264,0.122039795,-0.21057129,9.808182,33.551025,-9.602356,-38.783264,0.1253469,-0.21284278,9.803538,-0.0006773621,-0.00013302267,0.0012216568,-0.00019836426,-0.00024414062,0.0002593994
2019-07-01T19:40:53.745Z,-0.0072259144,-0.010288565,0.41082123,0.12921143,-0.19381714,9.8033905,32.965088,-8.6380005,-36.824036,0.1257369,-0.2121005,9.80355,-0.000114157796,0.0015340298,0.0012969971,0.00010681152,-0.00024414062,0.00048828125
2019-07-01T19:40:53.950Z,-0.007235743,-0.010267596,0.41081053,0.122039795,-0.22492981,9.793823,33.268738,-8.976746,-37.358093,0.1252853,-0.21210583,9.8035555,-0.002053395,-0.00062021613,-0.0007314682,4.5776367e-05,-0.00035095215,0.00036621094
2019-07-01T19:40:54.149Z,-0.007211401,-0.010312231,0.4108323,0.122039795,-0.21774292,9.7986145,32.711792,-10.462952,-38.468933,0.12627439,-0.21203321,9.803545,0.0010419339,0.00072421134,-0.0015993118,-1.5258789e-05,-6.1035156e-05,0.0002593994
2019-07-01T19:40:54.349Z,-0.007230119,-0.010304001,0.4108326,0.114852905,-0.22253418,9.810577,33.85315,-10.093689,-38.591003,0.12597634,-0.21230161,9.803543,-0.0008109361,-0.0014040917,-0.00011539459,0.00016784668,-0.00012207031,0.0002593994
2019-07-01T19:40:54.555Z,-0.007252921,-0.010311215,0.41084433,0.117248535,-0.22013855,9.7986145,33.06122,-9.706116,-39.161682,0.1259188,-0.21276902,9.803534,-0.0010114759,-0.00091318786,0.0021657944,-0.0001373291,-0.0004119873,0.00030517578
2019-07-01T19:40:54.758Z,-0.007278954,-0.010365475,0.41088778,0.114852905,-0.22013855,9.810577,32.01294,-10.002136,-37.968445,0.12666883,-0.21367763,9.803504,0.00015994906,-0.00074552,-0.0022058487,-0.0001373291,-0.00035095215,0.00048828125
2019-07-01T19:40:54.957Z,-0.007244501,-0.010346946,0.41086513,0.13877869,-0.21057129,9.805786,32.888794,-8.795166,-35.79712,0.12662059,-0.21290922,9.803521,-0.0012296885,0.0016048998,0.00059986115,-1.5258789e-05,-0.00012207031,0.00030517578
2019-07-01T19:40:55.161Z,-0.0072759497,-0.01035132,0.41087762,0.124420166,-0.20100403,9.805786,33.000183,-9.729004,-36.671448,0.12644237,-0.21350846,9.803511,-0.000810042,-0.0013771504,0.0004005432,-1.5258789e-05,0.0,1.5258789e-05
2019-07-01T19:40:55.362Z,-0.0073142033,-0.010335148,0.41087875,0.13160706,-0.21296692,9.8033905,33.200073,-10.357666,-38.467407,0.12584466,-0.21406221,9.803506,-0.0014216453,-0.0010610074,0.0005941391,-1.5258789e-05,-0.00012207031,1.5258789e-05
2019-07-01T19:40:55.576Z,-0.0073167114,-0.010331098,0.41087687,0.112457275,-0.22013855,9.8033905,32.261658,-9.916687,-37.50763,0.12575248,-0.21407416,9.803507,-0.0010890961,0.00039163232,0.00052928925,-1.5258789e-05,-0.00024414062,0.00018310547
2019-07-01T19:40:55.786Z,-0.007296595,-0.010332238,0.41087145,0.124420166,-0.21534729,9.800995,33.98285,-9.146118,-37.649536,0.12593627,-0.21372294,9.803512,-0.00079892576,0.0007712394,-0.00011920929,4.5776367e-05,-0.00024414062,0.00038146973
2019-07-01T19:40:55.976Z,-0.007304627,-0.010333694,0.41087484,0.1268158,-0.21057129,9.8033905,32.365417,-9.326172,-37.54425,0.12589677,-0.21387877,9.80351,-0.00076402724,-2.6419759e-05,0.00072956085,4.5776367e-05,-0.00024414062,0.0001373291
2019-07-01T19:40:56.170Z,-0.007320759,-0.010353388,0.41089267,0.12921143,-0.21534729,9.805786,32.31201,-10.188293,-39.604187,0.12611462,-0.2143283,9.803496,-1.4647841e-05,-0.0010365248,-0.0009469986,-1.5258789e-05,-0.00012207031,0.0002593994
2019-07-01T19:40:56.389Z,-0.007224044,-0.010396855,0.4108915,0.117248535,-0.22253418,9.8033905,31.660461,-8.860779,-37.950134,0.12767154,-0.21294928,9.803507,0.0017876178,0.0023720115,-0.00031375885,4.5776367e-05,-0.00030517578,0.0002593994
2019-07-01T19:40:56.586Z,-0.0072877454,-0.01037896,0.4108993,0.124420166,-0.20100403,9.796219,33.13446,-8.555603,-36.436462,0.12683633,-0.21394506,9.803496,-0.0023898482,-0.0014361292,-0.0011587143,-0.0001373291,-0.00018310547,0.00012207031
2019-07-01T19:40:56.789Z,-0.007309869,-0.01034347,0.41088286,0.1268158,-0.2033844,9.7986145,31.547546,-9.446716,-38.742065,0.1260274,-0.21405235,9.803504,-0.0018241405,-0.00036926568,-0.00014209747,4.5776367e-05,-0.00018310547,0.0002593994
2019-07-01T19:40:56.998Z,-0.0073199985,-0.010348915,0.4108895,0.12921143,-0.21296692,9.796219,33.161926,-9.411621,-38.424683,0.12604153,-0.21427825,9.803499,-0.00040641427,-0.00038328767,0.0003862381,-1.5258789e-05,-0.00012207031,0.0004272461
2019-07-01T19:40:57.193Z,-0.0072584897,-0.010325913,0.41085565,0.1268158,-0.21774292,9.800995,32.87506,-10.302734,-39.12201,0.12613404,-0.21298856,9.803526,-0.00050233305,0.002162829,0.000582695,0.00010681152,-6.1035156e-05,0.00018310547
2019-07-01T19:40:57.391Z,-0.0072813705,-0.010318119,0.41085756,0.119644165,-0.23210144,9.800995,32.78351,-9.161377,-36.772156,0.12580983,-0.2133351,9.803522,-0.00088758767,-0.00060126185,-0.0012073517,-1.5258789e-05,-0.00018310547,0.00030517578
2019-07-01T19:40:57.599Z,-0.0072800997,-0.010318358,0.41085732,0.122039795,-0.21774292,9.808182,32.84149,-9.512329,-37.82959,0.1258244,-0.21331428,9.803523,-0.0006620735,-0.00061522424,0.0006275177,0.00016784668,-0.00012207031,1.5258789e-05
2019-07-01T19:40:57.802Z,-0.0072579463,-0.010335601,0.41086182,0.13400269,-0.19621277,9.800995,33.813477,-9.301758,-37.825012,0.12631015,-0.21305774,9.803522,0.00028172135,-0.00014643371,0.0007419586,0.00010681152,-0.00012207031,1.5258789e-05
2019-07-01T19:40:58.003Z,-0.0072805625,-0.010322674,0.41086027,0.12921143,-0.22013855,9.805786,33.013916,-9.286499,-37.260437,0.12589714,-0.21335772,9.80352,-0.0014834255,-0.0015056133,0.0017633438,0.00022888184,-0.00024414062,0.00019836426
2019-07-01T19:40:58.204Z,-0.0073006656,-0.010312655,0.41085988,0.112457275,-0.21057129,9.800995,33.088684,-9.579468,-36.491394,0.12555608,-0.21363635,9.803518,-0.0013746768,-0.0009769648,0.0005350113,0.00016784668,-0.00012207031,0.0002593994
2019-07-01T19:40:58.410Z,-0.0073320894,-0.010346209,0.41089144,0.13400269,-0.23449707,9.808182,33.30536,-9.767151,-38.502502,0.12589523,-0.21447286,9.803496,0.00044330955,-0.00088247657,-0.0009088516,-1.5258789e-05,-0.00018310547,0.0001373291
2019-07-01T19:40:58.611Z,-0.007279831,-0.010335287,0.41086832,0.13160706,-0.19142151,9.800995,34.86786,-9.083557,-37.97455,0.12612663,-0.21344736,9.803515,-2.1919608e-05,0.0021486133,-0.0015592575,-1.5258789e-05,-0.00012207031,1.5258789e-05
2019-07-01T19:40:58.815Z,-0.0072773835,-0.010333299,0.41086626,0.13639832,-0.21296692,9.810577,31.433105,-10.179138,-39.038086,0.1261113,-0.21338731,9.803517,-0.00072413683,0.00065490603,8.678436e-05,-7.6293945e-05,-6.1035156e-05,0.0001373291
2019-07-01T19:40:59.014Z,-0.007298766,-0.010319001,0.41086346,0.117248535,-0.21774292,9.8033905,33.158875,-9.486389,-38.36212,0.12568401,-0.21365403,9.803517,-0.0007763654,-0.00025758147,0.0010156631,4.5776367e-05,-6.1035156e-05,7.6293945e-05
2019-07-01T19:40:59.220Z,-0.007302183,-0.010355439,0.41088834,0.13400269,-0.21296692,9.800995,32.82318,-9.875488,-37.9776,0.12630203,-0.21401213,9.803501,0.0010049343,-0.0006381422,-0.00060367584,-0.0002593994,-6.1035156e-05,0.00019836426
2019-07-01T19:40:59.423Z,-0.007299787,-0.010376991,0.4109017,0.13639832,-0.21296692,9.8033905,32.481384,-10.183716,-38.780212,0.12670349,-0.21414478,9.803493,0.00059367716,-6.109476e-07,0.0015134811,-1.5258789e-05,-0.00018310547,0.00019836426
2019-07-01T19:40:59.625Z,-0.007309764,-0.010370154,0.4109003,0.12921143,-0.21534729,9.8033905,32.714844,-10.238647,-39.328003,0.12650119,-0.2142679,9.8034935,-0.001115635,-0.00014026463,-0.0016937256,-1.5258789e-05,-0.00018310547,0.0002593994
2019-07-01T19:40:59.821Z,-0.0072973375,-0.010347299,0.41088152,0.122039795,-0.22492981,9.800995,33.172607,-9.422302,-36.991882,0.12619719,-0.21385898,9.803506,-0.0010565072,0.0008863658,0.0001449585,0.00016784668,0.0,7.6293945e-05
2019-07-01T19:41:00.029Z,-0.0072715348,-0.010333848,0.41086483,0.13639832,-0.20100403,9.800995,32.322693,-10.125732,-38.459778,0.1261686,-0.21328697,9.803518,-0.00077299774,0.0005402863,-0.0016546249,-7.6293945e-05,-0.00024414062,7.6293945e-05
2019-07-01T19:41:00.232Z,-0.0072842855,-0.010296759,0.41084448,0.114852905,-0.22732544,9.8033905,34.13391,-9.277344,-38.21106,0.12540755,-0.21321334,9.803531,-0.0028764457,0.0004594475,-0.0006170273,0.00022888184,-0.00030517578,7.6293945e-05
2019-07-01T19:41:00.434Z,-0.0072636954,-0.010268874,0.41081992,0.124420166,-0.22970581,9.810577,32.60956,-9.461975,-36.827087,0.12508067,-0.21261716,9.803547,-0.0013555735,0.000329867,-0.00057697296,0.00010681152,-0.00024414062,0.00019836426
2019-07-01T19:41:00.638Z,-0.0071865343,-0.0102526955,0.4107857,0.1268158,-0.2033844,9.805786,33.369446,-8.457947,-37.557983,0.12542123,-0.21110258,9.8035755,-1.2740493e-05,0.0028814375,-0.0006980896,-0.0001373291,-0.00018310547,0.0002593994
2019-07-01T19:41:00.834Z,-0.007241937,-0.01027716,0.4108187,0.114852905,-0.21774292,9.8033905,31.829834,-10.450745,-38.127136,0.12540449,-0.21229476,9.803551,-0.000478521,-0.0016478747,0.0014543533,-7.6293945e-05,-0.00018310547,0.0001373291
2019-07-01T19:41:01.042Z,-0.0072183306,-0.010261247,0.41080105,0.124420166,-0.20817566,9.793823,31.982422,-10.658264,-38.175964,0.12531431,-0.21174206,9.803563,-0.0006365031,0.0009190589,0.00065517426,0.00010681152,0.0,1.5258789e-05
2019-07-01T19:41:01.239Z,-0.007216872,-0.010262175,0.4108012,0.1268158,-0.21774292,9.7986145,32.725525,-10.173035,-38.25836,0.12534264,-0.2117235,9.803564,-0.00041121244,-0.00056505203,-0.0014886856,0.00016784668,-0.00012207031,0.0002593994
2019-07-01T19:41:01.449Z,-0.0072241207,-0.010270571,0.41080892,0.119644165,-0.21534729,9.796219,32.939148,-8.914185,-38.76648,0.12543252,-0.21192177,9.803557,-3.5077333e-05,-0.000827983,0.001080513,0.00016784668,0.0,0.0001373291
2019-07-01T19:41:01.650Z,-0.0072214394,-0.010245973,0.410792,0.13160706,-0.21057129,9.7986145,33.88977,-9.44519,-37.55493,0.12501831,-0.21167338,9.803569,-0.0010495484,0.00011944771,-0.00087833405,4.5776367e-05,-0.00018310547,0.00030517578
2019-07-01T19:41:01.850Z,-0.0071809823,-0.01024786,0.41078085,0.12921143,-0.20100403,9.800995,33.09326,-9.27887,-37.565613,0.12538064,-0.2109637,9.803579,3.144145e-05,0.0005850643,-0.0013818741,0.00022888184,-0.00018310547,0.00036621094
2019-07-01T19:41:02.055Z,-0.0072363783,-0.0102286665,0.41078526,0.122039795,-0.21774292,9.7986145,33.01544,-9.211731,-37.47101,0.12459006,-0.21180011,9.803571,-0.0027613863,0.0004555136,-0.00092315674,-1.5258789e-05,-0.00012207031,0.0002593994
2019-07-01T19:41:02.263Z,-0.0072766216,-0.010203492,0.4107811,0.117248535,-0.21057129,9.793823,32.83844,-9.509277,-37.9776,0.12381666,-0.21231629,9.80357,-0.002459295,-0.0011832118,-0.0002975464,-1.5258789e-05,-0.00030517578,0.0001373291
2019-07-01T19:41:02.461Z,-0.007262878,-0.010203768,0.41077706,0.1268158,-0.20578003,9.8033905,32.208252,-9.339905,-37.164307,0.12393328,-0.21207224,9.803574,-0.0009223074,0.000984922,0.0015602112,-0.0001373291,-0.00024414062,0.0002593994
2019-07-01T19:41:02.717Z,-0.007288098,-0.010255654,0.41081876,0.124420166,-0.21774292,9.808182,33.665466,-9.248352,-36.524963,0.124647975,-0.21294682,9.803546,0.00075084716,-0.0012399554,0.0012102127,-7.6293945e-05,-0.00012207031,7.6293945e-05
2019-07-01T19:41:02.864Z,-0.00723315,-0.010311533,0.41083848,0.13160706,-0.21774292,9.7986145,32.36389,-9.326172,-37.695312,0.12608519,-0.21241729,9.803539,0.0021781921,0.00063347816,0.0006542206,4.5776367e-05,-0.00035095215,6.1035156e-05
2019-07-01T19:41:03.075Z,-0.007261136,-0.010356071,0.41087618,0.13160706,-0.21534729,9.810577,33.46405,-8.233643,-37.442017,0.12664706,-0.2132817,9.803514,0.0006764978,-0.0020983815,-0.0010099411,4.5776367e-05,-6.1035156e-05,0.0002593994
2019-07-01T19:41:03.277Z,-0.0072661517,-0.010316684,0.41085196,0.12921143,-0.2033844,9.8033905,33.250427,-9.112549,-38.894653,0.12590814,-0.21305066,9.803527,-0.0016970485,0.0007673949,-2.9563904e-05,-1.5258789e-05,-6.1035156e-05,0.00030517578
2019-07-01T19:41:03.478Z,-0.0072861994,-0.01029391,0.4108432,0.13160706,-0.21057129,9.796219,32.052612,-9.202576,-37.504578,0.12534148,-0.21322441,9.803531,-0.0011262447,-0.0005004108,-0.00066185,4.5776367e-05,0.0,7.6293945e-05
2019-07-01T19:41:03.682Z,-0.0073366715,-0.010312852,0.41087103,0.124420166,-0.22013855,9.8033905,32.678223,-9.217834,-39.422607,0.12526678,-0.2142832,9.803508,-0.0008262098,-0.0015872568,0.00053215027,-1.5258789e-05,-0.00012207031,0.00030517578
2019-07-01T19:41:03.874Z,-0.0072914823,-0.010292389,0.41084382,0.122039795,-0.21296692,9.7986145,33.576965,-9.016418,-38.890076,0.12527156,-0.2133067,9.80353,-0.0013130903,0.0012817979,0.0014648438,-0.0001373291,-0.000289917,0.00019836426
2019-07-01T19:41:04.086Z,-0.0073057143,-0.01030866,0.4108588,0.1268158,-0.21534729,9.7986145,33.988953,-9.150696,-36.97052,0.12544422,-0.21369429,9.803519,-0.0002835691,-0.00072067976,0.0005016327,0.00022888184,-0.00024414062,6.1035156e-05
2019-07-01T19:41:04.282Z,-0.0072870417,-0.010293917,0.41084346,0.124420166,-0.20817566,9.8033905,33.296204,-10.293579,-36.645508,0.12533475,-0.21323957,9.803531,-0.0011363775,0.0009777546,0.00018596649,-7.6293945e-05,-0.00016784668,0.0002593994
2019-07-01T19:41:04.489Z,-0.007295283,-0.0102488985,0.41081652,0.1268158,-0.22253418,9.8033905,33.75244,-8.865356,-37.95929,0.12446979,-0.21302052,9.803545,-0.0019464418,0.0005238652,-0.0005159378,-7.6293945e-05,-0.00012207031,0.00018310547
2019-07-01T19:41:04.693Z,-0.0072772866,-0.01028949,0.41083756,0.13400269,-0.20817566,9.812973,33.57544,-9.16748,-38.16681,0.12533559,-0.21302867,9.8035345,0.001262024,4.3570995e-05,-2.5749207e-05,-7.6293945e-05,-6.1035156e-05,0.00018310547
2019-07-01T19:41:04.888Z,-0.007239119,-0.010326382,0.41085002,0.122039795,-0.21534729,9.805786,33.3786,-9.82666,-39.349365,0.12629986,-0.21264525,9.803532,0.001002863,0.00014320016,-0.00049591064,0.00016784668,-0.00030517578,0.00019836426
2019-07-01T19:41:05.090Z,-0.007244419,-0.010302131,0.41083577,0.1268158,-0.21296692,9.7986145,32.58362,-9.895325,-37.59308,0.12582691,-0.21254264,9.803539,-0.0018656403,0.0005131364,-8.583069e-06,-7.6293945e-05,-0.00024414062,0.00019836426
2019-07-01T19:41:05.296Z,-0.0072712,-0.010265659,0.41082013,0.102890015,-0.22970581,9.808182,32.167053,-7.0266724,-35.10437,0.12496267,-0.21272546,9.803546,-0.0024296269,-0.0002759099,-0.00094890594,0.00010681152,-0.00012207031,0.00019836426
2019-07-01T19:41:05.498Z,-0.00721537,-0.010274662,0.41080892,0.13400269,-0.21774292,9.800995,32.554626,-8.883667,-36.70807,0.12557617,-0.21179827,9.803558,0.00054095685,0.002157107,0.00032901764,-1.5258789e-05,-0.00024414062,0.0002593994
2019-07-01T19:41:05.702Z,-0.0072172876,-0.010254804,0.41079652,0.13400269,-0.1603241,9.800995,33.169556,-9.268188,-38.24463,0.1252086,-0.2116709,9.803567,-0.00051802397,0.00033804774,-0.0012159348,-7.6293945e-05,-0.00012207031,0.0001373291
2019-07-01T19:41:05.957Z,-0.007299332,-0.010249139,0.41081792,0.13877869,-0.23210144,9.800995,32.113647,-9.637451,-37.295532,0.124441154,-0.21309508,9.803546,-0.002150543,-0.0034951866,0.00061130524,4.5776367e-05,-4.5776367e-05,0.00019836426
2019-07-01T19:41:06.157Z,-0.00731104,-0.010226914,0.41080695,0.102890015,-0.2368927,9.7986145,32.79419,-7.2738647,-35.406494,0.123951994,-0.21312384,9.80355,-0.0021127388,0.0003261119,-0.0034103394,4.5776367e-05,-0.00018310547,0.00019836426
2019-07-01T19:41:06.367Z,-0.007258632,-0.010184377,0.41076308,0.105285645,-0.22732544,9.793823,32.676697,-9.521484,-37.97455,0.1236241,-0.21183826,9.803583,-0.0010671541,0.002396822,-3.528595e-05,-7.6293945e-05,-0.00022888184,0.00019836426
2019-07-01T19:41:06.585Z,-0.0072397594,-0.01021835,0.41077954,0.13400269,-0.20817566,9.808182,32.200623,-11.077881,-38.87329,0.12437972,-0.2117767,9.803575,0.0010462552,0.00065661967,-1.8119812e-05,-1.5258789e-05,-0.00012207031,7.6293945e-05
2019-07-01T19:41:06.783Z,-0.007273954,-0.010234693,0.4108007,0.122039795,-0.21057129,9.8033905,33.348083,-8.589172,-39.624023,0.12439143,-0.21252261,9.803558,-0.0004100278,-0.0016930252,0.0015859604,-1.5258789e-05,-0.00012207031,7.6293945e-05
2019-07-01T19:41:06.977Z,-0.007309619,-0.010238252,0.41081393,0.119644165,-0.20817566,9.7986145,32.666016,-9.510803,-39.331055,0.12416452,-0.21319072,9.803546,-0.0013730973,-0.00149858,-5.9127808e-05,0.00016784668,-0.00012207031,0.00030517578
2019-07-01T19:41:07.180Z,-0.0072812685,-0.010257134,0.41081762,0.117248535,-0.22013855,9.7986145,32.47986,-10.409546,-37.843323,0.124729715,-0.21283647,9.803547,0.00092770904,0.00030353665,0.00043678284,-7.6293945e-05,-0.00018310547,7.6293945e-05
2019-07-01T19:41:07.387Z,-0.0072755995,-0.0102802,0.41083097,0.13160706,-0.2033844,9.808182,33.824158,-9.237671,-36.680603,0.12518466,-0.21292277,9.803539,0.00022995472,0.00061663985,-0.0001783371,-1.5258789e-05,-6.1035156e-05,0.0005493164
2019-07-01T19:41:07.592Z,-0.007306283,-0.010256964,0.41082516,0.124420166,-0.20100403,9.7986145,33.869934,-9.880066,-37.716675,0.124523304,-0.21328335,9.803539,-0.001987882,-0.0011566281,0.0016307831,-1.5258789e-05,-0.00022888184,0.0001373291
2019-07-01T19:41:07.794Z,-0.00726985,-0.010233604,0.41079873,0.1268158,-0.21057129,9.8033905,34.274292,-9.777832,-38.09204,0.12440547,-0.21244018,9.803559,-0.00066324323,0.0020460635,-0.002571106,-1.5258789e-05,-0.00018310547,0.00036621094
2019-07-01T19:41:07.996Z,-0.00732331,-0.010298945,0.41085786,0.13400269,-0.21057129,9.800995,33.876038,-9.658813,-38.050842,0.12512895,-0.21393047,9.803518,0.0007765144,-0.0026833266,0.0005187988,-0.0001373291,-0.00010681152,0.0001373291
2019-07-01T19:41:08.196Z,-0.0072980174,-0.010251351,0.41081896,0.114852905,-0.23449707,9.805786,33.25348,-9.268188,-37.64496,0.12449103,-0.21308951,9.803544,-0.002417475,0.0019874424,0.0003528595,4.5776367e-05,-0.00018310547,0.00048828125
2019-07-01T19:41:08.397Z,-0.0072951172,-0.010275814,0.41083407,0.13639832,-0.20817566,9.808182,32.704163,-10.606384,-38.648987,0.1249482,-0.21323681,9.803535,0.0004614815,-0.00025127828,0.00087833405,-0.0002593994,-0.00030517578,0.0001373291
2019-07-01T19:41:08.595Z,-0.0073004896,-0.010334962,0.41087443,0.122039795,-0.22492981,9.7986145,33.57849,-9.170532,-37.789917,0.12595288,-0.21381496,9.803511,0.0011315644,8.927286e-05,0.0005979538,-1.5258789e-05,-0.00018310547,0.0004272461
2019-07-01T19:41:08.809Z,-0.007289606,-0.010367727,0.41089252,0.1268158,-0.21057129,9.793823,32.887268,-10.159302,-38.414,0.12662211,-0.21388687,9.8035,0.00021360815,-0.0005480349,0.0007162094,-0.0001373291,-0.00030517578,0.0005493164
2019-07-01T19:41:09.004Z,-0.0072549265,-0.01033599,0.41086113,0.12921143,-0.20578003,9.800995,33.189392,-10.5026245,-38.798523,0.12634161,-0.21300678,9.803522,-0.0004386902,0.00094524026,-0.0008993149,0.00016784668,-0.00030517578,0.00032043457
2019-07-01T19:41:09.207Z,-0.007282573,-0.010308685,0.41085175,0.124420166,-0.21296692,9.800995,33.14514,-9.8526,-38.134766,0.12563284,-0.21327978,9.803526,-0.0016487986,-0.0004669279,-0.0005979538,-1.5258789e-05,-6.1035156e-05,0.00019836426
2019-07-01T19:41:09.410Z,-0.00728857,-0.010298586,0.41084698,0.122039795,-0.21534729,9.810577,32.91626,-9.5047,-38.130188,0.12540507,-0.21330498,9.803528,-0.0011713058,-0.00020724535,-0.00087451935,4.5776367e-05,-0.00018310547,0.00030517578
2019-07-01T19:41:09.618Z,-0.007306763,-0.010315054,0.4108633,0.124420166,-0.20578003,9.805786,33.055115,-10.157776,-37.438965,0.125549,-0.21376516,9.803515,-0.00014175475,-0.0006799698,0.0026044846,-0.0001373291,0.0,-0.00012207031
2019-07-01T19:41:09.818Z,-0.0072662467,-0.010297712,0.41083956,0.12921143,-0.20817566,9.808182,33.425903,-9.039307,-37.605286,0.1255711,-0.2128978,9.8035345,-0.00040873885,0.0010938793,0.00014686584,4.5776367e-05,-0.00024414062,7.6293945e-05
2019-07-01T19:41:10.008Z,-0.007268103,-0.0102905035,0.41083542,0.1268158,-0.20100403,9.800995,33.047485,-10.224915,-38.131714,0.12542824,-0.21287236,9.803537,-0.0007394105,0.00035208464,9.250641e-05,0.00016784668,-6.1035156e-05,0.00019836426
2019-07-01T19:41:10.212Z,-0.0072209733,-0.010294377,0.41082352,0.119644165,-0.21296692,9.8033905,34.09729,-10.15625,-38.01117,0.12588009,-0.2120593,9.80355,-0.00023524463,0.0012114644,0.00086688995,-1.5258789e-05,-0.00024414062,0.00012207031
2019-07-01T19:41:10.423Z,-0.007238894,-0.010287231,0.41082433,0.117248535,-0.21296692,9.800995,32.504272,-9.901428,-37.365723,0.12560771,-0.21232224,9.803547,-0.0021130592,-0.0016254336,-0.00021648407,0.00022888184,-0.00047302246,0.00036621094
2019-07-01T19:41:10.629Z,-0.007231239,-0.010274955,0.41081396,0.124420166,-0.21534729,9.810577,33.23517,-9.55658,-38.380432,0.12545235,-0.21208505,9.803554,-0.0010146946,4.9859285e-05,0.0004863739,0.00010681152,-0.00018310547,6.1035156e-05
2019-07-01T19:41:10.830Z,-0.0072553903,-0.010320112,0.4108509,0.13400269,-0.21057129,9.800995,32.530212,-10.832214,-39.292908,0.1260564,-0.21288572,9.803528,0.0007735491,-0.0015394241,0.0004892349,4.5776367e-05,-0.00018310547,0.0002593994
2019-07-01T19:41:11.093Z,-0.0072527356,-0.010301278,0.41083777,0.122039795,-0.20817566,9.805786,33.06122,-10.00824,-37.786865,0.12574415,-0.2126847,9.803536,-0.0012914687,0.00040575862,-0.0004644394,-6.1035156e-05,-6.1035156e-05,-7.6293945e-05
2019-07-01T19:41:11.236Z,-0.0072711613,-0.0102718705,0.41082418,0.124420166,-0.21057129,9.800995,33.05359,-9.849548,-39.416504,0.12507309,-0.21277536,9.803543,-0.0011128634,-0.0004426986,0.00064373016,0.00018310547,-6.1035156e-05,-0.00019836426
2019-07-01T19:41:11.458Z,-0.007296232,-0.010253889,0.41082007,0.124420166,-0.20817566,9.805786,33.17108,-10.636902,-40.411377,0.12455054,-0.2130782,9.803544,-0.00059100986,-0.00038291514,0.0001039505,-0.00012207031,0.00012207031,-0.0001373291
2019-07-01T19:41:11.644Z,-0.007324385,-0.010247264,0.41082436,0.13400269,-0.21774292,9.805786,33.37097,-9.976196,-39.22882,0.124204196,-0.21352875,9.803538,-0.0007131845,-0.00065740943,-0.00072193146,0.0,6.1035156e-05,-0.00032043457
2019-07-01T19:41:11.848Z,-0.0073112217,-0.010240874,0.41081616,0.1268158,-0.22492981,9.8033905,32.16858,-9.985352,-38.726807,0.124197975,-0.21324082,9.803545,0.00022913516,0.0014674217,0.0015993118,-0.00018310547,6.1035156e-05,-7.6293945e-05
2019-07-01T19:41:12.048Z,-0.0073197824,-0.01024017,0.4108183,0.117248535,-0.22013855,9.810577,32.80487,-10.240173,-38.20038,0.1241159,-0.2133885,9.803543,7.849932e-05,-0.001018092,0.00058174133,6.1035156e-05,6.1035156e-05,3.0517578e-05
2019-07-01T19:41:12.250Z,-0.0073207538,-0.010227887,0.41081056,0.124420166,-0.21057129,9.808182,33.1131,-8.91571,-37.03766,0.123890266,-0.21330585,9.803547,-0.0006696135,-0.0001180321,0.0019741058,0.0,6.1035156e-05,-7.6293945e-05
2019-07-01T19:41:12.456Z,-0.007300927,-0.010197613,0.4107847,0.1268158,-0.21057129,9.810577,33.65631,-10.983276,-38.386536,0.12351488,-0.212704,9.803566,-0.00076729804,0.0009586662,4.2915344e-05,0.00012207031,-0.00012207031,-0.0001373291
2019-07-01T19:41:12.657Z,-0.007294883,-0.010181109,0.41077203,0.119644165,-0.21057129,9.8033905,32.128906,-9.423828,-36.572266,0.12327146,-0.21246126,9.803573,-4.991144e-05,0.00047017634,-0.00013637543,0.0,6.1035156e-05,-0.00032043457
2019-07-01T19:41:12.858Z,-0.0072644018,-0.010198066,0.4107738,0.1268158,-0.21057129,9.800995,33.54492,-9.823608,-38.449097,0.12381983,-0.21205312,9.8035755,0.0013208538,0.0010292083,0.0005502701,6.1035156e-05,0.00012207031,-0.00021362305
2019-07-01T19:41:13.058Z,-0.0072645815,-0.0101968,0.41077304,0.1268158,-0.20817566,9.808182,33.2901,-10.134888,-38.275146,0.123795934,-0.21204603,9.8035755,-0.00032396615,-0.00020004809,-0.0015459061,0.0,6.1035156e-05,-0.00032043457
2019-07-01T19:41:13.259Z,-0.0072451658,-0.010169162,0.41074902,0.112457275,-0.20578003,9.805786,33.346558,-8.969116,-37.661743,0.12346385,-0.21147302,9.803593,1.1831522e-05,0.0016162395,-0.00055217743,-0.00012207031,0.0,-7.6293945e-05
2019-07-01T19:41:13.458Z,-0.0072600557,-0.010167606,0.41075253,0.122039795,-0.20817566,9.800995,32.214355,-8.964539,-38.36975,0.12331522,-0.21172719,9.803589,-0.0005574897,-0.0009969175,0.0001077652,0.0,0.00012207031,-0.00050354004
2019-07-01T19:41:13.664Z,-0.0072576622,-0.010134338,0.41073003,0.1268158,-0.20578003,9.810577,32.97882,-9.8602295,-38.583374,0.12274495,-0.21141338,9.803602,-0.0007077679,-0.00034357607,0.00054073334,0.00024414062,-0.00012207031,-0.00044250488
2019-07-01T19:41:13.865Z,-0.0072672237,-0.010156499,0.41074747,0.124420166,-0.23210144,9.8033905,32.907104,-9.7229,-38.327026,0.123060055,-0.21176518,9.803591,0.0004080534,-0.00047421455,0.00052547455,0.00012207031,6.1035156e-05,-0.0001373291
2019-07-01T19:41:14.073Z,-0.0072442596,-0.010167525,0.41074765,0.13160706,-0.2033844,9.800995,33.5495,-9.979248,-37.121582,0.12344217,-0.21144342,9.803593,0.0012169331,0.00016388297,-0.00014305115,-6.1035156e-05,6.1035156e-05,9.1552734e-05
2019-07-01T19:41:14.271Z,-0.0072211656,-0.010202849,0.4107637,0.1268158,-0.20817566,9.808182,32.57904,-10.119629,-36.95984,0.1242561,-0.21131724,9.803586,0.0018437952,0.0002707839,-0.001042366,0.00012207031,6.1035156e-05,-0.0002593994
2019-07-01T19:41:14.486Z,-0.007266344,-0.010217857,0.41078734,0.122039795,-0.21296692,9.8033905,32.78351,-9.159851,-36.772156,0.12415485,-0.2122491,9.803567,-0.00021229684,-0.0014271289,0.0008955002,-0.00018310547,6.1035156e-05,-0.00019836426
2019-07-01T19:41:14.685Z,-0.007233856,-0.010231003,0.410786,0.124420166,-0.22013855,9.7986145,32.321167,-10.350037,-37.524414,0.12465199,-0.21177395,9.803571,0.0012164041,0.0004878044,-0.0005159378,6.1035156e-05,6.1035156e-05,-0.0001373291
2019-07-01T19:41:14.883Z,-0.0072190417,-0.010243264,0.4107895,0.12921143,-0.21534729,9.805786,33.477783,-9.767151,-37.149048,0.12498976,-0.21160832,9.80357,0.0008787587,7.7813864e-05,-3.1471252e-05,0.00012207031,0.0,-0.00019836426
2019-07-01T19:41:15.080Z,-0.007239897,-0.010193395,0.41076326,0.124420166,-0.22970581,9.808182,33.415222,-9.405518,-37.07428,0.12393625,-0.21157593,9.803584,-0.0018984005,4.6655536e-05,0.00014019012,-6.1035156e-05,6.1035156e-05,-0.00044250488
2019-07-01T19:41:15.292Z,-0.0072042965,-0.010231469,0.41077727,0.13400269,-0.21296692,9.800995,34.539795,-9.251404,-38.069153,0.12490055,-0.21124801,9.803579,0.0010315925,-0.0009009987,-0.00047969818,0.00018310547,0.00012207031,-0.0001373291
2019-07-01T19:41:15.480Z,-0.0072087497,-0.010222553,0.4107728,0.112457275,-0.21057129,9.796219,33.15735,-11.079407,-39.82086,0.124706306,-0.2112552,9.803581,-0.0005055964,0.0009120703,-0.0011129379,0.00012207031,6.1035156e-05,-7.6293945e-05
2019-07-01T19:41:15.726Z,-0.0071865036,-0.010212247,0.41075924,0.122039795,-0.22732544,9.800995,34.231567,-8.905029,-38.21411,0.12470446,-0.21077259,9.803592,0.00045019388,0.00068609416,0.0011663437,-6.1035156e-05,0.0,-0.00021362305
2019-07-01T19:41:15.905Z,-0.0071855118,-0.01021581,0.41076127,0.13160706,-0.22013855,9.7986145,32.295227,-9.265137,-36.697388,0.12477566,-0.21078382,9.803591,0.00013189763,-0.00074727833,0.00044727325,0.00012207031,0.00012207031,-0.0002593994
2019-07-01T19:41:16.094Z,-0.007252059,-0.010235508,0.41079453,0.114852905,-0.22013855,9.796219,33.633423,-9.521484,-39.146423,0.12458386,-0.21213686,9.803564,-0.00039566308,-0.0024880022,0.0003004074,-6.1035156e-05,0.0,-0.00019836426
2019-07-01T19:41:16.308Z,-0.007327019,-0.010230881,0.41081443,0.119644165,-0.22253418,9.791428,33.154297,-9.480286,-39.042664,0.123892404,-0.2134425,9.803544,-0.0013831779,-0.0021427274,5.054474e-05,0.0,6.1035156e-05,-0.0001373291
2019-07-01T19:41:16.563Z,-0.00728836,-0.010299355,0.41084743,0.124420166,-0.20578003,9.8033905,32.821655,-9.724426,-38.778687,0.1254204,-0.21330748,9.803528,0.0023711026,0.00056020916,-0.0028409958,0.0,-0.00016784668,-3.0517578e-05
2019-07-01T19:41:16.759Z,-0.0073217563,-0.010318513,0.41087016,0.13877869,-0.21534729,9.805786,33.48694,-10.987854,-39.286804,0.1254884,-0.21406205,9.803511,0.00014726818,-0.000585258,0.00066661835,-0.00018310547,0.0,-1.5258789e-05
2019-07-01T19:41:16.950Z,-0.007310546,-0.010289613,0.41084784,0.122039795,-0.22013855,9.8033905,33.807373,-9.448242,-37.77771,0.12506735,-0.21362573,9.803526,-0.0011056662,0.0008780956,-0.00067329407,-6.1035156e-05,-6.1035156e-05,-7.6293945e-05
2019-07-01T19:41:17.162Z,-0.0073374673,-0.010280938,0.4108504,0.124420166,-0.21057129,9.8033905,34.124756,-9.420776,-38.616943,0.124694675,-0.2140375,9.803521,-0.0004962161,-0.0003760755,0.0011510849,-0.00012207031,-6.1035156e-05,-0.0001373291
2019-07-01T19:41:17.365Z,-0.007307415,-0.010235201,0.41081128,0.1268158,-0.21296692,9.808182,33.641052,-9.45282,-38.526917,0.124128364,-0.21312639,9.803549,-0.0008927509,0.0015841275,0.00028705597,-0.00012207031,0.00012207031,3.0517578e-05
2019-07-01T19:41:17.567Z,-0.0072831064,-0.010275316,0.41083008,0.124420166,-0.21296692,9.808182,33.473206,-9.915161,-36.802673,0.12503706,-0.21301752,9.803539,0.0013242811,0.0002631247,-0.0020341873,0.00012207031,0.0,-1.5258789e-05
2019-07-01T19:41:17.776Z,-0.007235472,-0.010260549,0.41080582,0.1268158,-0.21534729,9.805786,34.059143,-9.288025,-37.37793,0.12516259,-0.21204355,9.803557,0.00023303926,0.0009752512,0.0007123947,6.1035156e-05,-0.00016784668,-1.5258789e-05
2019-07-01T19:41:18.001Z,-0.007264683,-0.0102331145,0.41079682,0.13160706,-0.1986084,9.800995,32.972717,-8.718872,-35.632324,0.124438815,-0.2123436,9.803561,-0.0014438406,-0.00015063584,0.00079345703,6.1035156e-05,0.0,-0.00021362305
2019-07-01T19:41:18.179Z,-0.0072675166,-0.010261209,0.41081607,0.119644165,-0.22732544,9.800995,33.192444,-9.138489,-36.102295,0.12491375,-0.21262321,9.803549,0.00095962733,-0.000578776,0.00084400177,-6.1035156e-05,6.1035156e-05,-7.6293945e-05
2019-07-01T19:41:18.382Z,-0.0072695278,-0.010280296,0.4108292,0.122039795,-0.22253418,9.808182,33.436584,-10.414124,-38.563538,0.12523574,-0.21281475,9.803541,0.00063592196,-0.0011014342,0.00024223328,6.1035156e-05,0.0,-7.6293945e-05
2019-07-01T19:41:18.583Z,-0.0073028533,-0.010297701,0.41085076,0.1268158,-0.21057129,9.8033905,33.38623,-9.837341,-38.142395,0.12527326,-0.21355376,9.803525,-0.0003773719,-0.0012990981,0.002240181,0.00018310547,-0.00016784668,-9.1552734e-05
2019-07-01T19:41:18.786Z,-0.0072610676,-0.010293425,0.41083518,0.124420166,-0.21534729,9.800995,32.16858,-10.140991,-37.701416,0.12553722,-0.21277006,9.803537,0.0005363077,0.0008069724,0.0019664764,-6.1035156e-05,6.1035156e-05,-0.0001373291
2019-07-01T19:41:18.988Z,-0.0072885556,-0.010270373,0.4108285,0.122039795,-0.21057129,9.8033905,32.896423,-9.790039,-39.09607,0.124905124,-0.2130749,9.803539,-0.0019342899,-0.000812456,-0.0015563965,0.00018310547,-6.1035156e-05,-0.00019836426
2019-07-01T19:41:19.196Z,-0.007294217,-0.010289907,0.410843,0.124420166,-0.21774292,9.800995,32.77893,-9.004211,-38.024902,0.12520534,-0.21333548,9.80353,-7.137656e-05,-0.0003168732,0.0005540848,0.0,-0.00022888184,-0.0001373291
2019-07-01T19:41:19.400Z,-0.007319826,-0.0102638975,0.41083384,0.12921143,-0.21774292,9.810577,32.572937,-10.116577,-37.63733,0.12453609,-0.21358253,9.803533,-0.0010909662,-0.0007690042,0.0016489029,0.0,-6.1035156e-05,-0.00038146973
2019-07-01T19:41:19.602Z,-0.007285315,-0.01026361,0.4108231,0.1268158,-0.21774292,9.808182,33.470154,-9.761047,-37.979126,0.12481159,-0.21296173,9.803543,0.00078622997,0.0012476742,-0.00018405914,0.00012207031,6.1035156e-05,-3.0517578e-05
2019-07-01T19:41:19.804Z,-0.007305833,-0.010256354,0.41082463,0.112457275,-0.21534729,9.805786,34.431458,-9.764099,-38.549805,0.12451616,-0.21327034,9.80354,-0.00059396774,-0.0003709942,-0.00043582916,-0.00018310547,6.1035156e-05,0.00015258789
2019-07-01T19:41:20.004Z,-0.0072868075,-0.01024585,0.41081193,0.124420166,-0.21774292,9.8033905,33.1192,-8.618164,-38.11035,0.12448467,-0.21284382,9.80355,-8.446723e-05,0.00062818825,-0.00077056885,0.0,0.0,-9.1552734e-05
2019-07-01T19:41:20.207Z,-0.0072657717,-0.010284693,0.41083091,0.13639832,-0.21296692,9.808182,32.635498,-10.548401,-37.350464,0.1253442,-0.21278325,9.80354,-0.00022600591,0.0020002723,0.0009946823,0.0,-0.00016784668,-0.00019836426
2019-07-01T19:41:20.406Z,-0.0073100324,-0.010251483,0.41082272,0.095718384,-0.24645996,9.8033905,33.073425,-9.564209,-38.67798,0.12439568,-0.21330592,9.803541,-0.0023770109,-0.0015321225,0.00033664703,-6.1035156e-05,-6.1035156e-05,-0.00019836426
2019-07-01T19:41:20.609Z,-0.0072542597,-0.010257254,0.41080943,0.12921143,-0.19381714,9.8033905,33.177185,-9.275818,-37.112427,0.12495144,-0.21235342,9.803555,0.0015997216,0.0016140044,0.002295494,0.0,7.6293945e-05,-0.00019836426
2019-07-01T19:41:20.813Z,-0.0072853514,-0.010261507,0.41082174,0.117248535,-0.22013855,9.796219,33.654785,-9.313965,-37.59308,0.124774024,-0.21294525,9.803544,-0.00061002374,-0.0009211302,-0.0013360977,6.1035156e-05,0.0,3.0517578e-05
2019-07-01T19:41:21.016Z,-0.007258201,-0.010233438,0.41079506,0.119644165,-0.21057129,9.7986145,33.48236,-9.465027,-38.29651,0.12449722,-0.21223006,9.803562,0.00014463812,0.0009798706,-0.0007343292,6.1035156e-05,6.1035156e-05,-1.5258789e-05
2019-07-01T19:41:21.217Z,-0.0071951756,-0.010264567,0.41079614,0.1268158,-0.20817566,9.796219,32.182312,-9.542847,-39.39209,0.12556142,-0.21135414,9.803568,0.0014790595,0.0010597408,-0.00049209595,0.00018310547,-6.1035156e-05,4.5776367e-05
2019-07-01T19:41:21.425Z,-0.007238727,-0.010204657,0.41077027,0.110076904,-0.21296692,9.800995,33.226013,-9.6206665,-39.074707,0.12414537,-0.21164666,9.803579,-0.0026099011,-0.0010487586,-0.00049495697,0.00030517578,-6.1035156e-05,3.0517578e-05
2019-07-01T19:41:21.630Z,-0.007161503,-0.010241515,0.41077074,0.1268158,-0.20100403,9.800995,34.501648,-8.232117,-38.31482,0.12542652,-0.21056293,9.803588,0.0020904094,0.0016970187,-1.6212463e-05,-6.1035156e-05,0.0,-1.5258789e-05
2019-07-01T19:41:21.828Z,-0.007212272,-0.010246382,0.41078946,0.122039795,-0.19381714,9.805786,32.989502,-9.796143,-37.5885,0.12510008,-0.2115124,9.803571,-0.0009197444,-0.000718832,-0.0007944107,-6.1035156e-05,-6.1035156e-05,-0.0001373291
2019-07-01T19:41:22.031Z,-0.007230879,-0.010196201,0.41076234,0.122039795,-0.22253418,9.800995,33.294678,-10.290527,-37.023926,0.124059275,-0.21143715,9.803585,-0.002514027,0.00015939772,-0.0006904602,-0.00012207031,-4.5776367e-05,-0.00019836426
2019-07-01T19:41:22.236Z,-0.007249329,-0.010247322,0.4108014,0.1268158,-0.20817566,9.8033905,33.23822,-9.481812,-38.365173,0.12481546,-0.21218415,9.803559,0.0012784228,-0.0017207265,-0.00029850006,0.0,-0.00012207031,-7.6293945e-05
2019-07-01T19:41:22.437Z,-0.0072295708,-0.010236283,0.41078815,0.1268158,-0.20817566,9.796219,33.36029,-10.498047,-37.74872,0.12478042,-0.21174015,9.80357,0.00037693977,0.0009166151,-0.0014829636,6.1035156e-05,6.1035156e-05,-7.6293945e-05
2019-07-01T19:41:22.638Z,-0.0072336793,-0.010218925,0.41077805,0.13400269,-0.21534729,9.805786,33.055115,-10.232544,-37.07733,0.12443932,-0.21167241,9.8035755,-0.00024107099,-0.0003450662,-0.0003528595,-6.1035156e-05,6.1035156e-05,-0.0001373291
2019-07-01T19:41:22.844Z,-0.007265032,-0.010225136,0.41079172,0.119644165,-0.20817566,9.8033905,33.00171,-9.577942,-37.31842,0.12429455,-0.21228486,9.803564,-0.0003289804,-0.0014306754,-0.0018339157,0.00018310547,6.1035156e-05,-0.00032043457
2019-07-01T19:41:23.047Z,-0.00723823,-0.010251711,0.4108009,0.117248535,-0.20817566,9.7986145,32.403564,-10.270691,-37.812805,0.124983504,-0.21202101,9.803561,0.0013671517,2.041459e-06,0.0016527176,6.1035156e-05,-6.1035156e-05,-0.00019836426
2019-07-01T19:41:23.247Z,-0.0072300653,-0.010246747,0.41079515,0.124420166,-0.21057129,9.810577,33.828735,-9.010315,-37.615967,0.124961905,-0.21183427,9.803566,0.00018858165,0.00079351664,0.0015821457,0.0,6.1035156e-05,-0.00038146973
2019-07-01T19:41:23.451Z,-0.007316786,-0.010249394,0.41082343,0.114852905,-0.22732544,9.808182,33.27179,-8.752441,-38.21869,0.12430374,-0.21340992,9.803539,-0.0013179258,-0.0031427592,-0.00037956238,0.0,0.0,-0.0001373291
2019-07-01T19:41:23.653Z,-0.0072806915,-0.010280899,0.410833,0.124420166,-0.20578003,9.8033905,33.576965,-9.169006,-38.01422,0.12515564,-0.21301971,9.803537,0.0019069016,0.0010096431,-0.00041484833,0.0,6.1035156e-05,-9.1552734e-05
2019-07-01T19:41:23.857Z,-0.007251439,-0.010303699,0.41083896,0.1268158,-0.21057129,9.808182,33.010864,-9.358215,-37.348938,0.12579763,-0.21268122,9.803536,0.0012657195,0.000669837,-0.00012397766,-0.00012207031,0.00012207031,-0.00032043457
2019-07-01T19:41:24.060Z,-0.0072086174,-0.010263213,0.41079935,0.119644165,-0.20817566,9.800995,32.743835,-9.657288,-38.835144,0.12542813,-0.211584,9.803565,-0.001232639,0.0014786571,-7.534027e-05,0.00012207031,-0.00012207031,-0.0001373291
2019-07-01T19:41:24.319Z,-0.0072395694,-0.010223494,0.41078284,0.098098755,-0.2416687,9.796219,33.650208,-9.538269,-37.034607,0.12447245,-0.2118152,9.803573,-0.0012318194,-0.0006815791,-0.0010213852,6.1035156e-05,6.1035156e-05,-0.00019836426
2019-07-01T19:41:24.458Z,-0.0072454945,-0.010237546,0.41079384,0.124420166,-0.20578003,9.805786,33.424377,-10.78186,-38.18512,0.12467336,-0.21203582,9.803565,0.00023983419,-0.00069501996,0.00091552734,0.00024414062,0.00012207031,-9.1552734e-05
2019-07-01T19:41:24.675Z,-0.0071973302,-0.010282693,0.41080865,0.124420166,-0.19621277,9.8033905,33.13446,-8.558655,-36.2854,0.1258652,-0.2115404,9.80356,0.0019116402,0.0004965216,0.0007715225,-6.1035156e-05,-0.00012207031,-9.1552734e-05
2019-07-01T19:41:24.866Z,-0.0071998425,-0.010283415,0.41080987,0.122039795,-0.20100403,9.8033905,34.007263,-8.7890625,-36.445618,0.12585758,-0.2115913,9.803559,-0.0002437532,-0.00015036762,0.0017976761,6.1035156e-05,-0.00022888184,-0.00019836426
2019-07-01T19:41:25.069Z,-0.0071923267,-0.010307062,0.41082305,0.13160706,-0.20578003,9.796219,33.56781,-9.463501,-37.69684,0.12633786,-0.21164925,9.803552,0.00095900893,0.00037288666,-0.0007209778,0.0,0.0,-1.5258789e-05
2019-07-01T19:41:25.275Z,-0.0072573507,-0.010296874,0.4108363,0.122039795,-0.20817566,9.7986145,32.548523,-8.80127,-37.973022,0.12562858,-0.21273156,9.803537,-0.0016795099,-0.0014288127,-0.0014305115,-0.00018310547,6.1035156e-05,-7.6293945e-05
2019-07-01T19:41:25.476Z,-0.0072244145,-0.010250442,0.41079584,0.122039795,-0.21296692,9.8033905,32.868958,-10.449219,-39.001465,0.12507333,-0.21176308,9.803566,-0.00064077973,0.0019138455,0.00080394745,-6.1035156e-05,0.0,-1.5258789e-05
2019-07-01T19:41:25.680Z,-0.007226539,-0.01025751,0.4108011,0.12921143,-0.21296692,9.800995,33.31604,-9.62677,-37.794495,0.12518133,-0.21185872,9.803562,0.00020605326,-0.00015692413,-0.0013866425,0.0,0.0,-7.6293945e-05
2019-07-01T19:41:25.883Z,-0.0072924583,-0.0102472175,0.41081455,0.13160706,-0.21057129,9.808182,32.954407,-10.368347,-39.0625,0.12446297,-0.21295623,9.803548,-0.00026224554,-0.0021783113,-0.00060367584,-0.00012207031,0.00024414062,0.00021362305
2019-07-01T19:41:26.090Z,-0.0072464463,-0.010229672,0.41078898,0.1268158,-0.21057129,9.800995,32.635498,-10.473633,-37.864685,0.12452605,-0.21198875,9.803568,0.00013838708,0.0021343976,0.0015115738,0.00012207031,0.00012207031,3.0517578e-05
2019-07-01T19:41:26.288Z,-0.007277812,-0.01021101,0.4107864,0.119644165,-0.22013855,9.8033905,32.72705,-8.502197,-37.164307,0.12394025,-0.21239884,9.803566,-0.0011784583,-0.0003322065,-0.0007390976,-0.00012207031,0.0,-7.6293945e-05
2019-07-01T19:41:26.489Z,-0.0073010367,-0.010222184,0.4108008,0.1268158,-0.21057129,9.805786,32.42798,-11.277771,-39.302063,0.12394948,-0.21290605,9.803555,-0.00024062395,-0.0007881075,-0.0001745224,-0.00018310547,-6.1035156e-05,-0.0001373291
2019-07-01T19:41:26.683Z,-0.0073341993,-0.01021077,0.4108035,0.1268158,-0.20817566,9.796219,33.992004,-9.002686,-37.243652,0.12347758,-0.21340741,9.803551,-0.00048220903,-0.0005220324,-0.0005931854,0.0,6.1035156e-05,-7.6293945e-05
2019-07-01T19:41:26.893Z,-0.007347444,-0.010231688,0.41082123,0.1268158,-0.21296692,9.808182,33.45337,-10.2005005,-37.76703,0.12374063,-0.21381512,9.803538,-0.0014544576,-0.0015360266,0.0017080307,-6.1035156e-05,0.0,3.0517578e-05
2019-07-01T19:41:27.095Z,-0.00731613,-0.0102258045,0.4108078,0.124420166,-0.21057129,9.7986145,33.358765,-10.496521,-38.050842,0.12389095,-0.21320602,9.803549,0.0005426556,0.0012035221,0.00065898895,6.1035156e-05,-0.00012207031,-1.5258789e-05
2019-07-01T19:41:27.301Z,-0.007316146,-0.010235654,0.41081423,0.119644165,-0.20817566,9.805786,31.918335,-10.299683,-38.17749,0.124065414,-0.21328653,9.803545,0.0003541559,-0.00015237927,-0.00020122528,6.1035156e-05,0.00012207031,-1.5258789e-05
2019-07-01T19:41:27.505Z,-0.0073527694,-0.010210189,0.41080877,0.122039795,-0.20817566,9.805786,33.33893,-9.342957,-36.52954,0.12331627,-0.21373545,9.803545,-0.0012762174,-0.0006662458,-0.0001335144,-0.00012207031,-6.1035156e-05,9.1552734e-05
2019-07-01T19:41:27.709Z,-0.007311518,-0.010247872,0.4108208,0.119644165,-0.21534729,9.805786,32.78961,-10.528564,-38.638306,0.12431959,-0.2133031,9.803541,0.0017748103,0.0015488863,0.0007209778,-6.1035156e-05,0.00012207031,-0.00032043457
2019-07-01T19:41:27.916Z,-0.0073107355,-0.010262807,0.41083035,0.1268158,-0.20578003,9.808182,32.16858,-9.985352,-38.72528,0.12459067,-0.21341074,9.803535,0.0010245591,0.00023271143,0.00096035004,-0.00024414062,-6.1035156e-05,3.0517578e-05
2019-07-01T19:41:28.164Z,-0.007308366,-0.010209151,0.41079453,0.122039795,-0.21296692,9.7986145,33.029175,-8.917236,-37.56256,0.1236589,-0.21293128,9.803559,-0.0014022514,0.00094635785,0.00031280518,0.0,0.00018310547,-7.6293945e-05
2019-07-01T19:41:28.316Z,-0.007315624,-0.010213121,0.41079932,0.122039795,-0.22013855,9.7986145,33.40912,-10.693359,-40.509033,0.12367027,-0.21309368,9.8035555,0.0002644211,-0.0003248155,5.4359436e-05,0.0,6.1035156e-05,9.1552734e-05
2019-07-01T19:41:28.517Z,-0.007297219,-0.010186878,0.41077653,0.1268158,-0.22013855,9.808182,33.242798,-9.408569,-38.276672,0.12335473,-0.21255012,9.803571,-0.0003893599,0.0010527819,0.0013065338,-6.1035156e-05,6.1035156e-05,-0.0001373291
2019-07-01T19:41:28.723Z,-0.007268162,-0.010216054,0.41078672,0.124420166,-0.21057129,9.812973,33.332825,-11.003113,-38.52997,0.12410811,-0.21226701,9.803568,0.0019642934,-0.0001667738,0.00086402893,0.00012207031,6.1035156e-05,-0.00019836426
2019-07-01T19:41:28.921Z,-0.007275892,-0.010216621,0.41078946,0.124420166,-0.22013855,9.810577,32.746887,-9.811401,-37.65869,0.12405532,-0.21241015,9.803565,0.00011409074,-0.00027517974,-0.0006971359,0.00018310547,6.1035156e-05,-0.0002593994
2019-07-01T19:41:29.142Z,-0.00730158,-0.010231274,0.41080692,0.124420166,-0.21296692,9.808182,33.529663,-10.342407,-37.49695,0.12410623,-0.21298987,9.803553,0.00029986352,-0.0016161054,-0.0012731552,0.0,6.1035156e-05,-7.6293945e-05
2019-07-01T19:41:29.337Z,-0.0072765467,-0.010234485,0.41080135,0.13160706,-0.21534729,9.808182,32.10907,-9.631348,-38.049316,0.12436665,-0.21256736,9.803556,0.00075600296,0.0015481114,0.000111579895,0.0,0.00012207031,-0.0001373291
2019-07-01T19:41:29.535Z,-0.007307822,-0.010241434,0.41081548,0.12921143,-0.21296692,9.808182,34.43756,-9.695435,-38.08136,0.124235526,-0.21318443,9.803545,0.00019373,-0.00073321164,-0.0013589859,-0.00024414062,6.1035156e-05,3.0517578e-05
2019-07-01T19:41:29.741Z,-0.007307692,-0.010222368,0.41080296,0.124420166,-0.21534729,9.810577,33.302307,-9.913635,-38.380432,0.12389865,-0.21302684,9.803554,-0.00091819465,0.00031332672,-0.00010108948,0.0,0.0,-7.6293945e-05
2019-07-01T19:41:29.963Z,-0.007317735,-0.010197106,0.4107895,0.117248535,-0.21057129,9.8033905,32.925415,-9.133911,-39.112854,0.12336922,-0.21300106,9.80356,-0.0006150678,0.00028312206,-0.00039291382,-0.00018310547,6.1035156e-05,-9.1552734e-05
2019-07-01T19:41:30.143Z,-0.007306466,-0.010180599,0.41077524,0.122039795,-0.21534729,9.800995,33.14209,-9.623718,-39.675903,0.12316824,-0.21266468,9.80357,-0.00065533817,0.0016202182,-0.00041675568,0.0,-6.1035156e-05,-0.0002593994
2019-07-01T19:41:30.352Z,-0.0072598667,-0.010178918,0.4107599,0.119644165,-0.21774292,9.808182,33.511353,-8.732605,-38.67798,0.123517275,-0.21181591,9.803584,0.00067996234,0.0014785379,-0.000910759,-6.1035156e-05,6.1035156e-05,-0.0001373291
2019-07-01T19:41:30.557Z,-0.007281932,-0.010206195,0.41078448,0.13160706,-0.21057129,9.810577,32.6416,-10.098267,-39.14795,0.1238214,-0.21243347,9.803567,0.00037452579,-0.0007702708,0.00019073486,-0.00012207031,-6.1035156e-05,-1.5258789e-05
2019-07-01T19:41:30.744Z,-0.007270966,-0.010212375,0.41078517,0.13160706,-0.21774292,9.8033905,33.73108,-9.454346,-37.397766,0.12402011,-0.21228729,9.803568,0.0006428808,-0.00043323636,0.0009241104,-6.1035156e-05,0.0,3.0517578e-05
2019-07-01T19:41:30.944Z,-0.0072748666,-0.010271642,0.41082516,0.1268158,-0.21296692,9.812973,33.70819,-9.812927,-38.302612,0.12503894,-0.21283993,9.803543,0.0020235628,-0.001565665,-0.0006685257,0.00036621094,0.0,-1.5258789e-05
2019-07-01T19:41:31.163Z,-0.007314961,-0.010265148,0.41083318,0.12921143,-0.20817566,9.8033905,32.943726,-10.51178,-39.46991,0.12459781,-0.21350554,9.803534,-0.00041035563,-0.0008891523,0.0009899139,-0.00018310547,0.00012207031,-0.00019836426
2019-07-01T19:41:31.381Z,-0.0072574313,-0.010262574,0.41081387,0.124420166,-0.22013855,9.812973,33.299255,-10.067749,-37.58087,0.12501995,-0.2124536,9.803552,0.00083480775,0.0018818527,-0.0006132126,6.1035156e-05,0.0,-1.5258789e-05
2019-07-01T19:41:31.558Z,-0.0072790314,-0.0102335,0.41080147,0.1268158,-0.2033844,9.8033905,32.59735,-9.67865,-37.095642,0.124328986,-0.21260387,9.803556,-0.0011143461,-0.001053974,0.002453804,0.00012207031,6.1035156e-05,-0.0002593994
2019-07-01T19:41:31.762Z,-0.0072997226,-0.010230826,0.41080606,0.119644165,-0.21296692,9.7986145,33.769226,-10.021973,-39.32953,0.124113366,-0.21295291,9.803553,-0.00042498112,-0.00021781027,-0.00011062622,-6.1035156e-05,6.1035156e-05,0.0002746582
2019-07-01T19:41:31.964Z,-0.0072811707,-0.010232607,0.41080153,0.12921143,-0.21534729,9.8033905,32.25708,-9.761047,-38.911438,0.12429577,-0.21263495,9.803557,-0.00011558086,0.00017529726,-0.0005531311,6.1035156e-05,-0.00012207031,0.00010681152
2019-07-01T19:41:32.159Z,-0.007257886,-0.010296151,0.41083598,0.122039795,-0.21774292,9.800995,32.894897,-9.939575,-38.59558,0.12561142,-0.21273528,9.803538,0.0021546036,3.1247735e-05,-4.9591064e-05,0.00012207031,0.0,-7.6293945e-05
2019-07-01T19:41:32.366Z,-0.0072608865,-0.010288903,0.41083217,0.1268158,-0.20817566,9.805786,32.97577,-8.340454,-37.36725,0.12545854,-0.21272999,9.80354,-0.0008009523,-0.0004544258,-0.0006752014,-6.1035156e-05,-0.00016784668,-0.00019836426
2019-07-01T19:41:32.575Z,-0.0072754603,-0.010293776,0.41083983,0.124420166,-0.2033844,9.7986145,32.276917,-9.472656,-38.172913,0.12542643,-0.21303086,9.803534,0.0001861006,-0.00038686395,0.0009851456,0.00012207031,0.0,-9.1552734e-05
2019-07-01T19:41:32.801Z,-0.0072665266,-0.010262667,0.41081673,0.1268158,-0.21774292,9.810577,33.01544,-9.211731,-37.394714,0.12494766,-0.21261735,9.803549,-0.00075924397,0.00061661005,-0.0015735626,-0.00012207031,6.1035156e-05,-7.6293945e-05
2019-07-01T19:41:32.977Z,-0.007314111,-0.010211862,0.41079804,0.13160706,-0.21534729,9.7986145,35.084534,-9.727478,-37.661743,0.12366023,-0.2130563,9.8035555,-0.002826102,-0.0013445914,-0.00041103363,0.00024414062,-0.00012207031,-7.6293945e-05
2019-07-01T19:41:33.178Z,-0.0072961603,-0.01023911,0.41081038,0.13160706,-0.20817566,9.8033905,33.976746,-9.217834,-37.890625,0.12428917,-0.21295653,9.80355,0.0006237924,0.00022603571,-0.000749588,-0.00012207031,-6.1035156e-05,3.0517578e-05
2019-07-01T19:41:33.381Z,-0.007260393,-0.010230595,0.41079387,0.12921143,-0.21774292,9.800995,33.618164,-10.041809,-38.043213,0.12442903,-0.21224621,9.803564,0.00048499554,0.0002310723,3.71933e-05,6.1035156e-05,0.0,-1.5258789e-05
2019-07-01T19:41:33.585Z,-0.00727877,-0.010239412,0.41080526,0.1268158,-0.21534729,9.805786,33.57544,-9.16748,-38.16681,0.1244359,-0.21264735,9.803555,5.8561563e-06,-0.000803411,-0.00013828278,-0.00012207031,0.00012207031,-7.6293945e-05
2019-07-01T19:41:33.788Z,-0.007257114,-0.01022379,0.41078842,0.124420166,-0.21534729,9.805786,32.429504,-9.684753,-37.846375,0.12433505,-0.212132,9.803567,-0.0010918975,0.0008210838,-0.0010461807,6.1035156e-05,-0.00012207031,-1.5258789e-05
2019-07-01T19:41:33.987Z,-0.007232687,-0.0102232685,0.41078058,0.12921143,-0.21296692,9.800995,32.336426,-9.831238,-38.55133,0.12452439,-0.21169001,9.803575,0.00014744699,0.0003887415,0.00089740753,0.00012207031,-0.00022888184,-7.6293945e-05
2019-07-01T19:41:34.191Z,-0.007260714,-0.010193791,0.41076988,0.117248535,-0.21534729,9.808182,33.729553,-9.376526,-38.061523,0.12377404,-0.21195222,9.803578,-0.0019715205,0.00017900765,0.00012683868,0.0,0.0,-1.5258789e-05
2019-07-01T19:41:34.398Z,-0.007268264,-0.010177538,0.41076156,0.1268158,-0.20817566,9.7986145,34.27887,-9.78241,-37.564087,0.12342454,-0.21195515,9.803582,-0.00091433525,0.00042703748,0.0015230179,-0.00024414062,-0.00012207031,3.0517578e-05
2019-07-01T19:41:34.599Z,-0.007233261,-0.010198626,0.41076463,0.117248535,-0.21534729,9.8033905,33.291626,-9.906006,-39.51111,0.1240829,-0.2114996,9.803584,0.001303725,0.0014077872,-0.0012197495,0.0,0.0,3.0517578e-05
2019-07-01T19:41:34.799Z,-0.0072548115,-0.01019156,0.4107666,0.124420166,-0.21534729,9.805786,33.33435,-9.262085,-37.571716,0.12378247,-0.21182828,9.803581,-0.0012633577,5.6043267e-05,-0.00016498566,-0.00030517578,-0.00016784668,-0.0001373291
2019-07-01T19:41:35.007Z,-0.007240044,-0.010201727,0.41076875,0.1268158,-0.20817566,9.7986145,33.451843,-8.380127,-37.698364,0.124082744,-0.21164642,9.803581,0.0010595247,-0.00012348592,0.0002002716,0.0,-6.1035156e-05,-7.6293945e-05
2019-07-01T19:41:35.206Z,-0.007226339,-0.010189545,0.4107566,0.122039795,-0.20817566,9.800995,32.91931,-9.429932,-38.267517,0.12397821,-0.21130161,9.80359,-0.0004897639,0.0007059127,-0.0014619827,0.00018310547,0.00012207031,-0.00019836426
2019-07-01T19:41:35.412Z,-0.007192833,-0.010214754,0.41076282,0.12921143,-0.20817566,9.812973,33.572388,-9.240723,-38.182068,0.124697454,-0.21090643,9.803589,0.0016638935,0.0015091598,-0.0006456375,-0.00018310547,0.0,-0.00019836426
2019-07-01T19:41:35.615Z,-0.0071965684,-0.010211299,0.4107617,0.124420166,-0.20817566,9.800995,33.251953,-9.342957,-37.431335,0.12460583,-0.21094523,9.803589,6.765872e-05,0.00035841763,0.0014848709,-0.00012207031,0.0,-9.1552734e-05
2019-07-01T19:41:35.814Z,-0.0072210985,-0.010210173,0.41076848,0.12921143,-0.21057129,9.808182,33.866882,-8.285522,-36.86371,0.124386474,-0.21137568,9.803583,-0.00043342263,-0.00016695261,0.0005168915,-0.00012207031,6.1035156e-05,-1.5258789e-05
2019-07-01T19:41:36.015Z,-0.007203101,-0.010234193,0.41077867,0.122039795,-0.20817566,9.796219,33.721924,-9.521484,-38.243103,0.12495856,-0.21124877,9.803578,0.0016239062,0.00021198392,0.0016145706,-6.1035156e-05,6.1035156e-05,-9.1552734e-05
2019-07-01T19:41:36.228Z,-0.007254099,-0.010229972,0.41079152,0.1268158,-0.21296692,9.808182,32.499695,-9.895325,-38.11798,0.12446915,-0.21212833,9.803565,-0.000755243,-0.0010600835,-2.861023e-05,-0.00018310547,0.00012207031,-7.6293945e-05
2019-07-01T19:41:36.421Z,-0.0072096856,-0.010253612,0.4107934,0.119644165,-0.21057129,9.800995,32.35016,-9.614563,-37.979126,0.12524927,-0.21152495,9.803569,0.0015623719,0.0016778558,-1.6212463e-05,-0.00012207031,0.0,-1.5258789e-05
2019-07-01T19:41:36.628Z,-0.007205893,-0.010261675,0.4107975,0.122039795,-0.20817566,9.800995,31.999207,-10.218811,-38.464355,0.12542303,-0.21152264,9.803566,-0.00028975308,0.0004851669,-4.7683716e-06,-0.00018310547,-0.00012207031,0.00015258789
2019-07-01T19:41:36.843Z,-0.007234923,-0.010255833,0.41080257,0.119644165,-0.21057129,9.796219,33.30841,-10.00061,-36.662292,0.12508346,-0.21199532,9.80356,-0.0008982271,-0.00047305226,0.00031661987,0.0,-0.00012207031,3.0517578e-05
2019-07-01T19:41:37.036Z,-0.0072517814,-0.010269291,0.41081655,0.1268158,-0.21296692,9.7986145,32.888794,-10.089111,-38.249207,0.12518495,-0.21240707,9.803551,0.00019718707,-0.000560984,-0.0010690689,-0.00012207031,-0.00012207031,9.1552734e-05
2019-07-01T19:41:37.236Z,-0.0072181514,-0.010257884,0.4107988,0.122039795,-0.21774292,9.805786,32.322693,-10.198975,-38.171387,0.12525617,-0.21171147,9.803565,0.00036868453,0.0016144812,0.00025463104,-0.00012207031,0.00018310547,9.1552734e-05
2019-07-01T19:41:37.438Z,-0.007229787,-0.010274918,0.4108135,0.122039795,-0.21057129,9.8033905,33.32672,-9.407043,-37.750244,0.12546352,-0.21205874,9.803555,-7.580221e-05,-0.00067460537,-0.0011100769,-6.1035156e-05,0.0,-0.0001373291
2019-07-01T19:41:37.643Z,-0.0072126384,-0.010252542,0.4107936,0.117248535,-0.21057129,9.800995,32.566833,-10.336304,-37.38098,0.12520629,-0.21156916,9.803569,-0.00076174736,0.0014554858,-0.00041007996,-6.1035156e-05,-0.00022888184,-0.0001373291
2019-07-01T19:41:37.845Z,-0.007254751,-0.010217688,0.41078368,0.124420166,-0.21057129,9.796219,33.088684,-9.352112,-37.72888,0.124246106,-0.21203996,9.80357,-0.0017183945,-0.00046409667,-0.00091171265,-0.00018310547,0.00012207031,-0.0001373291
2019-07-01T19:41:38.046Z,-0.007238069,-0.0101648895,0.41074404,0.117248535,-0.21534729,9.805786,33.901978,-9.074402,-38.08441,0.123445794,-0.21131104,9.8035965,-0.0013920143,0.0019059926,0.00018787384,-6.1035156e-05,0.0,-0.0002593994
2019-07-01T19:41:38.247Z,-0.0072320653,-0.010175744,0.41074932,0.1268158,-0.21774292,9.812973,33.49762,-9.25293,-37.348938,0.123687,-0.21129183,9.803594,0.0007372722,-0.00023251772,0.0015573502,0.0,0.00012207031,-0.0001373291
2019-07-01T19:41:38.470Z,-0.00722309,-0.010195387,0.41075942,0.12921143,-0.21296692,9.793823,33.473206,-9.611511,-38.401794,0.12410815,-0.21129094,9.803588,0.0012808517,0.00023381412,-0.00054836273,0.0,6.1035156e-05,-0.00019836426
2019-07-01T19:41:38.651Z,-0.0072479323,-0.01018221,0.41075838,0.124420166,-0.21774292,9.808182,33.563232,-9.535217,-37.86316,0.12367265,-0.21162885,9.803587,-0.00066690147,-0.00016668439,-0.0019598007,-0.00012207031,6.1035156e-05,-0.00019836426
2019-07-01T19:41:38.848Z,-0.00726212,-0.010185275,0.41076472,0.12921143,-0.20578003,9.805786,33.033752,-9.074402,-36.161804,0.123611644,-0.21190806,9.803581,0.00010638684,0.000120833516,0.0007724762,-6.1035156e-05,6.1035156e-05,-0.0001373291
2019-07-01T19:41:39.064Z,-0.007275929,-0.010189408,0.41077167,0.119644165,-0.21296692,9.7986145,33.7265,-9.603882,-37.12616,0.12357266,-0.21218921,9.803576,0.00039020926,-0.0005605668,-0.00012779236,-0.00012207031,0.00012207031,-0.0001373291
2019-07-01T19:41:39.262Z,-0.007287571,-0.010224904,0.41079846,0.1268158,-0.20817566,9.808182,34.613037,-7.873535,-36.36017,0.12410719,-0.21268691,9.803558,0.0015304536,-0.001017794,0.0005540848,0.0,0.00012207031,-0.0001373291
2019-07-01T19:41:39.462Z,-0.0072820485,-0.010237578,0.41080508,0.124420166,-0.21774292,9.800995,34.205627,-9.414673,-38.542175,0.124376744,-0.21269116,9.803555,0.0005383715,0.00020110607,0.0008497238,0.0,6.1035156e-05,-0.0001373291
2019-07-01T19:41:39.665Z,-0.0073103807,-0.01023378,0.41081125,0.124420166,-0.21296692,9.796219,32.780457,-10.824585,-38.093567,0.12407907,-0.21316797,9.803548,-0.0003740415,-0.0007484853,0.0007200241,-0.00012207031,0.0,-0.00019836426
2019-07-01T19:41:39.924Z,-0.0072298,-0.0102802105,0.41081697,0.124420166,-0.21296692,9.800995,32.40509,-10.046387,-38.671875,0.12555721,-0.21210207,9.803552,0.0012639314,0.00033155084,0.00074481964,0.00012207031,0.0,-0.00019836426
2019-07-01T19:41:40.123Z,-0.0072178575,-0.010271565,0.41080764,0.1268158,-0.20578003,9.805786,32.269287,-11.291504,-38.845825,0.12550107,-0.21181764,9.803559,0.00012379885,0.0012475997,0.0009784698,-0.00012207031,-6.1035156e-05,-0.0001373291
2019-07-01T19:41:40.325Z,-0.0071975742,-0.010214952,0.4107644,0.13400269,-0.21296692,9.805786,32.460022,-10.774231,-38.145447,0.12466241,-0.21099302,9.803588,-0.0014369637,0.001634866,0.00065135956,-6.1035156e-05,0.00012207031,-3.0517578e-05
2019-07-01T19:41:40.529Z,-0.007227719,-0.010247058,0.41079465,0.1268158,-0.21534729,9.7986145,33.139038,-10.076904,-37.576294,0.12498649,-0.21179473,9.803566,0.0003874004,-0.0016323775,0.00043582916,0.0,0.0,-0.00019836426
2019-07-01T19:41:40.731Z,-0.007220668,-0.010202931,0.41076362,0.117248535,-0.21296692,9.8033905,33.86383,-10.028076,-37.59613,0.1242616,-0.21130899,9.803586,-0.00078853965,0.000739485,-0.000995636,0.00012207031,6.1035156e-05,-0.00044250488
2019-07-01T19:41:40.932Z,-0.0072266445,-0.010168991,0.41074324,0.114852905,-0.21534729,9.805786,32.855225,-9.223938,-37.242126,0.12361136,-0.2111397,9.803597,-0.0008541867,9.5024705e-05,-0.00018978119,0.0,0.00012207031,-0.0002593994
2019-07-01T19:41:41.136Z,-0.0072090114,-0.010177283,0.41074327,0.122039795,-0.20817566,9.7986145,32.39441,-10.411072,-38.368225,0.12390166,-0.21089119,9.803598,0.0010178462,5.6937337e-05,-0.0017290115,0.00012207031,0.00012207031,-0.0001373291
2019-07-01T19:41:41.339Z,-0.0071976073,-0.010191987,0.41074938,0.1268158,-0.20817566,9.812973,33.665466,-9.09729,-37.47406,0.12425505,-0.2108066,9.803597,0.00067476183,-0.00027395785,-0.0016336441,0.00012207031,0.00018310547,-0.0001373291