rotationVector.y,rotationVector.x,magneticField.y,rotationVector.z,gravity.y,magneticField.z,linearAcceleration.y,gyroscope.y,gravity.x,gyroscope.z,gyroscope.x,magneticField.x,linearAcceleration.z,accelerometer.z,accelerometer.x,accelerometer.y,gravity.z,linearAcceleration.x
-0.0123346215,0.010930425,-15.791321,0.99384415,-0.21694691,-39.094543,0.0015933961,9.1552734e-05,0.23956573,-6.1035156e-05,-1.5258789e-05,3.2531738,-0.00074863434,9.8033905,0.23928833,-0.21894836,9.801323,0.001636818
-0.0123754265,0.010919079,-15.158081,0.9938478,-0.21777536,-37.628174,-0.00163804,9.1552734e-05,0.23942418,6.1035156e-05,-1.5258789e-05,2.0065308,0.001250267,9.803879,0.23880005,-0.21679688,9.801308,-0.00014464557
-0.012332397,0.010906007,-15.226746,0.99385047,-0.21696927,-37.765503,0.0016474277,-9.1552734e-05,0.23907304,0.0,-7.6293945e-05,3.1295776,0.0016241074,9.800995,0.23928833,-0.21534729,9.801333,-0.00030103326
-0.012338821,0.010903682,-15.623474,0.9938512,-0.21710117,-38.8031,7.753074e-05,-9.1552734e-05,0.23904,0.00012207031,-1.5258789e-05,2.5405884,-0.0020961761,9.798126,0.2368927,-0.21655273,9.801332,-0.00047114491
-0.012312745,0.01088509,-15.449524,0.99385566,-0.21664146,-39.790344,0.000792101,9.1552734e-05,0.238614,6.1035156e-05,0.00010681152,1.7333984,-0.0013980865,9.803879,0.2400055,-0.21821594,9.801353,-0.0009889603
-0.012343743,0.010913998,-15.829468,0.99384856,-0.21716958,-38.09967,-0.0012803972,3.0517578e-05,0.23925647,0.00018310547,-1.5258789e-05,2.7755737,0.0020971298,9.804596,0.23904419,-0.21749878,9.801326,0.0014550686
-0.012374678,0.010888109,-15.092468,0.99385583,-0.21784423,-37.579346,-0.0013171285,9.1552734e-05,0.23880357,0.00035095215,4.5776367e-05,2.9754639,-0.0005531311,9.801712,0.23904419,-0.21798706,9.801321,-0.0007380992
-0.012366446,0.010886769,-15.783691,0.9938561,-0.21768689,-38.29956,0.00018286705,-0.0001373291,0.2387596,0.00030517578,4.5776367e-05,2.3742676,-0.0005378723,9.802429,0.2400055,-0.21702576,9.801326,0.00051774085
-0.012356117,0.010916167,-15.545654,0.9938482,-0.21740566,-38.7146,0.0003965497,-0.0001373291,0.23932564,0.00018310547,-7.6293945e-05,2.6245117,0.0006046295,9.801239,0.24023438,-0.21894836,9.801318,0.0001732558
-0.012380713,0.010926537,-14.955139,0.99384594,-0.2178586,-37.846375,-0.0005888641,0.00015258789,0.2395843,0.00024414062,-7.6293945e-05,2.8182983,-0.00038719177,9.802444,0.24095154,-0.21702576,9.801302,0.00040729344
-0.012386086,0.010938687,-15.029907,0.99384284,-0.21793087,-37.55951,0.00019428134,-0.00019836426,0.23983838,0.00024414062,-1.5258789e-05,2.8152466,-0.00058460236,9.798843,0.24023438,-0.21894836,9.801294,0.00087732077
-0.012399256,0.010953061,-16.119385,0.99383926,-0.21814956,-38.08441,-0.00080537796,-3.0517578e-05,0.24015321,0.00012207031,0.00016784668,2.8457642,-0.0011816025,9.800995,0.2400055,-0.21678162,9.801282,8.840859e-05
-0.012358564,0.01096434,-15.405273,0.9938357,-0.21732345,-37.78076,0.0012539625,-9.1552734e-05,0.2402936,0.00035095215,4.5776367e-05,2.6382446,0.00016880035,9.802444,0.2400055,-0.21702576,9.801297,-5.3673983e-05
-0.012349794,0.010957231,-15.571594,0.99383736,-0.21717116,-38.17749,-9.377301e-05,-3.0517578e-05,0.24013318,0.00018310547,0.00010681152,2.305603,0.000916481,9.8033905,0.23736572,-0.21942139,9.801304,-0.0006214678
-0.012371192,0.010916758,-15.213013,0.9938483,-0.21769883,-37.875366,-0.0012345016,-0.0001373291,0.23936893,0.00018310547,4.5776367e-05,2.243042,0.00092983246,9.800049,0.23928833,-0.21655273,9.801311,-0.0020197332
-0.0123741515,0.010921273,-15.95459,0.9938472,-0.21774451,-38.28888,4.053116e-06,0.00015258789,0.23946537,0.00030517578,-7.6293945e-05,3.0929565,-0.0011405945,9.799561,0.23951721,-0.21774292,9.801308,0.00029326975
-0.012372874,0.010924833,-15.481567,0.99384624,-0.21770991,-38.095093,0.00042706728,-9.1552734e-05,0.23953384,0.00018310547,4.5776367e-05,2.5497437,-0.0013914108,9.799805,0.23808289,-0.21894836,9.801306,0.00048589706
-0.012388271,0.010897439,-14.74762,0.9938536,-0.21808487,-37.64801,-0.0013581663,-3.0517578e-05,0.23901843,0.00018310547,0.0004119873,2.6687622,-0.00077724457,9.7986145,0.23832703,-0.21942139,9.801311,-0.0013848394
-0.012367497,0.0108945565,-15.737915,0.99385405,-0.21768646,-37.44507,-0.00079740584,9.1552734e-05,0.23891746,-0.00018310547,4.5776367e-05,2.0629883,-0.00020313263,9.803162,0.24047852,-0.2163086,9.801322,-0.00032021105
-0.01236108,0.010927046,-15.838623,0.99384546,-0.21747337,-38.623047,0.00044037402,9.1552734e-05,0.23955345,0.00018310547,4.5776367e-05,2.6123047,0.0014591217,9.803635,0.23976135,-0.2182312,9.8013115,0.0016501993
-0.012369242,0.0109186405,-15.881348,0.9938478,-0.2176556,-39.624023,-0.0005630851,-3.0517578e-05,0.23940249,6.1035156e-05,-1.5258789e-05,2.922058,0.0017595291,9.803635,0.23951721,-0.21870422,9.801311,0.0003450811
-0.012394414,0.010910803,-15.679932,0.99385023,-0.21816897,-37.319946,-0.00075368583,9.1552734e-05,0.23929842,0.0,4.5776367e-05,2.949524,0.0011777878,9.803635,0.23928833,-0.21846008,9.801303,-0.00052656233
-0.012377558,0.01089761,-17.108154,0.99385345,-0.21787496,-37.657166,0.0003951341,9.1552734e-05,0.23899952,0.0,-7.6293945e-05,2.241516,0.0007791519,9.803146,0.23951721,-0.21751404,9.801316,7.137656e-06
-0.012382857,0.010891161,-15.505981,0.9938552,-0.21799593,-37.70752,-0.00019700825,3.0517578e-05,0.23888165,-0.00018310547,-1.5258789e-05,2.230835,0.00035381317,9.802429,0.237854,-0.22013855,9.801316,0.00012061
-0.012417855,0.010879918,-15.333557,0.9938587,-0.21871053,-37.91504,-0.0011479855,-9.1552734e-05,0.23872991,-0.00012207031,4.5776367e-05,2.6412964,-0.00023937225,9.804596,0.23880005,-0.21751404,9.801304,-0.00044208765
-0.01239826,0.01088819,-16.052246,0.99385625,-0.2183051,-37.76703,0.00060501695,-0.0001373291,0.2388544,-0.0002593994,-7.6293945e-05,2.7694702,0.0006456375,9.802673,0.23880005,-0.21774292,9.80131,-0.00010120869
-0.012386377,0.010900784,-15.817261,0.99385273,-0.21803883,-37.384033,0.00058209896,-9.1552734e-05,0.23908135,0.0,-1.5258789e-05,1.9805908,-3.9100647e-05,9.804108,0.23832703,-0.2172699,9.801311,-0.00057156384
-0.012378042,0.010877814,-14.814758,0.9938586,-0.21793775,-37.890625,0.00047579408,3.0517578e-05,0.2386048,-6.1035156e-05,-7.6293945e-05,2.7420044,0.00092983246,9.803879,0.23832703,-0.21487427,9.801324,-0.000578925
-0.012318517,0.010884588,-15.644836,0.99385583,-0.21675566,-38.11798,0.0026495308,0.00015258789,0.23861599,-0.00012207031,-1.5258789e-05,2.3025513,-2.002716e-05,9.804108,0.23951721,-0.21487427,9.801351,0.00012794137
-0.01230789,0.010893959,-15.882874,0.9938532,-0.21652259,-38.046265,0.00051246583,0.00015258789,0.23878108,6.1035156e-05,-0.0001373291,3.0975342,0.0002975464,9.800049,0.23928833,-0.21774292,9.801351,0.0009203553
-0.0123304175,0.010894914,-16.078186,0.99385333,-0.2169605,-37.875366,-0.0002861023,-3.0517578e-05,0.23884723,6.1035156e-05,4.5776367e-05,3.491211,-0.002831459,9.801712,0.2400055,-0.21655273,9.80134,0.00041547418
-0.0123082595,0.010925804,-15.567017,0.9938449,-0.21644394,-37.878418,0.0006302297,-3.0517578e-05,0.23941833,-6.1035156e-05,0.00016784668,2.3864746,-0.00012779236,9.801483,0.23808289,-0.2163086,9.801338,0.0007918477
-0.012300141,0.010902759,-16.35437,0.9938508,-0.21634737,-37.971497,-0.0004376918,9.1552734e-05,0.23894079,0.000289917,0.00016784668,2.59552,-0.00089263916,9.800522,0.23617554,-0.21798706,9.801352,-0.0010998398
-0.012302556,0.010823823,-15.829468,0.99387145,-0.21660718,-38.067627,-0.0006444901,-3.0517578e-05,0.23736824,0.00012207031,-7.6293945e-05,3.9031982,0.0016698837,9.800766,0.23951721,-0.21440125,9.801384,0.00022163987
-0.012259777,0.010866077,-15.704346,0.9938597,-0.21565703,-37.42981,0.0017532557,-9.1552734e-05,0.23812349,6.1035156e-05,-1.5258789e-05,3.6743164,-0.0008096695,9.800278,0.23832703,-0.2163086,9.801388,0.0013835728
-0.012255756,0.010864178,-15.724182,0.9938602,-0.21558352,-36.895752,0.00023409724,3.0517578e-05,0.23807712,0.0,-1.5258789e-05,3.4347534,-0.0010147095,9.802673,0.237854,-0.21702576,9.80139,-0.00046490133
-0.012302525,0.010844685,-14.686584,0.993866,-0.21655042,-38.07831,-0.0018995255,-9.1552734e-05,0.23778512,0.00018310547,-1.5258789e-05,2.4230957,0.0010843277,9.801712,0.23760986,-0.21655273,9.801374,-0.0006746501
-0.012305608,0.010858151,-16.204834,0.99386257,-0.21657446,-37.042236,0.0002681464,-0.00032043457,0.23806068,0.0,-7.6293945e-05,2.7694702,-0.0007047653,9.800522,0.23783875,-0.21702576,9.801368,1.9714236e-05
-0.012313493,0.0108786905,-14.500427,0.9938573,-0.2166733,-37.84027,0.00011590123,-3.0517578e-05,0.23848765,0.00024414062,-0.0001373291,3.0776978,-0.0006227493,9.801483,0.23928833,-0.2163086,9.801355,-0.00015549362
-0.012325324,0.01088402,-16.282654,0.99385613,-0.21689028,-38.55896,9.660423e-05,-9.1552734e-05,0.23861884,6.1035156e-05,-7.6293945e-05,2.5115967,0.00070858,9.803146,0.23857117,-0.21534729,9.801347,0.00017768145
-0.012301145,0.010894713,-16.200256,0.9938529,-0.2163887,-38.215637,0.0012854189,0.00015258789,0.2387821,6.1035156e-05,4.5776367e-05,3.804016,0.0011062622,9.800995,0.23857117,-0.21606445,9.801354,0.00024540722
-0.012296372,0.010889671,-15.7699585,0.99385417,-0.21630895,-38.230896,-0.00023637712,-9.1552734e-05,0.23867135,0.00012207031,0.00010681152,2.619934,-0.0006990433,9.803146,0.23736572,-0.21751404,9.801358,-0.00035248697
-0.012309347,0.010859808,-15.812683,0.9938622,-0.21664312,-39.00757,-0.0006122738,-3.0517578e-05,0.23810162,0.0,-0.00019836426,2.9296875,0.00065231323,9.803879,0.23832703,-0.21870422,9.801366,-0.0009959638
-0.01236148,0.010866837,-15.771484,0.9938612,-0.21764351,-38.604736,-0.0015032142,-9.1552734e-05,0.23835085,0.00012207031,0.00010681152,2.5344849,0.0013961792,9.8029175,0.23760986,-0.21702576,9.801337,0.0004157722
-0.012335245,0.010866251,-16.671753,0.9938609,-0.21713214,-38.020325,0.00038403273,-0.0001373291,0.23828441,0.0,4.5776367e-05,2.1774292,0.00029850006,9.801727,0.23832703,-0.21487427,9.801351,-0.0004671663
-0.012287449,0.010876921,-15.740967,0.9938574,-0.21616884,-38.572693,0.0020291358,-9.1552734e-05,0.2383979,0.00016784668,-1.5258789e-05,1.8936157,-0.0013914108,9.8029175,0.23857117,-0.2131958,9.801368,-0.0005631
-0.012254357,0.0108837895,-15.953064,0.993855,-0.21550333,-37.686157,0.0013775826,-9.1552734e-05,0.23846613,0.00035095215,-1.5258789e-05,3.1784058,0.0012998581,9.801727,0.23976135,-0.21774292,9.801382,0.00029921532
-0.012280309,0.010900377,-15.988159,0.9938511,-0.21596599,-37.298584,-0.000812307,-3.0517578e-05,0.23885176,6.1035156e-05,4.5776367e-05,2.696228,-0.0011949539,9.802673,0.23976135,-0.21487427,9.801361,0.00041601062
-0.012257551,0.010927119,-15.664673,0.99384373,-0.2154489,-38.604736,0.0008460134,0.00015258789,0.23933867,6.1035156e-05,-7.6293945e-05,3.022766,0.00078964233,9.801239,0.237854,-0.21606445,9.801362,0.00088070333
-0.012270971,0.010879341,-16.371155,0.99385643,-0.21584015,-37.81433,-0.00045488775,3.0517578e-05,0.23841189,0.00030517578,4.5776367e-05,2.3513794,-0.0012254715,9.8033905,0.23808289,-0.21678162,9.801375,-0.0012900233
-0.012286422,0.010900583,-15.911865,0.9938512,-0.21608499,-37.809753,-0.0009112507,-9.1552734e-05,0.23886867,0.00018310547,0.00016784668,2.6947021,0.0014104843,9.802673,0.23736572,-0.21655273,9.801359,0.0006159246
-0.012282217,0.010861834,-15.965271,0.9938612,-0.21610719,-38.960266,-0.00042527914,-0.00019836426,0.23808548,0.0,-1.5258789e-05,2.8442383,-0.0008134842,9.800766,0.23832703,-0.21583557,9.801377,-0.0014592409
-0.012282341,0.0108867185,-15.400696,0.9938547,-0.21604256,-38.458252,0.00021605194,3.0517578e-05,0.23858306,0.00012207031,4.5776367e-05,2.632141,-0.0010118484,9.8022,0.23880005,-0.21749878,9.801367,-2.1904707e-05
-0.012318617,0.0108755175,-15.931702,0.9938582,-0.21678203,-39.95056,-0.001656726,-9.1552734e-05,0.23843491,0.00018310547,-1.5258789e-05,3.239441,0.0010728836,9.803162,0.23641968,-0.21702576,9.801353,-0.00013132393
-0.012295904,0.010853388,-15.924072,0.99386364,-0.21639752,-38.33008,0.00082945824,9.1552734e-05,0.23794523,-0.00018310547,-7.6293945e-05,2.4490356,0.00024032593,9.803879,0.23760986,-0.21536255,9.8013735,-0.0013223886
-0.012290349,0.010853869,-15.538025,0.9938634,-0.21628766,-38.191223,0.00048428774,0.00015258789,0.23794329,0.00024414062,-7.6293945e-05,2.7893066,0.0007982254,9.802444,0.23713684,-0.2172699,9.801377,0.00059244037
-0.01230116,0.010863016,-15.679932,0.9938612,-0.21647438,-38.223267,0.0009163469,-9.1552734e-05,0.23814864,-0.0002593994,0.00010681152,2.8640747,0.00051116943,9.805069,0.23976135,-0.21751404,9.801368,0.0015759766
-0.012333739,0.010887591,-15.582275,0.9938553,-0.21704517,-38.893127,-0.0011393279,0.00015258789,0.23870777,-6.1035156e-05,0.00010681152,3.1036377,0.0011453629,9.801956,0.24072266,-0.21679688,9.801341,0.0010022223
-0.012307741,0.010898001,-16.365051,0.9938522,-0.21650879,-37.96692,0.00023241341,3.0517578e-05,0.23886156,0.00012207031,4.5776367e-05,2.432251,-0.0013246536,9.801956,0.23857117,-0.2172699,9.80135,0.0011083782
-0.012332732,0.010918535,-15.879822,0.99384725,-0.21694206,-38.00354,-0.0007880181,-9.1552734e-05,0.23932417,6.1035156e-05,4.5776367e-05,2.0523071,-0.00039863586,9.801956,0.237854,-0.21846008,9.80133,0.00016205013
-0.012355598,0.010892581,-15.461731,0.9938544,-0.21745913,-37.876892,-0.0012110472,3.0517578e-05,0.23885314,-1.5258789e-05,0.000289917,2.8747559,0.0005273819,9.8022,0.23904419,-0.2182312,9.801329,-0.0010365397
-0.012327464,0.010881274,-15.478516,0.99385685,-0.21693951,-37.223816,-6.625056e-05,-3.0517578e-05,0.23856843,-0.0002593994,4.5776367e-05,1.5914917,-0.0012559891,9.803879,0.23736572,-0.21679688,9.801347,-0.00026337802
-0.012330455,0.010862191,-16.40625,0.9938619,-0.21704939,-38.746643,-0.00043269992,3.0517578e-05,0.23819326,-1.5258789e-05,0.00010681152,2.8274536,0.0010824203,9.801239,0.23951721,-0.21702576,9.801353,-0.0006184429
-0.012330423,0.010886233,-15.441895,0.99385566,-0.21698399,-37.765503,-0.00026340783,3.0517578e-05,0.23867372,0.0,0.00010681152,2.0736694,-0.0008773804,9.805069,0.23880005,-0.21702576,9.801343,0.0008187443
-0.012318315,0.010882405,-16.313171,0.99385643,-0.21675758,-38.24768,0.00024372339,-3.0517578e-05,0.23857194,6.1035156e-05,4.5776367e-05,2.1102905,0.0014858246,9.802673,0.237854,-0.21606445,9.801352,0.00018529594
-0.012313939,0.01087171,-16.099548,0.9938592,-0.21670084,-37.898254,-5.5253506e-05,3.0517578e-05,0.23834907,6.1035156e-05,-1.5258789e-05,2.0446777,0.00018787384,9.802673,0.23951721,-0.21702576,9.801358,-0.0007840544
-0.012312981,0.010880941,-15.666199,0.9938567,-0.21665724,-37.882996,-8.5532665e-05,3.0517578e-05,0.23853154,6.1035156e-05,0.00010681152,1.9821167,-0.00019454956,9.805313,0.237854,-0.21702576,9.801354,0.00071401894
-0.012300801,0.01086709,-16.82434,0.9938601,-0.21645643,-38.272095,-3.97861e-05,-9.1552734e-05,0.23822932,0.00012207031,-1.5258789e-05,2.0874023,0.001616478,9.805542,0.23808289,-0.21678162,9.801367,-0.000437513
-0.01231677,0.010882284,-16.635132,0.99385643,-0.2167277,-38.18512,-0.00023815036,3.0517578e-05,0.2385663,0.00030517578,-1.5258789e-05,2.7404785,0.00029087067,9.800766,0.23857117,-0.2163086,9.8013525,0.00016781688
-0.012314402,0.010876281,-16.171265,0.993858,-0.21669756,-37.312317,0.00018385053,-3.0517578e-05,0.23844138,0.00018310547,4.5776367e-05,2.1255493,-0.0018815994,9.801483,0.23928833,-0.2182312,9.801355,-0.00015728176
-0.012325232,0.010905717,-16.737366,0.99385047,-0.21682999,-37.81433,-0.00041094422,-9.1552734e-05,0.2390523,0.00018310547,-7.6293945e-05,2.3361206,-0.0009355545,9.802429,0.23928833,-0.21894836,9.801338,0.00067712367
-0.012380659,0.010893218,-15.406799,0.99385464,-0.21794741,-39.056396,-0.0019207746,-9.1552734e-05,0.23891819,0.00018310547,-7.6293945e-05,2.4642944,-0.00029468536,9.804108,0.23880005,-0.21894836,9.801316,-0.00037574768
-0.0123849185,0.010891327,-15.652466,0.9938552,-0.2180358,-38.565063,9.223819e-05,-0.00019836426,0.23888926,0.00010681152,4.5776367e-05,2.1377563,0.0015544891,9.802673,0.23904419,-0.21894836,9.801315,0.00010727346
-0.012415441,0.010906849,-15.158081,0.9938516,-0.21859074,-37.854004,-0.00126414,-3.0517578e-05,0.23926324,0.00018310547,-1.5258789e-05,2.003479,-0.00039291382,9.8022,0.23951721,-0.21702576,9.801293,-1.8194318e-05
-0.012373435,0.010905061,-15.8203125,0.9938514,-0.21777426,-37.00714,0.0014946759,9.1552734e-05,0.23913983,0.0,-1.5258789e-05,1.9836426,-0.00089359283,9.8022,0.2368927,-0.21798706,9.801315,-0.00037163496
-0.012373391,0.010873379,-15.689087,0.9938597,-0.21785878,-36.97052,0.00013794005,-0.0001373291,0.23850647,0.0,-1.5258789e-05,1.7471313,-0.0005941391,9.799088,0.23736572,-0.21607971,9.801329,-0.0011648983
-0.012363987,0.010865134,-15.914917,0.9938617,-0.21769711,-38.710022,0.00042690337,3.0517578e-05,0.23832203,0.0,-0.0001373291,2.5268555,-0.0019903183,9.805313,0.2400055,-0.21917725,9.801336,-0.00071182847
-0.012379476,0.010887905,-15.6311035,0.993856,-0.2179386,-37.747192,-1.7181039e-05,9.1552734e-05,0.23880951,6.1035156e-05,4.5776367e-05,2.5482178,0.0028162003,9.805069,0.23808289,-0.21679688,9.801319,0.0011617094
-0.012369197,0.010869042,-15.864563,0.9938607,-0.21778846,-38.612366,-0.00014670193,-9.1552734e-05,0.23841102,0.0,0.00010681152,2.2079468,0.00187397,9.803635,0.23976135,-0.21751404,9.801332,-0.0006290972
-0.012356846,0.010901929,-15.814209,0.99385196,-0.21749523,-37.911987,-0.00045354664,3.0517578e-05,0.23931582,0.00018310547,4.5776367e-05,1.9744873,-0.001086235,9.805313,0.23976135,-0.21679688,9.801317,0.0008764267
-0.012354938,0.010906904,-16.644287,0.99385065,-0.21740761,-37.58087,-4.079938e-05,0.00015258789,0.23913804,6.1035156e-05,4.5776367e-05,2.6641846,0.002465248,9.804108,0.23928833,-0.21655273,9.801323,7.811189e-05
-0.0123506095,0.0109190205,-16.436768,0.99384737,-0.2172903,-38.809204,0.0005507916,-9.1552734e-05,0.23937118,0.00018310547,-0.0001373291,2.3406982,-0.0007457733,9.803635,0.23928833,-0.21702576,9.80132,0.0005711168
-0.012336714,0.010935828,-15.130615,0.9938428,-0.21697323,-37.638855,0.00071804225,-9.1552734e-05,0.23967808,0.00012207031,4.5776367e-05,2.407837,-0.0003414154,9.804108,0.2400055,-0.21487427,9.801319,0.00026841462
-0.0123159075,0.010923976,-15.434265,0.9938455,-0.21659839,-37.96234,0.0010626018,9.1552734e-05,0.23939773,0.00024414062,-1.5258789e-05,3.277588,0.00025558472,9.801483,0.23617554,-0.21798706,9.801334,-0.0008880496
-0.0123368865,0.010866338,-16.026306,0.9938609,-0.217164,-38.378906,-0.0005463064,3.0517578e-05,0.23828958,0.0,-0.00019836426,3.086853,-0.0020561218,9.8029175,0.24072266,-0.21846008,9.80135,-0.0019057095
-0.012368403,0.010904414,-16.584778,0.9938515,-0.2176776,-38.19275,-0.0009854734,3.0517578e-05,0.23911637,6.1035156e-05,4.5776367e-05,1.2939453,0.0006933212,9.8033905,0.23641968,-0.21678162,9.801317,0.0017899573
-0.012347325,0.010861682,-15.705872,0.99386233,-0.21738061,-37.956238,0.0006429255,0.00010681152,0.23821826,-0.00016784668,0.00010681152,3.5873413,0.0003080368,9.805313,0.23760986,-0.21749878,9.801346,-0.0016178489
-0.012329969,0.010841344,-15.733337,0.99386734,-0.21709605,-40.12451,0.00012329221,4.5776367e-05,0.2377756,-0.00010681152,-7.6293945e-05,2.9251099,0.0008401871,9.802673,0.23808289,-0.2172699,9.801364,-0.00046791136
-0.012328623,0.010839636,-16.557312,0.99386775,-0.21707429,-41.027832,0.00033588707,0.00016784668,0.23773862,-4.5776367e-05,-1.5258789e-05,2.482605,-0.00088596344,9.802429,0.23928833,-0.21702576,9.801364,0.00029693544
-0.012347959,0.0108638285,-15.159607,0.9938618,-0.21738724,-41.175842,-0.00031669438,4.5776367e-05,0.2382625,-0.00010681152,-0.0001373291,3.7490845,-0.00042915344,9.805069,0.24072266,-0.21606445,9.801345,0.0014561266
-0.0123159485,0.010888007,-16.317749,0.99385494,-0.2166962,-41.368103,0.001402244,0.00016784668,0.23867895,-4.5776367e-05,4.5776367e-05,2.7297974,0.0013074875,9.8033905,0.23904419,-0.2163086,9.80135,0.0012678355
-0.01231967,0.01087369,-16.506958,0.99385875,-0.21680756,-41.874695,-0.00016398728,-7.6293945e-05,0.2384006,0.0001373291,4.5776367e-05,3.1219482,7.343292e-05,9.8029175,0.23880005,-0.21679688,9.801354,9.571016e-05
-0.012344526,0.010901135,-15.9210205,0.99385196,-0.21721958,-40.631104,-0.0007264018,-1.5258789e-05,0.239001,1.5258789e-05,-7.6293945e-05,3.3157349,-0.0012283325,9.801712,0.23832703,-0.21798706,9.801331,0.00071515143
-0.012331807,0.010888124,-16.134644,0.9938552,-0.21700598,-38.67798,0.0002579391,0.00010681152,0.23871443,-0.00010681152,0.00010681152,2.5177002,-0.00065898895,9.804596,0.24023438,-0.2172699,9.801343,-0.00042432547
-0.012323141,0.010913877,-16.508484,0.99384826,-0.21676709,-39.62097,-0.00045087934,-0.00012207031,0.23921102,-4.5776367e-05,0.00010681152,3.3798218,0.0016298294,9.8029175,0.23713684,-0.21679688,9.801335,0.0009660572
-0.012323229,0.010875754,-16.395569,0.9938582,-0.21687157,-40.255737,0.000115305185,0.00010681152,0.23844926,0.0,-1.5258789e-05,2.8152466,-0.0009860992,9.803879,0.23808289,-0.21655273,9.801352,-0.0016012043
-0.012304763,0.010871689,-15.310669,0.993859,-0.21652149,-38.601685,0.0005040914,-0.00018310547,0.23832949,7.6293945e-05,-1.5258789e-05,2.8762817,0.00061511993,9.802673,0.23904419,-0.21607971,9.801362,-0.0005272776
-0.012309417,0.010899048,-15.368652,0.99385196,-0.21653874,-38.320923,3.257394e-05,4.5776367e-05,0.238886,-4.5776367e-05,0.00010681152,3.1173706,-6.580353e-05,9.804108,0.23880005,-0.21870422,9.801349,0.0008239895
-0.012323427,0.01088037,-15.937805,0.993857,-0.21686304,-38.44452,-0.0010724813,4.5776367e-05,0.23854196,-4.5776367e-05,0.00010681152,3.3325195,0.00042819977,9.8033905,0.23857117,-0.21798706,9.801351,-0.00027163327
-0.012357905,0.010897441,-15.296936,0.99385315,-0.21749114,-38.230896,-0.0014141798,-0.00018310547,0.2389551,7.6293945e-05,-7.6293945e-05,3.1219482,-0.00082206726,9.8033905,0.23953247,-0.21798706,9.801326,0.0005148053
-0.012361361,0.010889428,-15.44342,0.9938553,-0.21758033,-39.012146,0.00011192262,-7.6293945e-05,0.23880218,-0.00010681152,-7.6293945e-05,3.0288696,0.00025081635,9.805069,0.23832703,-0.21583557,9.801329,-0.00076939166
-0.012325373,0.010905056,-16.011047,0.99385065,-0.2168345,-37.963867,0.0017683804,4.5776367e-05,0.23903939,0.0001373291,-1.5258789e-05,2.2872925,0.0006494522,9.803879,0.23808289,-0.21798706,9.801338,0.0001912713
-0.012362029,0.010880998,-15.171814,0.9938575,-0.21761611,-38.91449,-0.0017459989,-0.00012207031,0.23863508,-0.00010681152,-1.5258789e-05,3.8452148,0.0005950928,9.804108,0.23904419,-0.21606445,9.8013315,-0.00084608793
-0.012348266,0.010907024,-15.298462,0.99385047,-0.21727684,-38.983154,-0.0013585538,0.00010681152,0.23912653,-0.00022888184,-1.5258789e-05,3.036499,0.00063705444,9.804352,0.23904419,-0.21702576,9.801327,8.6039305e-05
-0.012327547,0.010908138,-16.534424,0.9938499,-0.2168687,-38.513184,0.0010975748,-0.00012207031,0.23910551,0.0,0.00016784668,2.0202637,-0.00037002563,9.800522,0.23881531,-0.21655273,9.801335,0.00034064054
-0.01232821,0.010910982,-15.515137,0.9938491,-0.21687402,-38.606262,-0.0008300841,4.5776367e-05,0.23916376,7.6293945e-05,4.5776367e-05,1.9805908,-0.002322197,9.803146,0.23760986,-0.21870422,9.801334,-0.0006353855
-0.012329896,0.01087268,-15.254211,0.9938592,-0.21701021,-36.25183,-0.00068826973,0.00010681152,0.23840174,0.00019836426,0.00010681152,2.897644,0.0005226135,9.804108,0.23760986,-0.21917725,9.80135,-0.001328975
-0.012376231,0.010846664,-15.112305,0.9938667,-0.21798624,-38.098145,-0.0021069795,-0.00012207031,0.23797838,0.00024414062,-1.5258789e-05,2.6489258,1.4305115e-05,9.804108,0.24072266,-0.21846008,9.801338,5.502999e-05
-0.012396313,0.010904275,-15.322876,0.993852,-0.21822369,-38.520813,-0.00018139184,-1.5258789e-05,0.23917186,0.0001373291,-1.5258789e-05,2.7160645,0.0008211136,9.805313,0.23664856,-0.21989441,9.801304,0.0017193854
-0.012414427,0.010859586,-15.924072,0.99386394,-0.21869825,-38.00049,-0.001131624,4.5776367e-05,0.2383163,7.6293945e-05,-1.5258789e-05,3.578186,0.0008621216,9.803162,0.23857117,-0.2172699,9.801313,-0.0017380714
-0.012389824,0.010858344,-15.740967,0.9938639,-0.21822055,-39.068604,0.0012564957,4.5776367e-05,0.23824017,1.5258789e-05,4.5776367e-05,2.9342651,-0.00021839142,9.804596,0.23904419,-0.2172699,9.801326,1.950562e-05
-0.0123724,0.0108776465,-15.644836,0.9938586,-0.21782792,-38.38501,0.00038558245,4.5776367e-05,0.2385897,-0.00022888184,4.5776367e-05,3.3462524,-0.00047588348,9.800522,0.23976135,-0.21655273,9.801328,0.00086569786
-0.012329673,0.010895015,-15.611267,0.99385333,-0.21694566,-37.22992,0.0011449754,4.5776367e-05,0.23884767,-4.5776367e-05,0.00016784668,2.8747559,-0.0019207001,9.8022,0.23880005,-0.21679688,9.80134,0.0006311536
-0.01234047,0.010898133,-14.927673,0.9938527,-0.2171484,-38.534546,-0.00033938885,0.00010681152,0.23893255,-4.5776367e-05,4.5776367e-05,3.1341553,-0.0007915497,9.803162,0.237854,-0.21846008,9.801334,8.276105e-05
-0.01235746,0.01085834,-16.064453,0.99386334,-0.2175878,-37.76245,-0.0010784268,4.5776367e-05,0.23817264,0.00030517578,-0.0001373291,2.609253,0.0010528564,9.803879,0.23832703,-0.2172699,9.801343,-0.0008485019
-0.012342421,0.010874206,-15.724182,0.993859,-0.21725102,-37.9776,0.0012250394,0.0,0.23845838,-0.00016784668,4.5776367e-05,2.2201538,6.771088e-05,9.8022,0.23832703,-0.21559143,9.801343,0.00029945374
-0.01232167,0.010866795,-15.675354,0.99386054,-0.21686523,-38.027954,0.0005917996,0.00010681152,0.23826694,1.5258789e-05,0.00010681152,1.8173218,-0.00027275085,9.804825,0.23880005,-0.21655273,9.801356,-0.00022271276
-0.012313876,0.010880248,-15.058899,0.9938569,-0.21667662,-38.223267,-5.7518482e-05,-0.00024414062,0.23851958,0.00019836426,-1.5258789e-05,2.3269653,0.0010938644,9.802444,0.24095154,-0.21606445,9.801355,0.00094537437
-0.012298334,0.010925584,-15.440369,0.9938448,-0.21625045,-38.41095,0.00069876015,4.5776367e-05,0.23939314,-0.00010681152,4.5776367e-05,3.112793,-0.0006990433,9.8029175,0.23617554,-0.21655273,9.801342,0.000797227
-0.012295587,0.010865125,-15.188599,0.99386054,-0.21635975,-37.358093,-0.00040133297,-1.5258789e-05,0.23817916,-0.00016784668,4.5776367e-05,2.6504517,-0.00031757355,9.800766,0.23713684,-0.21606445,9.80137,-0.0020430237
-0.012273591,0.010849864,-15.869141,0.9938642,-0.21597078,-38.008118,0.00040012598,-0.00012207031,0.23782831,0.00018310547,4.5776367e-05,2.2125244,-0.0013198853,9.805313,0.23736572,-0.21583557,9.801388,-0.0012026131
-0.012284227,0.010856536,-15.428162,0.9938626,-0.21616076,-38.79242,-0.000112101436,0.00010681152,0.23798382,-0.00016784668,-1.5258789e-05,3.2714844,0.0013523102,9.8022,0.23904419,-0.21511841,9.801379,5.9708953e-05
-0.012267406,0.010864177,-15.5303955,0.99386036,-0.21581128,-38.075256,0.0007349998,-0.00012207031,0.2381014,-0.00010681152,0.00010681152,1.8234253,0.000582695,9.804596,0.23545837,-0.21702576,9.801383,0.0006521791
-0.01226375,0.0108353095,-15.040588,0.9938678,-0.21581751,-37.705994,-0.00091803074,-7.6293945e-05,0.23751688,-0.00010681152,0.00010681152,2.6550293,0.00038814545,9.8029175,0.2368927,-0.21655273,9.801397,-0.0018803477
-0.012271181,0.01082864,-15.470886,0.9938697,-0.21598075,-38.09967,-0.00028419495,-0.00012207031,0.23739912,-0.00016784668,-1.5258789e-05,2.7114868,-0.00021648407,9.8033905,0.23857117,-0.21487427,9.801397,-0.0005543977
-0.012263724,0.010849203,-16.131592,0.9938642,-0.2157796,-37.854004,0.00023032725,0.00010681152,0.23779449,1.5258789e-05,0.00016784668,2.6855469,-0.0001449585,9.8022,0.23953247,-0.21655273,9.801392,0.0007302165
-0.012265821,0.010882402,-15.652466,0.9938556,-0.21591786,-38.75885,-0.00034718215,0.00016784668,0.23826304,-0.00022888184,-0.0001373291,3.1829834,0.0005245209,9.802444,0.23857117,-0.21894836,9.801377,-0.00070121884
-0.012309902,0.01087756,-16.307068,0.99385756,-0.21660614,-38.323975,-0.0010958612,-1.5258789e-05,0.23845755,-4.5776367e-05,4.5776367e-05,2.191162,-0.00029087067,9.804596,0.23736572,-0.21463013,9.801357,0.0005416125
-0.012295173,0.010865504,-15.576172,0.9938605,-0.21635062,-38.175964,0.0005553514,0.00010681152,0.23818587,-0.00016784668,-7.6293945e-05,2.2247314,-3.4332275e-05,9.800522,0.23951721,-0.2163086,9.80137,-0.00014735758
-0.012289701,0.010885629,-16.14685,0.9938551,-0.2161894,-38.072205,0.00062572956,-0.00030517578,0.23857664,-0.00036621094,4.5776367e-05,2.4429321,-0.0011396408,9.800995,0.237854,-0.21798706,9.801363,0.0006810427
-0.0123303,0.010889541,-16.174316,0.99385476,-0.21697268,-38.36212,-0.001964748,-1.5258789e-05,0.23873958,-0.00022888184,4.5776367e-05,1.9561768,-0.0015592575,9.8022,0.23951721,-0.21702576,9.801342,-0.0006687492
-0.012319879,0.010896673,-15.492249,0.99385273,-0.21674968,-38.090515,0.0004581511,4.5776367e-05,0.23886037,-0.00016784668,-7.6293945e-05,2.3880005,0.0005578995,9.805542,0.23832703,-0.21846008,9.801344,0.00016503036
-0.0123372,0.010877164,-14.720154,0.9938581,-0.21714094,-37.23755,-0.0005541444,0.00010681152,0.23850659,-0.00010681152,0.00016784668,2.027893,0.0027713776,9.804596,0.24072266,-0.2163086,9.801344,-0.00023208559
-0.012322762,0.010900302,-15.167236,0.99385184,-0.21679631,-38.1958,-0.00043165684,0.00016784668,0.23893893,-0.00024414062,0.000289917,2.885437,-0.0005645752,9.8022,0.23904419,-0.21559143,9.801342,0.0012492388
-0.0122853955,0.010891015,-14.891052,0.9938536,-0.21609071,-38.20343,0.0005350411,4.5776367e-05,0.23867528,-0.00010681152,4.5776367e-05,2.658081,-0.00054073334,9.803162,0.23783875,-0.21511841,9.801363,8.5264444e-05
-0.012261617,0.010899686,-15.298462,0.993851,-0.21560241,-37.509155,0.0005296171,0.00010681152,0.23879895,-0.00022888184,4.5776367e-05,2.0828247,0.0009069443,9.8033905,0.23857117,-0.2172699,9.801372,0.0004388839
-0.012292234,0.010885455,-15.226746,0.9938552,-0.21623942,-38.845825,-0.0009902269,-0.00012207031,0.23857847,1.5258789e-05,-1.5258789e-05,1.9134521,-0.00051403046,9.803635,0.23904419,-0.21774292,9.801363,-0.00029584765
-0.012315458,0.010869356,-15.856934,0.99385977,-0.21673687,-38.24005,-0.00095531344,-0.00012207031,0.23830518,-0.00010681152,-1.5258789e-05,2.3712158,0.0009431839,9.805069,0.23617554,-0.21678162,9.801358,-0.0009952337
-0.0123117305,0.010868517,-15.3289795,0.99385995,-0.21666627,-37.69226,0.00017274916,4.5776367e-05,0.23828065,1.5258789e-05,0.00016784668,2.722168,0.00078582764,9.802673,0.23855591,-0.21751404,9.801361,-0.0005070269
-0.012306136,0.010862858,-16.819763,0.9938613,-0.2165721,-39.027405,-0.000655517,-7.6293945e-05,0.23815586,-0.00010681152,-1.5258789e-05,2.0828247,-0.0015506744,9.805069,0.23904419,-0.21583557,9.801365,0.00012469292
-0.012300276,0.01088932,-15.252686,0.99385434,-0.21638624,-38.056946,0.0003708154,0.00010681152,0.2386725,-0.00022888184,-1.5258789e-05,2.722168,0.0019903183,9.804352,0.24143982,-0.21751404,9.801357,0.0007738024
-0.012321993,0.010909513,-15.660095,0.9938494,-0.21675639,-38.63678,-0.0004515648,4.5776367e-05,0.23912138,1.5258789e-05,-7.6293945e-05,1.9744873,-0.0002593994,9.803879,0.23857117,-0.21487427,9.801337,0.0010599345
-0.0122974,0.010902976,-16.088867,0.9938507,-0.21629319,-38.72986,0.0012307316,4.5776367e-05,0.2389394,0.0001373291,-0.0001373291,2.116394,-0.000497818,9.802444,0.23760986,-0.21798706,9.8013525,-0.00020115077
-0.012335309,0.010873704,-15.708923,0.993859,-0.2171133,-38.586426,-0.0010758787,4.5776367e-05,0.23843351,-0.00016784668,-1.5258789e-05,2.3757935,-0.0012874603,9.805313,0.23880005,-0.21870422,9.801347,-0.00062564015
-0.012358873,0.010856783,-15.699768,0.99386376,-0.21761963,-37.687683,-0.001018241,0.00010681152,0.23814446,-0.00016784668,-7.6293945e-05,2.6260376,0.0021715164,9.804352,0.23832703,-0.21774292,9.801343,-0.0003630668
-0.0123461215,0.010868826,-16.018677,0.9938604,-0.21733786,-38.937378,0.0006109178,-0.00012207031,0.23835857,1.5258789e-05,4.5776367e-05,2.0385742,0.0003271103,9.803162,0.23951721,-0.21702576,9.801344,0.00060892105
-0.012350489,0.010902917,-15.304565,0.9938516,-0.21733136,-37.509155,-0.00035834312,-7.6293945e-05,0.23904906,-4.5776367e-05,0.00016784668,2.0004272,-0.0015268326,9.804596,0.23880005,-0.21606445,9.801327,0.00040960312
-0.012323929,0.01090149,-14.959717,0.99385154,-0.21681589,-37.997437,0.00081418455,0.00016784668,0.2389651,-0.00016784668,-1.5258789e-05,2.7359009,0.0008916855,9.8033905,0.23928833,-0.2163086,9.80134,9.9390745e-06
-0.012315515,0.010900425,-15.605164,0.99385166,-0.21665426,-38.2843,0.00015503168,0.00010681152,0.23892625,7.6293945e-05,-1.5258789e-05,2.8656006,-0.00084781647,9.803879,0.24047852,-0.21440125,9.801345,0.0007761121
-0.012268325,0.010923037,-15.254211,0.993845,-0.21567057,-37.72278,0.0022826344,-6.1035156e-05,0.23927957,0.00019836426,-1.5258789e-05,3.8513184,-8.678436e-05,9.804108,0.23951721,-0.21751404,9.801357,0.0008971095
-0.01231373,0.010937329,-15.512085,0.993842,-0.21651977,-38.049316,-0.0016487539,-0.00018310547,0.23966007,0.00024414062,-1.5258789e-05,3.1936646,0.0009012222,9.805786,0.24072266,-0.21583557,9.80133,0.00050492585
-0.012308693,0.010953965,-16.407776,0.99383754,-0.21637636,-38.520813,-0.00011232495,-0.00018310547,0.23998202,7.6293945e-05,0.00016784668,2.8289795,0.00012493134,9.802673,0.23832703,-0.2191925,9.801326,-4.7579408e-05
-0.012337147,0.010930084,-15.206909,0.9938443,-0.21699719,-38.40332,-0.0014030486,-1.5258789e-05,0.23956417,-0.00010681152,4.5776367e-05,2.2384644,-0.0003900528,9.805069,0.23857117,-0.21655273,9.801321,-0.0015473366
-0.0123184975,0.010911345,-15.811157,0.99384886,-0.2166831,-38.28888,0.0004363209,0.00010681152,0.23915069,0.0,0.00010681152,1.9729614,0.00021743774,9.801956,0.24023438,-0.2163086,9.801338,-0.0008918643
-0.012311421,0.010930618,-15.699768,0.99384373,-0.21649274,-38.1073,-0.00023761392,4.5776367e-05,0.23952112,-4.5776367e-05,0.00010681152,3.668213,-0.0009803772,9.804596,0.23951721,-0.21870422,9.801333,0.0009007007
-0.012330806,0.010916835,-15.731812,0.9938476,-0.21690898,-38.349915,-0.0012672842,4.5776367e-05,0.23928614,-4.5776367e-05,-1.5258789e-05,2.0568848,0.00029468536,9.805786,0.2400055,-0.21606445,9.801331,0.00017046928
-0.012325587,0.010928446,-15.242004,0.9938445,-0.21677561,-37.83264,0.00029423833,0.00016784668,0.23950733,0.00024414062,4.5776367e-05,2.885437,0.0014753342,9.802429,0.23951721,-0.21679688,9.801329,0.00089234114
-0.012324083,0.010909157,-15.620422,0.9938495,-0.21679823,-37.52594,5.8710575e-05,-1.5258789e-05,0.23911865,-0.00010681152,-1.5258789e-05,2.709961,-0.0012578964,9.806259,0.23951721,-0.21751404,9.801337,-0.00038187206
-0.012330774,0.010872898,-16.075134,0.9938591,-0.21702681,-37.68158,0.0005375892,-1.5258789e-05,0.23840794,1.5258789e-05,-0.0001373291,2.4490356,-0.00033855438,9.80603,0.23832703,-0.2182312,9.80135,-0.002302155
-0.012340856,0.01089344,-15.830994,0.9938539,-0.21716855,-37.002563,-0.0004952848,-1.5258789e-05,0.23883952,-0.00022888184,0.00016784668,1.8203735,0.00137043,9.804352,0.23808289,-0.21678162,9.801335,0.00083486736
-0.012329144,0.010858135,-15.527344,0.9938629,-0.2170347,-38.04474,8.529425e-05,0.00010681152,0.23810947,1.5258789e-05,-7.6293945e-05,2.949524,-0.000207901,9.807938,0.23976135,-0.21391296,9.801356,-0.0013005286
-0.012280031,0.01089775,-14.723206,0.9938518,-0.21596767,-37.2818,0.0021483302,0.00010681152,0.2387987,-4.5776367e-05,-1.5258789e-05,3.0715942,0.0016078949,9.80484,0.23904419,-0.21440125,9.801363,0.0018204451
-0.012238058,0.010878207,-15.312195,0.9938562,-0.21519966,-37.623596,0.0013720542,0.00010681152,0.23832051,-0.00010681152,4.5776367e-05,2.9632568,-0.0006837845,9.8033905,0.2368927,-0.2163086,9.801392,-0.00033216178
-0.012255776,0.010868781,-16.108704,0.99385893,-0.2155715,-39.29138,-0.0011382848,0.00016784668,0.23816916,-0.00016784668,4.5776367e-05,2.836609,-0.0012636185,9.803635,0.23951721,-0.21798706,9.801388,-0.00016564131
-0.012295051,0.010859512,-15.103149,0.99386203,-0.21636438,-38.327026,-0.0015504956,-1.5258789e-05,0.23806587,7.6293945e-05,-1.5258789e-05,2.7267456,-4.5776367e-05,9.8033905,0.23880005,-0.21655273,9.801373,0.000654757
-0.012305778,0.010878032,-15.498352,0.9938574,-0.21652426,-38.087463,-0.0002181977,-0.00012207031,0.23845841,-4.5776367e-05,0.00016784668,2.3086548,-0.0016231537,9.801956,0.23760986,-0.21702576,9.80136,0.00028170645
-0.012302506,0.010872874,-15.408325,0.99385864,-0.21647416,-36.653137,-0.00026851892,-7.6293945e-05,0.23834847,6.1035156e-05,-1.5258789e-05,2.7252197,-0.0013980865,9.800766,0.23928833,-0.21583557,9.801363,-0.000537321
-0.012300212,0.01089808,-16.230774,0.993852,-0.21636139,-38.082886,0.0003168732,0.00010681152,0.23884745,7.6293945e-05,0.00010681152,2.2781372,-0.0017347336,9.801727,0.2400055,-0.21678162,9.801354,0.0008919239
-0.012299385,0.010893784,-15.371704,0.99385315,-0.21635675,-38.427734,-0.0004018098,-7.6293945e-05,0.23875983,7.6293945e-05,4.5776367e-05,1.991272,0.00027370453,9.804596,0.23808289,-0.21846008,9.801354,1.4767051e-05
-0.012325536,0.010879619,-15.77301,0.99385726,-0.21690628,-39.205933,-0.0015196353,-0.00018310547,0.23853132,1.5258789e-05,4.5776367e-05,2.4505615,0.0009851456,9.803635,0.23736572,-0.2172699,9.801349,-0.0007148832
-0.012319193,0.010879475,-15.736389,0.9938572,-0.21678266,-40.61737,4.5835972e-05,0.00022888184,0.23851523,0.00012207031,4.5776367e-05,3.8864136,0.00097465515,9.804108,0.23880005,-0.2182312,9.8013525,-0.00048162043
-0.012336576,0.010882281,-16.358948,0.9938568,-0.21711498,-39.54773,-0.001067251,-7.6293945e-05,0.23860759,1.5258789e-05,0.00016784668,2.3422241,0.00032615662,9.803879,0.23904419,-0.21678162,9.801343,0.0008558184
-0.012331527,0.010882414,-15.550232,0.99385667,-0.21701588,-38.186646,-0.0004503727,0.00016784668,0.2385997,-0.00010681152,0.00022888184,2.6290894,-0.00011253357,9.8033905,0.237854,-0.21583557,9.801345,-8.106232e-05
-0.012297377,0.010869619,-15.757751,0.9938594,-0.21638264,-38.986206,0.0008429885,0.00010681152,0.23827271,1.5258789e-05,4.5776367e-05,2.6931763,0.00039482117,9.80603,0.24072266,-0.21463013,9.801367,-2.7120113e-06
-0.012263799,0.010905259,-15.985107,0.9938496,-0.21563004,-38.65204,0.001295656,4.5776367e-05,0.23891486,-0.00022888184,-1.5258789e-05,2.6062012,0.0013799667,9.804825,0.24023438,-0.21559143,9.801368,0.0014895946
-0.012271873,0.010914381,-15.774536,0.9938473,-0.2157633,-38.076782,-0.00024265051,0.00010681152,0.23911402,-0.00010681152,-7.6293945e-05,2.5375366,0.0006017685,9.805542,0.23904419,-0.21583557,9.80136,0.0008097142
-0.012255376,0.010907086,-15.936279,0.9938489,-0.21546043,-38.250732,0.0009011775,4.5776367e-05,0.23893379,1.5258789e-05,-7.6293945e-05,2.2888184,-0.00024318695,9.803635,0.23857117,-0.2163086,9.801372,0.0002759546
-0.012271688,0.010894981,-16.148376,0.9938524,-0.21581201,-37.69684,-0.00042380393,0.00010681152,0.23872596,-4.5776367e-05,-7.6293945e-05,2.445984,0.00016593933,9.803146,0.23857117,-0.21870422,9.801369,-0.00047944486
-0.012328385,0.010886702,-15.745544,0.9938555,-0.21694289,-38.31482,-0.0019447505,4.5776367e-05,0.23867881,-0.00022888184,-1.5258789e-05,2.9388428,-0.0011701584,9.805786,0.24072266,-0.2163086,9.801344,5.4433942e-05
-0.012315623,0.010909604,-15.339661,0.9938493,-0.21663162,-36.935425,0.0006404668,0.00010681152,0.23910992,0.00019836426,-7.6293945e-05,2.6489258,0.0011291504,9.80603,0.2416687,-0.21607971,9.801341,0.0012876987
-0.012311215,0.010948015,-15.208435,0.99383914,-0.21644175,-37.5,0.00021162629,-7.6293945e-05,0.23986837,0.0001373291,4.5776367e-05,2.3269653,0.00043296814,9.805542,0.23832703,-0.21678162,9.801327,0.0019575208
-0.012302554,0.010931817,-15.501404,0.99384326,-0.21631616,-37.709045,0.00032159686,-1.5258789e-05,0.23952657,0.00019836426,4.5776367e-05,2.3117065,-0.0013437271,9.805542,0.23880005,-0.21798706,9.801338,-0.0005597919
-0.01233363,0.010926176,-15.505981,0.9938452,-0.21693897,-38.459778,-0.0011937469,-0.00012207031,0.23947872,1.5258789e-05,-1.5258789e-05,2.1438599,0.0011739731,9.801712,0.23951721,-0.21583557,9.801325,-0.0005263984
-0.012315979,0.010928548,-15.330505,0.99384433,-0.21658748,-37.31537,0.00105232,4.5776367e-05,0.23948929,1.5258789e-05,-0.00019836426,2.7252197,-0.0023956299,9.807465,0.237854,-0.21606445,9.801333,-0.00050729513
-0.01231249,0.010884895,-15.472412,0.99385566,-0.21663699,-37.872314,0.00040009618,0.00010681152,0.23860955,0.0001373291,-1.5258789e-05,2.7130127,0.0014333725,9.8029175,0.24072266,-0.21606445,9.801353,-0.0010786504
-0.012299874,0.010921426,-15.1397705,0.99384594,-0.21629177,-36.026,0.00076685846,4.5776367e-05,0.23931329,-0.00016784668,-1.5258789e-05,3.5461426,-0.00047969818,9.8022,0.2400055,-0.21534729,9.801343,0.0015798956
-0.012288911,0.010926805,-15.919495,0.99384433,-0.21606293,-38.183594,0.00052554905,-7.6293945e-05,0.23939791,7.6293945e-05,-0.0001373291,2.531433,-0.001124382,9.803162,0.23713684,-0.21559143,9.801347,0.00030356646
-0.012278666,0.01090641,-15.951538,0.9938495,-0.21591762,-37.417603,0.0008445084,4.5776367e-05,0.23896891,7.6293945e-05,-7.6293945e-05,2.1331787,-0.0007429123,9.803162,0.24047852,-0.21678162,9.80136,-0.0011650175
-0.012312603,0.01092433,-15.022278,0.9938454,-0.21653284,-38.015747,-0.0009236783,0.00010681152,0.23939793,-0.00012207031,-1.5258789e-05,2.8930664,-0.00033187866,9.804352,0.23568726,-0.2172699,9.801336,0.0010338575
-0.012321403,0.010838081,-15.287781,0.99386805,-0.21693732,-37.590027,-0.0007610321,0.00010681152,0.2376925,7.6293945e-05,-1.5258789e-05,2.241516,0.00025177002,9.804825,0.23857117,-0.21846008,9.801369,-0.0027712435
-0.012341575,0.010861268,-15.70282,0.99386233,-0.21726932,-39.34021,-0.000647828,0.00012207031,0.23819803,0.00079345703,-0.00019836426,2.3727417,0.0022439957,9.812973,0.27468872,-0.23880005,9.80135,0.0010136515
-0.012441755,0.010952774,-15.498352,0.99384004,-0.21898133,-37.18567,-0.0027109832,-0.00030517578,0.24023627,-0.0009765625,0.0004119873,2.39563,0.0046806335,9.7821045,0.17730713,-0.18424988,9.801262,0.0048967004
-0.01203056,0.010654887,-15.327454,0.993911,-0.21174213,-37.423706,0.013115913,0.00035095215,0.2334263,0.0006713867,-0.00032043457,1.6784668,-0.012201309,9.825409,0.2818756,-0.22372437,9.801584,-0.013985291
-0.012567714,0.011184533,-16.183472,0.9937814,-0.22081576,-37.80365,-0.017395243,-0.00032043457,0.24513327,-0.00012207031,4.5776367e-05,3.0044556,0.011027336,9.789047,0.21057129,-0.22564697,9.801099,0.022499159
-0.01216298,0.010590012,-15.245056,0.99393004,-0.21450457,-37.532043,0.012752324,0.0004119873,0.23240529,0.0,4.5776367e-05,2.8884888,-0.012288094,9.813202,0.25842285,-0.20028687,9.801549,-0.023951843
-0.012283098,0.011219888,-16.282654,0.9937673,-0.21515436,-38.28888,-0.0015274137,-0.0004272461,0.24524222,6.1035156e-05,-7.6293945e-05,1.4709473,0.012718201,9.795746,0.22851562,-0.22898865,9.801222,0.024066284
-0.012406253,0.0106582,-15.41748,0.9939163,-0.21907891,-38.645935,-0.0072980523,0.00035095215,0.2342733,-6.1035156e-05,-0.0001373291,3.4332275,-0.011309624,9.807465,0.24287415,-0.21321106,9.801404,-0.020346612
-0.012212917,0.011111,-15.046692,0.9937948,-0.21407837,-38.453674,0.0098311305,-0.00074768066,0.2429193,0.00018310547,0.00016784668,2.4856567,0.010029793,9.801239,0.23808289,-0.2115326,9.801304,0.014918789
-0.012351482,0.010709881,-15.693665,0.99390197,-0.21786968,-38.591003,-0.0075415224,0.00048828125,0.23519264,-4.5776367e-05,-7.6293945e-05,2.619934,-0.009604454,9.799561,0.23857117,-0.22683716,9.801409,-0.014083743
-0.012363322,0.011096178,-15.861511,0.9938012,-0.21705946,-38.80768,0.0015352219,-0.0008087158,0.24293852,0.0,4.5776367e-05,3.3325195,0.006549835,9.808182,0.24263,-0.20889282,9.801238,0.012784615
-0.012263678,0.010770147,-15.364075,0.9938848,-0.21599124,-38.32245,0.0023146123,0.0005950928,0.23621447,0.0,-1.5258789e-05,3.1982422,-0.00507164,9.797653,0.23210144,-0.21942139,9.801425,-0.011292815
-0.012365221,0.01106778,-15.635681,0.9938087,-0.21717364,-39.172363,-0.002906546,-0.0005645752,0.24237494,-0.00018310547,0.000289917,2.2949219,0.004299164,9.808899,0.24957275,-0.21655273,9.8012495,0.009528324
-0.012241651,0.010827816,-14.961243,0.9938694,-0.2154056,-37.84485,0.0031842738,0.00047302246,0.23732106,-0.00018310547,-1.5258789e-05,2.7374268,-0.0024271011,9.797897,0.22612,-0.21391296,9.801412,-0.0076465607
-0.012345336,0.010972218,-15.507507,0.99383336,-0.21704353,-38.233948,-0.0035162717,-0.00044250488,0.24042341,6.1035156e-05,-1.5258789e-05,2.1453857,0.0019197464,9.811768,0.25100708,-0.22253418,9.8013,0.003827706
-0.012321511,0.010828404,-14.764404,0.99387056,-0.2169655,-37.641907,-6.198883e-06,0.00047302246,0.23749933,-0.00016784668,-7.6293945e-05,2.4246216,0.00029277802,9.796936,0.22587585,-0.21296692,9.8013735,-0.0035344511
-0.012316991,0.010867849,-15.345764,0.9938602,-0.21626243,-37.805176,-0.00069855154,-0.00044250488,0.23896453,7.6293945e-05,4.5776367e-05,3.5232544,-0.00092983246,9.797165,0.22515869,-0.21774292,9.8013525,0.0002438724
-0.0123106735,0.010846072,-15.585327,0.9938658,-0.21670602,-38.81836,-0.00028260052,-0.0004272461,0.23782983,7.6293945e-05,4.5776367e-05,3.1036377,-0.000620842,9.806747,0.25172424,-0.21464539,9.801371,-0.0024122149
-0.012308467,0.010930099,-15.386963,0.9938438,-0.21643639,-36.24115,0.00063072145,0.00016784668,0.23950456,-4.5776367e-05,-7.6293945e-05,2.0065308,-0.0007343292,9.795975,0.2280426,-0.21606445,9.801335,0.004053667
-0.012291502,0.010873626,-16.40625,0.9938583,-0.21625698,-37.243652,0.00020372868,-0.00032043457,0.23834053,-0.000289917,0.00016784668,2.999878,-0.0015974045,9.810577,0.2514801,-0.21487427,9.801368,-0.0038557798
-0.012256509,0.010979809,-16.044617,0.9938299,-0.21528618,-37.739563,0.0016568154,0.000289917,0.24038933,-4.5776367e-05,4.5776367e-05,3.9779663,0.0038785934,9.796936,0.22851562,-0.21798706,9.801339,0.005292371
-0.012299967,0.010883096,-15.202332,0.99385595,-0.21639697,-37.730408,-0.0027847737,-0.0001373291,0.23854746,7.6293945e-05,0.00022888184,2.4047852,-0.003964424,9.809143,0.25149536,-0.21774292,9.80136,-0.0045505166
-0.012312141,0.0110199265,-15.890503,0.99382037,-0.2162654,-37.998962,-0.00047069788,0.00010681152,0.24130741,7.6293945e-05,-1.5258789e-05,1.8890381,0.0043764114,9.7986145,0.2280426,-0.21798706,9.801294,0.0062901825
-0.012332682,0.010824923,-15.411377,0.9938717,-0.21719326,-38.046265,-0.0014830232,-7.6293945e-05,0.23745306,1.5258789e-05,-1.5258789e-05,3.5980225,-0.002825737,9.809372,0.24932861,-0.21678162,9.80137,-0.008006692
-0.012334703,0.010996924,-14.86969,0.99382675,-0.2167688,-37.043762,0.00078362226,0.00016784668,0.24089494,-0.000289917,-1.5258789e-05,2.0248413,0.0044927597,9.797653,0.23066711,-0.21702576,9.801294,0.0071553886
-0.0123282885,0.010841892,-15.367126,0.99386716,-0.2170617,-37.677002,-0.00042963028,-0.00032043457,0.23778304,-4.5776367e-05,4.5776367e-05,2.1575928,-0.0049791336,9.805069,0.24765015,-0.2172699,9.801364,-0.0064236224
-0.012356187,0.011022813,-15.92865,0.9938203,-0.21711881,-38.40332,-0.0005797148,6.1035156e-05,0.2414573,-0.00010681152,-1.5258789e-05,2.3666382,0.001791954,9.800049,0.23187256,-0.21702576,9.801272,0.0063876063
-0.012317452,0.010833484,-15.589905,0.9938692,-0.21687242,-37.643433,0.0008227676,-1.5258789e-05,0.23759238,-0.00022888184,-7.6293945e-05,2.067566,-0.002480507,9.804108,0.24502563,-0.21655273,9.801373,-0.0071703643
-0.01234761,0.01100481,-15.414429,0.9938249,-0.21699983,-38.00049,5.9753656e-06,6.1035156e-05,0.24107957,-0.00012207031,4.5776367e-05,2.4719238,0.0013818741,9.798126,0.2337799,-0.21870422,9.801285,0.0067792684
-0.012348546,0.010844691,-16.304016,0.99386674,-0.21745023,-38.368225,-0.0010149628,6.1035156e-05,0.23788121,1.5258789e-05,-0.0001373291,3.3172607,-0.0032243729,9.807938,0.24383545,-0.21798706,9.8013525,-0.006018311
-0.012382267,0.010966589,-15.242004,0.99383545,-0.21778081,-38.059998,-0.00014527142,-0.00015258789,0.24038808,1.5258789e-05,-4.5776367e-05,2.8839111,0.0058317184,9.802444,0.23712158,-0.2163086,9.801284,0.005043283
-0.012352375,0.010874091,-16.363525,0.9938592,-0.21744594,-38.34381,0.0006775111,9.1552734e-05,0.23847683,-4.5776367e-05,-0.00010681152,2.4291992,-0.0028152466,9.805542,0.24191284,-0.21846008,9.801338,-0.0040109456
-0.012377305,0.010983942,-15.707397,0.99383086,-0.2176369,-38.21106,0.00018832088,3.0517578e-05,0.24072458,7.6293945e-05,-4.5776367e-05,2.4597168,0.0032377243,9.800522,0.23855591,-0.21702576,9.801279,0.0042286366
-0.012360664,0.010877412,-15.1779175,0.9938584,-0.21759908,-38.36975,0.00010433793,0.00015258789,0.23856053,-4.5776367e-05,1.5258789e-05,1.5960693,-0.004076004,9.801727,0.23904419,-0.2163086,9.801333,-0.003367439
-0.012337947,0.010948695,-15.809631,0.99383944,-0.2169626,-38.43994,0.0011713356,-0.00016784668,0.23993784,7.6293945e-05,-4.5776367e-05,1.9729614,0.0022420883,9.80722,0.237854,-0.2141571,9.801313,0.0021701455
-0.01228942,0.010843773,-16.1026,0.993866,-0.21629666,-37.6709,0.0017221868,0.00021362305,0.2377396,7.6293945e-05,1.5258789e-05,2.0462036,0.00116539,9.8029175,0.23880005,-0.21678162,9.801382,-0.0035478324
-0.012302326,0.010916804,-15.713501,0.9938472,-0.2163522,-37.982178,-0.00061897933,-0.00021362305,0.23922604,0.0001373291,1.5258789e-05,2.380371,-0.0001821518,9.805542,0.23808289,-0.21655273,9.801344,0.0028706044
-0.012300874,0.01083891,-15.869141,0.9938675,-0.21653368,-37.93335,4.0501356e-05,0.00019836426,0.23766625,7.6293945e-05,-0.00010681152,2.2125244,0.00052165985,9.800766,0.23808289,-0.21678162,9.801377,-0.0029904395
-0.012305878,0.01091154,-15.460205,0.9938486,-0.21643585,-38.104248,0.0006465763,-0.00016784668,0.23912826,0.00018310547,-0.00010681152,2.87323,-0.0012407303,9.801239,0.23880005,-0.21751404,9.801345,0.0022604316
-0.01235435,0.010836689,-15.600586,0.99386895,-0.21758525,-37.535095,-0.0018167198,1.5258789e-05,0.23773336,1.5258789e-05,-0.00016784668,3.0334473,-0.0024232864,9.800766,0.2349701,-0.21487427,9.801353,-0.0025403649
-0.012310144,0.010864218,-14.735413,0.993861,-0.21664679,-37.878418,0.0025137216,-9.1552734e-05,0.23819138,0.0001373291,0.0001373291,2.8259277,0.00046730042,9.804352,0.24047852,-0.21655273,9.801362,0.000582248
-0.01228837,0.010843871,-14.686584,0.993866,-0.21627587,-37.55188,0.00022621453,7.6293945e-05,0.23773934,0.00024414062,-0.00010681152,2.5100708,-0.0008134842,9.800995,0.23449707,-0.21774292,9.801382,-0.0006339997
-0.012312422,0.010843792,-14.782715,0.99386644,-0.21674632,-38.505554,-0.0007445961,-0.00015258789,0.23778789,0.0002593994,-4.5776367e-05,3.1402588,0.0007457733,9.804596,0.23951721,-0.2172699,9.80137,-0.00044754148
-0.012329408,0.010827805,-15.620422,0.99387085,-0.2171215,-38.952637,-0.00035510957,1.5258789e-05,0.23750381,7.6293945e-05,-0.00016784668,2.5375366,0.0012922287,9.802444,0.2359314,-0.2172699,9.80137,-0.0004079044
-0.012354229,0.010852077,-15.063477,0.99386495,-0.21754147,-38.041687,-0.0004106015,-0.00021362305,0.2380407,6.1035156e-05,-4.5776367e-05,3.3737183,-0.00024986267,9.806992,0.24143982,-0.21774292,9.801347,0.00049217045
-0.012361462,0.010872828,-15.7547,0.99385965,-0.21762705,-38.28125,0.0001899451,0.0002593994,0.23847058,1.5258789e-05,-4.5776367e-05,3.9047241,0.0023908615,9.801712,0.23664856,-0.21583557,9.801335,0.00075016916
-0.012328905,0.010868578,-16.06903,0.9938602,-0.21700189,-37.353516,0.0014574826,-0.00010681152,0.23831768,7.6293945e-05,1.5258789e-05,3.6590576,-0.0012760162,9.802673,0.2400055,-0.21894836,9.801352,-4.2319298e-05
-0.012345958,0.010849822,-15.3289795,0.9938654,-0.21660905,-37.69226,0.0017538816,-3.0517578e-05,0.2379816,-0.00022888184,1.5258789e-05,2.722168,-0.0014677048,9.803635,0.23857117,-0.21511841,9.801369,-0.000392735
-0.012278468,0.010849401,-15.307617,0.9938644,-0.21606736,-37.626648,0.00074745715,0.0002593994,0.2378292,-4.5776367e-05,7.6293945e-05,3.0456543,0.00076293945,9.802429,0.23713684,-0.21678162,9.801384,0.00046767294
-0.012283576,0.010839744,-16.157532,0.993867,-0.21619321,-38.067627,-0.00032824278,-3.0517578e-05,0.23764685,-0.00010681152,-4.5776367e-05,2.281189,0.00034332275,9.803162,0.24287415,-0.21391296,9.801386,-7.136166e-05
-0.012267441,0.01089902,-16.409302,0.99385124,-0.21571806,-38.29651,0.0011221617,0.0002593994,0.2387978,-0.00010681152,-4.5776367e-05,2.8305054,0.0002374649,9.801956,0.23713684,-0.21870422,9.801369,0.002604127
-0.012304489,0.010866556,-15.83252,0.99386036,-0.21652995,-38.624573,-0.0016755462,1.5258789e-05,0.23822635,-4.5776367e-05,-4.5776367e-05,2.6916504,-0.0008163452,9.805786,0.24023438,-0.2163086,9.801365,-0.00017176569
-0.012301714,0.010893375,-15.109253,0.9938533,-0.21640342,-36.66992,0.00061942637,-4.5776367e-05,0.23875652,7.6293945e-05,0.00019836426,2.8198242,0.002339363,9.8029175,0.23640442,-0.2163086,9.801354,0.00094792247
-0.012289547,0.010854195,-15.603638,0.99386334,-0.2162711,-37.757874,-0.0004720986,0.0001373291,0.23794812,1.5258789e-05,-4.5776367e-05,2.949524,-0.001162529,9.803162,0.23904419,-0.21702576,9.801377,-0.0015859753
-0.01231794,0.010863717,-16.389465,0.9938613,-0.21680059,-38.74054,-0.0006689429,-0.00015258789,0.23819764,-0.00016784668,0.0001373291,0.8972168,0.00050735474,9.801727,0.23832703,-0.21487427,9.801359,0.00079764426
-0.012267274,0.010889081,-15.675354,0.99385387,-0.2157416,-37.69684,0.0011398643,7.6293945e-05,0.23859884,-4.5776367e-05,-4.5776367e-05,2.9464722,-0.0014238358,9.805313,0.23904419,-0.21751404,9.8013735,0.00016981363
-0.012301517,0.010882072,-15.02533,0.99385625,-0.21643002,-38.237,-0.0010269433,-4.5776367e-05,0.23853022,1.5258789e-05,1.5258789e-05,2.810669,0.0025587082,9.8033905,0.23664856,-0.21798706,9.801359,0.00045105815
-0.012314844,0.01085483,-15.585327,0.9938636,-0.216764,-38.667297,-0.00093473494,-4.5776367e-05,0.2380136,0.0001373291,1.5258789e-05,3.1036377,-0.001162529,9.805069,0.23760986,-0.21989441,9.801365,-0.001413554
-0.012376384,0.010842851,-16.04309,0.9938677,-0.2179995,-38.372803,-0.002550915,1.5258789e-05,0.23790249,-0.00016784668,1.5258789e-05,2.8457642,0.001452446,9.800522,0.23832703,-0.21702576,9.80134,-0.00011523068
-0.012349055,0.010828683,-15.187073,0.993871,-0.21750325,-37.73651,0.0012235641,7.6293945e-05,0.23756228,0.0001373291,-0.00010681152,2.6489258,-0.0028562546,9.8022,0.23880005,-0.21774292,9.801358,-0.00070112944
-0.012365701,0.01087397,-15.34729,0.9938594,-0.21770683,-37.983704,-3.0100346e-06,0.0001373291,0.23850223,1.5258789e-05,-0.00010681152,2.39563,0.00032424927,9.802673,0.24095154,-0.2182312,9.801332,0.0021841824
-0.012375529,0.010892406,-15.643311,0.99385476,-0.21784928,-38.267517,-0.000105410814,1.5258789e-05,0.23889121,-0.00010681152,7.6293945e-05,2.3010254,-0.00010204315,9.8029175,0.23808289,-0.21798706,9.801318,0.0013076663
-0.012381806,0.010876605,-16.25061,0.993859,-0.21801463,-37.745667,-0.00040856004,7.6293945e-05,0.2385885,-4.5776367e-05,0.0001373291,3.0838013,0.00040912628,9.806992,0.23976135,-0.2182312,9.801323,-0.00054599345
-0.012372328,0.010886307,-15.46936,0.9938563,-0.21780315,-38.249207,-0.0003721416,-3.0517578e-05,0.23876263,0.00019836426,0.00019836426,2.709961,0.0017023087,9.803635,0.24072266,-0.21559143,9.801323,0.00022026896
-0.01232741,0.010935955,-15.275574,0.9938426,-0.21679097,-38.24005,0.0012609065,1.5258789e-05,0.23966117,1.5258789e-05,7.6293945e-05,3.4439087,0.000497818,9.802429,0.23880005,-0.21702576,9.801324,0.001939699
-0.01232301,0.010912643,-15.888977,0.9938486,-0.21676786,-38.56964,1.977384e-05,-9.1552734e-05,0.23918608,0.0002593994,-0.00010681152,2.9296875,-0.0011129379,9.803146,0.23857117,-0.21702576,9.801336,-0.00091287494
-0.01233568,0.010922154,-14.126587,0.9938463,-0.21698993,-37.876892,4.8577785e-06,-9.1552734e-05,0.23940264,7.6293945e-05,-0.00010681152,2.1316528,-0.0007343292,9.80101,0.24047852,-0.21798706,9.801326,-0.0001591891
-0.012356595,0.010928501,-15.187073,0.993845,-0.21738175,-38.217163,-0.0005749613,-4.5776367e-05,0.2395732,1.5258789e-05,1.5258789e-05,1.5182495,-0.000954628,9.801956,0.23808289,-0.21846008,9.801313,0.00015470386
-0.012374914,0.010908516,-15.396118,0.9938505,-0.21779385,-37.40692,-0.0006393939,1.5258789e-05,0.23921199,0.0002593994,-4.5776367e-05,2.7999878,-0.00032043457,9.804352,0.23808289,-0.21679688,9.801313,-0.00067029893
-0.012352757,0.010881947,-15.222168,0.9938571,-0.21743226,-38.098145,0.0009122342,0.0001373291,0.23863469,-4.5776367e-05,-4.5776367e-05,2.0812988,0.00058078766,9.804108,0.23857117,-0.21463013,9.801335,-0.0010607392
-0.012326413,0.010877662,-14.840698,0.9938578,-0.2169287,-38.37433,0.0013809949,7.6293945e-05,0.23849407,-4.5776367e-05,-0.00022888184,3.3813477,0.0010271072,9.805313,0.24047852,-0.21774292,9.80135,0.0002579093
-0.012343544,0.010890453,-15.061951,0.99385476,-0.21722919,-38.868713,1.7985702e-05,1.5258789e-05,0.23878548,-4.5776367e-05,1.5258789e-05,3.2867432,0.0013284683,9.8022,0.2368927,-0.21702576,9.801336,0.0009113401
-0.012328638,0.010875421,-15.086365,0.9938584,-0.21697825,-38.33313,0.00023837388,0.0001373291,0.23845391,-0.00010681152,7.6293945e-05,2.9678345,-0.0015077591,9.800049,0.24191284,-0.21655273,9.80135,-0.0006457716
-0.01233151,0.01092827,-15.756226,0.9938446,-0.21689188,-37.81433,0.0001360178,1.5258789e-05,0.23951618,7.6293945e-05,1.5258789e-05,1.7379761,-0.0014944077,9.803162,0.23904419,-0.21655273,9.801326,0.00213933
-0.0123076225,0.01092498,-15.696716,0.9938451,-0.21643367,-38.06305,0.00015561283,1.5258789e-05,0.23940049,0.0002593994,0.0001373291,2.6229858,0.0004415512,9.805542,0.24023438,-0.21655273,9.801337,-0.00014592707
-0.012308884,0.010904405,-14.778137,0.9938505,-0.21651387,-38.537598,-0.00023706257,1.5258789e-05,0.23899193,0.0001373291,7.6293945e-05,2.0965576,0.0013990402,9.802673,0.23713684,-0.21702576,9.801346,-0.0002425909
-0.012316315,0.010905748,-15.116882,0.9938503,-0.21665555,-36.44104,-0.0003297478,7.6293945e-05,0.23903431,-0.00018310547,-4.5776367e-05,2.7404785,-0.00049877167,9.8033905,0.24047852,-0.21487427,9.801342,-0.00027889013
-0.012283623,0.010903645,-15.019226,0.9938503,-0.21602201,-38.316345,0.001192987,-4.5776367e-05,0.23892403,7.6293945e-05,-4.5776367e-05,2.8915405,0.00046634674,9.803162,0.23857117,-0.2182312,9.801359,0.0003142506
-0.012344768,0.01090936,-15.992737,0.9938498,-0.21655707,-38.302612,0.0010097623,0.0001373291,0.23852937,7.6293945e-05,0.0001373291,1.399231,3.71933e-05,9.804108,0.23808289,-0.21702576,9.801356,-0.00096809864
-0.012298001,0.010916948,-15.9729,0.9938471,-0.21626723,-38.656616,0.00048327446,1.5258789e-05,0.23921989,1.5258789e-05,-0.00022888184,2.7664185,0.00066661835,9.8029175,0.23951721,-0.21774292,9.801346,0.0012015253
-0.012341614,0.010911679,-15.7699585,0.99384916,-0.21713421,-38.68103,-0.0008099675,7.6293945e-05,0.23920567,0.0001373291,7.6293945e-05,2.532959,-0.00081920624,9.803162,0.23832703,-0.21917725,9.801328,-0.00020872056
-0.012353812,0.010881285,-15.342712,0.9938573,-0.21745466,-36.665344,-0.0009509027,1.5258789e-05,0.23862363,0.0001373291,-0.00010681152,1.524353,0.0010480881,9.802673,0.23760986,-0.21583557,9.801334,-0.0010735989
-0.01232297,0.010866619,-14.756775,0.9938606,-0.21689111,-38.16986,0.001094237,-9.1552734e-05,0.23826614,-0.00018310547,1.5258789e-05,2.5009155,-0.0013914108,9.806503,0.24047852,-0.21607971,9.801355,-0.00022575259
-0.012330776,0.010926294,-15.608215,0.99384516,-0.21688287,-37.90741,0.0003926754,1.5258789e-05,0.23947515,0.00019836426,-4.5776367e-05,2.8686523,0.0021219254,9.804825,0.24023438,-0.21870422,9.801327,0.0018956363
-0.012358867,0.010924907,-16.39862,0.993846,-0.21743585,-38.47809,-0.0011897385,0.0001373291,0.2395061,-6.1035156e-05,0.00019836426,1.8630981,0.0014019012,9.804352,0.23832703,-0.21702576,9.801313,0.00039754808
-0.012327857,0.01091053,-15.402222,0.9938492,-0.21686834,-37.976074,0.00038646162,-4.5776367e-05,0.23915398,0.0001373291,7.6293945e-05,3.7628174,-0.00065898895,9.801239,0.24024963,-0.21751404,9.801335,-0.0006609559
-0.012342988,0.010917912,-15.135193,0.99384755,-0.21714424,-37.457275,-0.0007941276,1.5258789e-05,0.23933311,7.6293945e-05,-4.5776367e-05,3.4561157,-0.0020389557,9.803879,0.23808289,-0.21679688,9.801324,0.0003745705
-0.012340395,0.010895522,-15.737915,0.9938534,-0.21715392,-38.771057,0.0004027784,-4.5776367e-05,0.23888019,7.6293945e-05,-4.5776367e-05,3.0166626,-0.0002374649,9.806976,0.23928833,-0.21942139,9.801334,-0.00084762275
-0.0123752775,0.010891023,-14.335632,0.9938551,-0.2178481,-37.850952,-0.0017410368,7.6293945e-05,0.23886308,6.1035156e-05,-4.5776367e-05,2.281189,0.0027074814,9.8029175,0.23951721,-0.2172699,9.80132,9.7349286e-05
-0.012364015,0.010917575,-15.351868,0.99384797,-0.21755628,-38.208008,0.0010574609,1.5258789e-05,0.23937027,0.0001373291,-0.00010681152,2.3147583,-0.0020151138,9.801483,0.2400055,-0.21870422,9.801313,0.0008047819
-0.012400671,0.010906704,-16.04309,0.9938514,-0.21830234,-38.372803,-0.0008267015,-4.5776367e-05,0.23922952,0.00019836426,-0.00016784668,2.8457642,-0.00054740906,9.804352,0.23880005,-0.21655273,9.801301,6.005168e-06
-0.012382517,0.010915452,-16.096497,0.99384886,-0.21792378,-38.424683,0.0014183819,0.0001373291,0.23936647,0.00019836426,1.5258789e-05,2.0401,-4.4822693e-05,9.8033905,0.23857117,-0.21870422,9.801306,0.00034287572
-0.012386228,0.010883621,-15.422058,0.9938572,-0.21808216,-37.44049,-0.00057691336,-4.5776367e-05,0.23873796,0.00030517578,1.5258789e-05,3.5217285,-0.00018501282,9.803162,0.23928833,-0.21870422,9.801317,-0.0011775196
-0.012398039,0.0109016765,-15.538025,0.9938527,-0.21826445,-38.34076,-0.00015683472,7.6293945e-05,0.23912354,-0.00010681152,-4.5776367e-05,2.7877808,-0.00060272217,9.800293,0.23808289,-0.21679688,9.801305,0.0010683388
-0.01238528,0.010881092,-15.922546,0.99385786,-0.21807045,-37.83722,0.0005796701,-9.1552734e-05,0.23868544,-0.00010681152,-4.5776367e-05,1.4083862,-0.0013551712,9.803635,0.23928833,-0.21678162,9.801319,-0.0011010468
-0.012349493,0.010884787,-16.05835,0.9938563,-0.21736076,-39.01062,0.0013320148,7.6293945e-05,0.23868462,-4.5776367e-05,-4.5776367e-05,3.6453247,0.001162529,9.800995,0.23832703,-0.21655273,9.801335,-0.0001526773
-0.012335191,0.010887718,-15.6692505,0.9938553,-0.21707323,-38.52539,0.0003093779,0.0001373291,0.23871335,-0.00010681152,7.6293945e-05,2.9403687,-0.0016202927,9.801483,0.2400055,-0.21751404,9.801341,0.00031131506
-0.012337696,0.01089236,-15.022278,0.99385417,-0.21710971,-37.834167,9.703636e-05,7.6293945e-05,0.23881136,-0.00010681152,-0.00010681152,4.020691,-0.00044441223,9.801956,0.23736572,-0.2163086,9.801338,0.000935629
-0.012335291,0.010865824,-15.904236,0.993861,-0.2171342,-38.7146,0.00059969723,-9.1552734e-05,0.23827599,0.00036621094,7.6293945e-05,2.6870728,0.000500679,9.802673,0.23760986,-0.21511841,9.801351,-0.0009302646
-0.01229074,0.010859973,-15.950012,0.99386185,-0.21627885,-37.64496,0.0014311075,-9.1552734e-05,0.23806606,0.0001373291,-0.00010681152,2.1316528,0.00081443787,9.80603,0.23713684,-0.2182312,9.8013735,-0.000958398
-0.012327529,0.010869046,-16.000366,0.99386007,-0.21697372,-37.142944,-0.0012208968,-9.1552734e-05,0.23832417,0.0002593994,0.0001373291,2.5360107,0.00087451935,9.800522,0.2400055,-0.21679688,9.8013525,-3.7297606e-05
-0.012335764,0.0108670555,-14.558411,0.9938607,-0.21714012,-38.043213,-0.0008213669,7.6293945e-05,0.23830158,0.00019836426,1.5258789e-05,2.1896362,-0.0010204315,9.802444,0.23928833,-0.21583557,9.80135,0.00024151802
-0.012338073,0.0108868135,-15.496826,0.9938556,-0.21713202,-37.486267,-0.0015354156,0.0001373291,0.2387013,0.00012207031,0.0001373291,2.3925781,0.00087833405,9.803635,0.23832703,-0.21702576,9.80134,5.8308244e-05
-0.012293937,0.010883865,-15.50293,0.99385566,-0.21627699,-38.911438,0.0007160604,1.5258789e-05,0.23855023,1.5258789e-05,7.6293945e-05,2.140808,-0.00054359436,9.803162,0.23951721,-0.21655273,9.801362,-1.27106905e-05
-0.012312549,0.010880336,-15.478516,0.99385685,-0.21665043,-38.471985,-0.00058221817,0.00019836426,0.23851858,0.0001373291,-0.00016784668,2.546692,0.0005941391,9.8033905,0.23808289,-0.21751404,9.801355,1.1593103e-05
-0.012326115,0.010857887,-15.426636,0.993863,-0.21697614,-38.523865,-6.1243773e-06,-9.1552734e-05,0.23809819,7.6293945e-05,-0.00016784668,2.2277832,0.0005559921,9.802444,0.23736572,-0.2163086,9.801358,0.00018110871
-0.0123329405,0.010854094,-15.127563,0.99386406,-0.21711981,-37.535095,0.00037665665,-0.00021362305,0.23803662,0.0001373291,7.6293945e-05,3.5354614,-0.0004196167,9.805313,0.23760986,-0.21846008,9.801356,-0.0011860877
-0.01235966,0.010865264,-16.708374,0.99386156,-0.21761215,-39.372253,-0.0017573684,1.5258789e-05,0.23831558,0.0001373291,1.5258789e-05,3.6941528,0.0011501312,9.8033905,0.237854,-0.21894836,9.801338,0.00042766333
-0.012361669,0.01084713,-15.821838,0.9938663,-0.21770026,-39.03656,1.0550022e-05,7.6293945e-05,0.23795731,0.0001373291,7.6293945e-05,1.725769,0.00013828278,9.8033905,0.23832703,-0.21487427,9.801345,-0.00087861717
-0.012301864,0.010861908,-15.979004,0.9938615,-0.21649113,-37.675476,0.002380386,-4.5776367e-05,0.23812796,-4.5776367e-05,-0.00010681152,2.7740479,-0.0005493164,9.80484,0.23857117,-0.21511841,9.801368,0.00039219856
-0.012297135,0.01086758,-15.359497,0.99385995,-0.21638341,-37.904358,0.00060242414,0.0001373291,0.23823148,1.5258789e-05,-0.00010681152,2.2369385,0.00075531006,9.804825,0.237854,-0.21583557,9.801369,0.0002795905
-0.012296863,0.010858658,-15.72876,0.9938623,-0.21640211,-37.79602,0.0003824532,0.0001373291,0.23805256,1.5258789e-05,-0.00016784668,3.2669067,0.0005044937,9.802673,0.23855591,-0.21607971,9.801372,-3.5718083e-05
-0.012303378,0.010845022,-15.3793335,0.99386597,-0.21656623,-38.046265,0.00031249225,1.5258789e-05,0.23779367,1.5258789e-05,-0.00016784668,1.9119263,-0.00046634674,9.801483,0.23617554,-0.21751404,9.801375,-1.513958e-05
-0.012318997,0.010819402,-15.423584,0.9938729,-0.21694054,-37.89215,-4.9695373e-05,7.6293945e-05,0.23731415,6.1035156e-05,1.5258789e-05,3.439331,-0.0017442703,9.804825,0.23857117,-0.21606445,9.801378,-0.00046031177
-0.012298008,0.0108204475,-15.707397,0.9938723,-0.21652734,-38.435364,0.00051015615,0.0001373291,0.2372913,7.6293945e-05,0.0001373291,2.3773193,0.0010690689,9.803879,0.23928833,-0.21463013,9.801388,0.0005109161
-0.012273556,0.0108623225,-15.179443,0.99386096,-0.21593651,-38.041687,0.00064091384,7.6293945e-05,0.23807718,-0.00010681152,-4.5776367e-05,2.7252197,0.00038051605,9.80603,0.23832703,-0.2172699,9.801381,0.0018713474
-0.012294624,0.010841369,-15.817261,0.99386674,-0.21640486,-38.21106,-0.0005521476,1.5258789e-05,0.23770234,0.0001373291,-4.5776367e-05,1.8936157,0.0015363693,9.801727,0.23857117,-0.21702576,9.801379,-0.00041213632
-0.012293659,0.010881379,-15.330505,0.9938563,-0.21627827,-38.96942,0.00024536252,9.1552734e-05,0.2385,0.0002593994,-4.5776367e-05,2.5512695,-0.002002716,9.803879,0.237854,-0.21559143,9.801364,0.00096556544
-0.012294224,0.010836313,-15.818787,0.99386805,-0.21641065,-38.25531,-8.7320805e-05,-9.1552734e-05,0.23760048,-4.5776367e-05,0.0001373291,2.935791,0.00073337555,9.805069,0.23904419,-0.2182312,9.801382,-0.00076790154
-0.012350237,0.010886613,-16.009521,0.99385583,-0.21737039,-38.838196,-0.001987949,-9.1552734e-05,0.23872265,7.6293945e-05,-4.5776367e-05,3.326416,0.00064754486,9.804352,0.23928833,-0.2182312,9.801333,0.0014424771
-0.012318707,0.010889106,-15.180969,0.9938547,-0.2167472,-37.66327,0.0004990697,1.5258789e-05,0.23870671,0.00024414062,0.00019836426,2.7282715,-0.00020313263,9.801956,0.237854,-0.21511841,9.801349,-0.00020211935
-0.012300762,0.010878977,-16.238403,0.993857,-0.21642362,-38.12561,0.00063611567,0.0001373291,0.2384668,0.0002593994,1.5258789e-05,3.2409668,-0.0010938644,9.8029175,0.23880005,-0.21774292,9.801361,-0.00019273162
-0.01232097,0.010869056,-15.72876,0.99385995,-0.21684548,-38.728333,-0.000860855,-9.1552734e-05,0.23831071,7.6293945e-05,-0.00016784668,2.053833,-0.0010538101,9.804108,0.23449707,-0.21846008,9.801356,-0.000496909
-0.012342924,0.010816734,-15.470886,0.99387395,-0.21741551,-38.09967,-0.00027766824,0.0001373291,0.2373107,-4.5776367e-05,-0.00010681152,2.7114868,0.0012159348,9.8029175,0.237854,-0.21583557,9.801367,-0.0019066036
-0.012321314,0.010810582,-15.953064,0.9938752,-0.21700953,-38.694763,0.0009912401,7.6293945e-05,0.2371427,0.00030517578,-4.5776367e-05,1.9622803,-0.00030326843,9.8022,0.23904419,-0.21870422,9.80138,0.00041674078
-0.0123668555,0.010847755,-15.567017,0.99386626,-0.2178,-38.150024,-0.0015872419,7.6293945e-05,0.23798063,0.00019836426,-4.5776367e-05,3.4317017,-0.0011672974,9.805786,0.2400055,-0.21702576,9.801343,0.0014992803
-0.0123491585,0.0108641265,-15.231323,0.99386173,-0.2174099,-38.14087,0.0011603683,1.5258789e-05,0.23827095,0.00030517578,-0.00010681152,3.0456543,0.002251625,9.805542,0.23857117,-0.21511841,9.801344,0.0011815131
-0.012322617,0.010884381,-15.907288,0.99385595,-0.21683638,-38.337708,0.0015627146,-4.5776367e-05,0.23862043,0.0002593994,-4.5776367e-05,2.6901245,0.0013532639,9.804108,0.24023438,-0.21583557,9.801349,0.00058685243
-0.012297025,0.0108923605,-16.152954,0.99385345,-0.21631448,-38.778687,0.000785172,0.0001373291,0.23872647,1.5258789e-05,7.6293945e-05,1.1489868,-0.0010251999,9.805313,0.23857117,-0.21678162,9.801357,0.00049331784
-0.012304848,0.010878298,-16.04004,0.99385726,-0.21650533,-38.749695,-0.00069223344,-4.5776367e-05,0.23846176,-4.5776367e-05,1.5258789e-05,2.8427124,0.0009088516,9.803879,0.23808289,-0.21989441,9.801359,-0.0002143979
-0.012361926,0.010888099,-16.073608,0.99385566,-0.21759494,-38.17749,-0.0017587394,0.0001373291,0.23877676,7.6293945e-05,1.5258789e-05,3.4881592,-0.00049877167,9.802444,0.2400055,-0.2163086,9.801328,0.00043725967
-0.012350539,0.010884554,-15.766907,0.9938564,-0.21738185,-37.631226,0.0004094392,-4.5776367e-05,0.23868217,0.0001373291,-4.5776367e-05,2.7038574,-0.0012950897,9.804596,0.24023438,-0.21606445,9.801335,0.0005475879
-0.012325375,0.010906897,-15.077209,0.9938502,-0.2168296,-37.58545,0.0012922734,0.00019836426,0.23907617,1.5258789e-05,-0.00016784668,3.2165527,9.536743e-05,9.803879,0.23951721,-0.21679688,9.801337,0.00062552094
-0.012327946,0.010919111,-15.104675,0.993847,-0.2168469,-37.574768,0.00011907518,-0.00015258789,0.23932564,0.00019836426,1.5258789e-05,2.8121948,0.0013341904,9.804352,0.23951721,-0.21534729,9.801331,0.0008325279
-0.012315287,0.010901581,-15.19928,0.99385136,-0.21664669,-37.506104,-0.001541838,7.6293945e-05,0.23894888,0.0002593994,0.0001373291,2.4887085,-0.0008459091,9.8033905,0.23857117,-0.21894836,9.801345,-0.0011419207
-0.012350709,0.01088551,-16.018677,0.99385613,-0.21738261,-37.509155,-0.0012776852,1.5258789e-05,0.23870161,-4.5776367e-05,1.5258789e-05,2.2094727,7.534027e-05,9.8029175,0.23832703,-0.21870422,9.801334,-0.00017867982
-0.012365239,0.010871994,-16.54663,0.9938599,-0.21770309,-38.208008,-0.00071053207,0.00019836426,0.23846176,-4.5776367e-05,1.5258789e-05,1.8600464,0.00021076202,9.804352,0.23857117,-0.21487427,9.801332,-0.00018562376
-0.012304612,0.010885798,-15.19928,0.9938553,-0.21648051,-38.1073,0.0023777485,-0.00015258789,0.23861116,0.0002593994,1.5258789e-05,2.4017334,0.0007791519,9.802673,0.23808289,-0.21440125,9.801356,0.0006172806
-0.012267933,0.0108821355,-16.007996,0.99385566,-0.21577321,-38.01117,0.0009390265,-9.1552734e-05,0.23846139,0.00019836426,1.5258789e-05,3.413391,-0.0012397766,9.798843,0.23953247,-0.21606445,9.801375,-0.0008958131
-0.012271903,0.010906924,-15.026855,0.9938493,-0.21578403,-37.44049,0.00045214593,0.00019836426,0.23896506,0.0001373291,-0.00016784668,1.7730713,-0.0022583008,9.805542,0.24023438,-0.21798706,9.801364,0.001023367
-0.012338929,0.0109026255,-16.194153,0.9938515,-0.21710612,-37.799072,-0.0022750646,7.6293945e-05,0.2390191,-0.00016784668,7.6293945e-05,2.8442383,0.0021657944,9.8029175,0.24023438,-0.21679688,9.801332,0.0006980002
-0.0123259695,0.010918952,-15.516663,0.993847,-0.2168087,-37.597656,0.00029447675,-9.1552734e-05,0.23931836,0.0002593994,-4.5776367e-05,3.1982422,-0.00015544891,9.803162,0.23904419,-0.21798706,9.801332,0.00064463913
-0.012356423,0.010916204,-15.953064,0.9938482,-0.21741155,-38.438416,-0.00053970516,-0.00021362305,0.23932703,1.5258789e-05,-0.00010681152,3.0914307,-0.00025844574,9.804825,0.23976135,-0.21679688,9.801318,-0.0003222376
-0.012338807,0.010941475,-16.592407,0.99384135,-0.21699889,-38.308716,0.0007417351,1.5258789e-05,0.2397953,0.00030517578,-4.5776367e-05,2.2598267,0.0014295578,9.8033905,0.23857117,-0.21440125,9.801315,0.0003822297
-0.012320666,0.01090875,-15.2282715,0.9938496,-0.2167325,-37.01172,0.0011936128,-9.1552734e-05,0.23910336,0.0001373291,-0.00010681152,3.2150269,0.00016403198,9.804596,0.23640442,-0.21894836,9.801338,-0.0013073236
-0.012331555,0.010878568,-16.02478,0.9938576,-0.21702679,-38.606262,-0.0006519556,-0.00015258789,0.23852286,0.0001373291,1.5258789e-05,3.086853,0.0010681152,9.804825,0.23880005,-0.21702576,9.801346,-0.0014718175
-0.012333896,0.010875774,-15.376282,0.9938584,-0.21708009,-38.16986,0.00011044741,1.5258789e-05,0.23847191,0.0001373291,-0.00010681152,3.036499,-0.00071811676,9.803879,0.23736572,-0.21534729,9.801346,-0.00045067072
-0.012329962,0.01086778,-15.766907,0.9938604,-0.21702471,-37.631226,0.0005261004,-0.00015258789,0.23830394,-4.5776367e-05,-0.00010681152,2.7038574,-0.00016117096,9.8029175,0.23664856,-0.2172699,9.801352,-0.00028048456
-0.012308221,0.0108430255,-15.457153,0.99386656,-0.21666627,-38.479614,0.0008881837,-4.5776367e-05,0.23776384,0.00030517578,1.5258789e-05,2.8701782,0.0003786087,9.801956,0.2368927,-0.21511841,9.801373,-0.001895532
-0.012303027,0.0108540375,-14.997864,0.9938636,-0.21653508,-38.475037,0.00049968064,-9.1552734e-05,0.2379731,6.1035156e-05,-4.5776367e-05,3.213501,-0.0011758804,9.804352,0.23976135,-0.21751404,9.801371,-0.00016778708
-0.012300076,0.010874184,-16.300964,0.9938583,-0.2164231,-38.745117,-8.149445e-05,-4.5776367e-05,0.23836955,0.00019836426,1.5258789e-05,3.314209,0.00033473969,9.802429,0.23760986,-0.2172699,9.801363,0.00062160194
-0.0123197455,0.010861834,-15.730286,0.99386185,-0.21684097,-38.320923,-0.0003888756,0.0001373291,0.23816378,-0.00010681152,-4.5776367e-05,3.1829834,-0.00074100494,9.804825,0.23808289,-0.21655273,9.801359,-0.00035379827
-0.012329042,0.010833572,-15.330505,0.99386936,-0.2170988,-37.31537,-0.00036464632,0.00019836426,0.2376183,1.5258789e-05,-4.5776367e-05,2.7252197,0.00094509125,9.8022,0.23976135,-0.21679688,9.801367,-0.0003079325
-0.012311192,0.010870254,-15.660095,0.99385947,-0.21665105,-37.210083,0.0010979176,0.00019836426,0.23831423,0.0001373291,-0.00010681152,2.1484375,-0.0011367798,9.806976,0.24119568,-0.2172699,9.80136,0.0023662895
-0.012337321,0.010916426,-15.753174,0.99384785,-0.21703748,-39.25934,-0.00064119697,1.5258789e-05,0.23929158,1.5258789e-05,-4.5776367e-05,3.8162231,0.0022745132,9.803879,0.23808289,-0.21583557,9.801328,0.0020774007
-0.012307897,0.010897251,-15.727234,0.9938524,-0.21651389,-40.802002,0.0014618039,7.6293945e-05,0.23884691,7.6293945e-05,1.5258789e-05,2.9205322,0.00024318695,9.803879,0.2400055,-0.21679688,9.801351,-0.0003489256
-0.01231733,0.010885804,-15.559387,0.99385554,-0.21672916,-38.858032,-0.00072187185,0.0002593994,0.23863782,7.6293945e-05,7.6293945e-05,2.381897,-0.00032043457,9.8033905,0.23808289,-0.21702576,9.801351,-0.0001360178
-0.012321174,0.010858711,-15.458679,0.9938627,-0.21687731,-38.92975,-0.00033552945,0.0001373291,0.23810436,-0.00010681152,-4.5776367e-05,2.786255,-0.00054740906,9.804825,0.23951721,-0.2172699,9.80136,-8.4102154e-05
-0.012332709,0.010882838,-16.06903,0.99385655,-0.21703783,-39.08081,-0.00016623735,1.5258789e-05,0.23861061,7.6293945e-05,1.5258789e-05,3.4820557,0.00075244904,9.804825,0.2368927,-0.21821594,9.801343,0.001322493
-0.012357688,0.010844823,-15.4953,0.99386686,-0.21762861,-38.38806,-0.0014771074,7.6293945e-05,0.23790291,1.5258789e-05,0.00019836426,2.307129,0.00049877167,9.805557,0.23857117,-0.2172699,9.801348,-0.0013325363
-0.012311881,0.010869936,-15.505981,0.9938596,-0.21666537,-39.63318,0.0009099841,0.0001373291,0.2383093,-0.00010681152,-4.5776367e-05,3.1021118,0.0007991791,9.802673,0.23857117,-0.21607971,9.801359,0.0013638437
-0.012320482,0.010840329,-15.34729,0.99386746,-0.21691327,-39.231873,0.00017590821,0.0001373291,0.23773554,-4.5776367e-05,7.6293945e-05,3.35083,-0.0018568039,9.802444,0.23880005,-0.21751404,9.801369,-0.00067918
-0.01231631,0.010865087,-15.444946,0.9938609,-0.21676502,-38.635254,1.771748e-05,7.6293945e-05,0.23822162,1.5258789e-05,1.5258789e-05,3.0303955,-0.00092697144,9.8029175,0.23617554,-0.21463013,9.801359,0.0012411177
-0.012259061,0.010811584,-14.930725,0.99387395,-0.21578966,-37.661743,0.0016741306,0.0001373291,0.23703296,-4.5776367e-05,1.5258789e-05,2.0980835,-0.0006246567,9.805557,0.2368927,-0.21463013,9.80141,-0.0018643886
-0.012265578,0.010814289,-16.389465,0.99387336,-0.21590978,-38.182068,-9.997189e-05,7.6293945e-05,0.23710059,-0.00010681152,1.5258789e-05,2.027893,0.0011796951,9.801727,0.23736572,-0.2163086,9.801405,0.0004491806
-0.012250182,0.01080759,-15.699768,0.99387485,-0.21562678,-37.61139,7.408857e-05,0.0001373291,0.23693463,-0.00010681152,1.5258789e-05,2.6275635,-0.001449585,9.803162,0.23904419,-0.21702576,9.801415,0.00015962124
-0.012260141,0.010844494,-15.42511,0.9938654,-0.21572223,-38.674927,-6.0081482e-05,1.5258789e-05,0.23769291,-0.00010681152,-4.5776367e-05,2.2262573,0.00029182434,9.80722,0.23928833,-0.21607971,9.801395,0.00081956387
-0.012272803,0.010858437,-15.289307,0.9938619,-0.21593226,-37.287903,-6.891787e-05,7.6293945e-05,0.23799795,-4.5776367e-05,-0.00010681152,2.2445679,0.002272606,9.803635,0.23664856,-0.2163086,9.801383,0.00071553886
-0.012268605,0.010823656,-15.895081,0.993871,-0.21594378,-38.493347,0.0001680702,0.00019836426,0.23729412,-0.00030517578,0.0002593994,2.8518677,-0.0016717911,9.800278,0.23832703,-0.21678162,9.8014,-0.00094020367
-0.012269886,0.010824607,-16.16211,0.99387074,-0.2159663,-38.412476,-0.0010239035,0.0001373291,0.23731579,-0.00048828125,0.0002593994,3.2424927,-0.0022468567,9.802673,0.23976135,-0.21559143,9.801399,0.00072802603
-0.012258963,0.010865502,-15.684509,0.9938599,-0.21564263,-38.069153,8.645654e-05,0.0001373291,0.23811027,-0.00018310547,-0.00016784668,2.7832031,-7.1525574e-05,9.803635,0.23641968,-0.21894836,9.801387,0.0020851642
-0.012303046,0.010822929,-16.696167,0.9938717,-0.21661915,-38.432312,-0.0015683323,0.00019836426,0.2373514,-0.00010681152,1.5258789e-05,2.8961182,0.00074481964,9.8029175,0.23712158,-0.21606445,9.801384,-0.0009796321
-0.012301397,0.010798374,-16.12091,0.99387807,-0.2166529,-38.308716,-0.00033953786,1.5258789e-05,0.23685718,-0.00024414062,-4.5776367e-05,2.7633667,-0.0009460449,9.803635,0.23760986,-0.2182312,9.801394,-0.0002450347
-0.012334921,0.010809562,-15.602112,0.99387574,-0.21727835,-38.661194,-0.0006624758,7.6293945e-05,0.23715067,-4.5776367e-05,-0.00016784668,2.8625488,0.0011358261,9.800766,0.23880005,-0.21678162,9.801374,0.00040872395
-0.012345349,0.010831561,-15.844727,0.99387014,-0.21742305,-38.394165,0.0001745075,-4.5776367e-05,0.23761208,-4.5776367e-05,1.5258789e-05,2.532959,-0.0022735596,9.800766,0.2400055,-0.21606445,9.801359,0.001164645
-0.012311485,0.010881922,-17.05017,0.99385643,-0.21662535,-37.937927,0.0012967736,1.5258789e-05,0.23854806,-4.5776367e-05,0.0001373291,2.0019531,-0.0002450943,9.806274,0.23976135,-0.2163086,9.801355,0.0016809851
-0.012293392,0.010897496,-15.42511,0.9938521,-0.21622957,-37.591553,0.00020857155,1.5258789e-05,0.2388215,7.6293945e-05,-4.5776367e-05,3.4423828,0.0022306442,9.805069,0.23904419,-0.2182312,9.801356,0.0008918345
-0.012348048,0.010888709,-15.847778,0.9938553,-0.21732195,-37.597656,-0.001796484,0.00019836426,0.23875996,0.00018310547,1.5258789e-05,1.4953613,0.001326561,9.803635,0.23832703,-0.21798706,9.801333,-2.4542212e-05
-0.012327595,0.0108741755,-14.9887085,0.99385875,-0.21696118,-37.683105,0.00070141256,0.00019836426,0.23842682,-0.00010681152,7.6293945e-05,2.3361206,-0.00088214874,9.802673,0.23713684,-0.2131958,9.80135,9.068847e-05
-0.012283856,0.010859186,-16.914368,0.9938619,-0.21614636,-39.22577,0.0013244003,-4.5776367e-05,0.23803598,1.5258789e-05,7.6293945e-05,2.8015137,0.00037384033,9.804352,0.237854,-0.21655273,9.801377,-0.0004837215
-0.012259831,0.01085649,-16.018677,0.9938622,-0.21568386,-38.337708,0.00037768483,-4.5776367e-05,0.23793197,1.5258789e-05,7.6293945e-05,2.1224976,0.00039958954,9.804108,0.2400055,-0.21679688,9.80139,-0.00038430095
-0.012300952,0.0108845355,-15.296936,0.9938556,-0.21641235,-38.33618,-0.0012739301,1.5258789e-05,0.23857827,1.5258789e-05,-4.5776367e-05,1.9943237,-6.0081482e-05,9.804352,0.2400055,-0.2172699,9.801358,0.0015936643
-0.012303707,0.010901654,-15.338135,0.9938512,-0.21642005,-37.838745,-0.0005456358,3.0517578e-05,0.23892614,7.6293945e-05,0.00019836426,2.5604248,0.00028133392,9.804596,0.237854,-0.21534729,9.80135,0.0007688999
-0.012274049,0.010891613,-15.730286,0.9938533,-0.21586724,-38.575745,0.0008086413,7.6293945e-05,0.23866352,-0.00018310547,-0.00016784668,2.055359,2.3841858e-05,9.805786,0.23904419,-0.21774292,9.801368,-0.0006467551
-0.012318185,0.010882805,-15.209961,0.9938563,-0.21675396,-38.25226,-0.0014042854,-0.00015258789,0.23857968,-0.00010681152,7.6293945e-05,2.2399902,0.0011358261,9.804596,0.23832703,-0.2163086,9.801352,0.00014008582
-0.012293896,0.010893595,-16.12091,0.9938531,-0.21624996,-37.85858,0.00072708726,-9.1552734e-05,0.23874462,0.0001373291,-4.5776367e-05,2.84729,-0.00035762787,9.802673,0.23832703,-0.21749878,9.801358,-0.00049327314
-0.0123403575,0.010880033,-15.539551,0.9938574,-0.21719494,-37.81433,-0.0016939491,0.0001373291,0.23857051,1.5258789e-05,-4.5776367e-05,2.7923584,-0.00087833405,9.804825,0.24215698,-0.21917725,9.801341,-0.00030881166
-0.012367314,0.010934646,-15.895081,0.99384356,-0.21757472,-37.139893,-0.0005919188,0.0001373291,0.23971838,-0.00016784668,1.5258789e-05,3.022766,0.00038146973,9.804352,0.237854,-0.21655273,9.801305,0.0023674667
-0.0123450495,0.010887766,-15.408325,0.9938555,-0.21726587,-37.478638,0.00077983737,1.5258789e-05,0.2387349,-0.00030517578,0.00019836426,2.6397705,0.00025081635,9.803162,0.23760986,-0.21702576,9.801336,-0.0014424771
-0.012319562,0.0108845765,-15.789795,0.9938559,-0.21677612,-38.56659,-0.00066781044,0.0001373291,0.23861794,7.6293945e-05,1.5258789e-05,3.3370972,0.0012664795,9.80484,0.23832703,-0.21749878,9.80135,0.00082208216
-0.012340063,0.010867643,-15.710449,0.99386066,-0.2172226,-38.705444,-0.00069877505,1.5258789e-05,0.2383223,0.0001373291,-4.5776367e-05,3.4210205,-0.00043201447,9.806259,0.24023438,-0.21679688,9.801348,0.00017681718
-0.012317871,0.010898656,-15.45105,0.9938522,-0.2167051,-37.88147,0.00095127523,0.0001373291,0.23889582,7.6293945e-05,7.6293945e-05,3.036499,0.001461029,9.801483,0.24047852,-0.21559143,9.801345,0.0012484342
-0.012317644,0.010924045,-14.654541,0.9938455,-0.21663217,-38.243103,0.00013692677,1.5258789e-05,0.23940274,-0.00010681152,1.5258789e-05,2.9083252,-0.0022230148,9.802673,0.2400055,-0.2163086,9.801333,0.0012563765
-0.0123119,0.010933146,-15.6188965,0.9938431,-0.21649529,-37.75177,0.0002349168,1.5258789e-05,0.23957263,0.0001373291,1.5258789e-05,2.708435,-0.0008420944,9.8029175,0.24047852,-0.2172699,9.801332,0.00037950277
-0.012302041,0.010923708,-16.48407,0.99384534,-0.216328,-38.609314,6.310642e-05,1.5258789e-05,0.23936342,1.5258789e-05,1.5258789e-05,2.7450562,-0.00040340424,9.803635,0.23832703,-0.2163086,9.801341,-0.00012342632
-0.012319679,0.010918948,-15.844727,0.9938469,-0.21668573,-37.7182,-0.0005414486,0.0001373291,0.23930515,0.0001373291,-4.5776367e-05,2.6184082,-0.00010585785,9.802444,0.23951721,-0.21751404,9.801335,-6.3985586e-05
-0.012339266,0.01090739,-15.52887,0.99385023,-0.21709988,-38.89923,-0.0006132871,7.6293945e-05,0.23911504,-0.00016784668,-4.5776367e-05,1.7379761,-0.0011911392,9.804352,0.23808289,-0.21894836,9.801331,-0.00010365248
-0.012343987,0.010883439,-14.930725,0.99385655,-0.21725674,-37.81128,-0.00043350458,7.6293945e-05,0.2386462,-0.00022888184,1.5258789e-05,2.0965576,0.002070427,9.80603,0.24023438,-0.2172699,9.801338,-0.00037704408
-0.012362575,0.010893639,-15.289307,0.9938542,-0.2175927,-37.93335,-0.00056658685,1.5258789e-05,0.23888886,6.1035156e-05,1.5258789e-05,3.2852173,0.0016946793,9.802673,0.23904419,-0.2182312,9.801325,0.00079351664
-0.012357528,0.010906454,-15.016174,0.99385077,-0.21745948,-37.94098,8.702278e-06,1.5258789e-05,0.23913449,-4.5776367e-05,-4.5776367e-05,2.972412,-0.0007829666,9.803635,0.23857117,-0.2182312,9.801323,0.0003131628
-0.012386328,0.010884589,-16.059875,0.99385697,-0.21808152,-37.79297,-0.00081445277,0.0001373291,0.2387575,-0.00018310547,-0.00010681152,1.5625,-0.0009994507,9.803162,0.23857117,-0.21870422,9.801317,-0.00048784912
-0.012392084,0.010864102,-15.176392,0.9938624,-0.21824928,-37.590027,7.292628e-05,7.6293945e-05,0.23836003,-0.00016784668,-0.00010681152,2.809143,-0.0011453629,9.803635,0.23713684,-0.21607971,9.801324,-0.00032037497
-0.012335784,0.010859336,-15.151978,0.99386275,-0.21716128,-38.30719,0.0020926744,7.6293945e-05,0.23814732,1.5258789e-05,0.0001373291,2.0004272,0.000995636,9.803635,0.23904419,-0.21702576,9.8013525,-0.0003479272
-0.012354297,0.010877303,-14.91394,0.99385834,-0.21747486,-37.142944,-0.00045989454,-0.00015258789,0.23854506,0.00012207031,-0.00016784668,2.4215698,0.00018596649,9.804108,0.23760986,-0.21655273,9.801336,0.0009147823
-0.012354476,0.010858497,-16.201782,0.9938633,-0.21752903,-36.819458,0.00031249225,-4.5776367e-05,0.23816954,-0.00016784668,-0.00010681152,2.8518677,0.0001296997,9.803635,0.23928833,-0.21821594,9.801344,-0.0010911375
-0.012364028,0.010885986,-15.266418,0.99385625,-0.21764171,-38.500977,-4.8354268e-05,1.5258789e-05,0.23873888,0.0001373291,0.0001373291,2.4765015,-7.343292e-05,9.803635,0.23808289,-0.21846008,9.801327,0.00096449256
-0.01238195,0.010867588,-15.318298,0.9938613,-0.21804173,-37.965393,-0.0015730262,1.5258789e-05,0.23840857,-0.00016784668,1.5258789e-05,3.9260864,-0.00021839142,9.804352,0.24047852,-0.21749878,9.801327,-0.00061006844
-0.0123552345,0.01090327,-15.525818,0.9938516,-0.21742322,-37.6709,0.0016385019,0.00019836426,0.23906605,1.5258789e-05,7.6293945e-05,3.0334473,1.8119812e-05,9.804596,0.23880005,-0.21463013,9.801325,0.0016006827
-0.012310831,0.010882078,-15.762329,0.9938564,-0.21661213,-38.56201,0.001072824,0.0001373291,0.2385498,-0.00030517578,7.6293945e-05,1.5701294,0.00016498566,9.801483,0.23880005,-0.21798706,9.801355,-0.00028018653
-0.012323043,0.010875455,-15.896606,0.99385834,-0.21686876,-39.016724,-0.0008223355,0.0001373291,0.2384429,-4.5776367e-05,7.6293945e-05,2.7664185,-5.9127808e-05,9.803635,0.23880005,-0.21655273,9.801352,0.000300169
-0.012316143,0.010876403,-15.489197,0.993858,-0.21673128,-37.039185,0.00022804737,1.5258789e-05,0.23844744,7.6293945e-05,-4.5776367e-05,2.558899,-0.00020313263,9.804108,0.23857117,-0.21774292,9.801354,6.92606e-05
-0.012342164,0.010866096,-15.380859,0.9938611,-0.21726784,-37.49237,-0.00066907704,0.0001373291,0.23829575,-0.00010681152,-0.00016784668,3.0426025,2.5749207e-05,9.803635,0.24095154,-0.2172699,9.801347,0.00022041798
-0.012348455,0.0108960355,-15.788269,0.9938534,-0.21731015,-38.793945,0.00033326447,1.5258789e-05,0.23890728,7.6293945e-05,-4.5776367e-05,3.3355713,-0.0001449585,9.803635,0.23976135,-0.21655273,9.801331,0.0015174896
-0.012316822,0.010927185,-15.138245,0.9938447,-0.21660763,-37.52899,0.0013203323,7.6293945e-05,0.23946382,-0.00010681152,1.5258789e-05,3.3752441,0.0010213852,9.804825,0.23617554,-0.21440125,9.801333,0.001192525
-0.012292748,0.010861398,-15.174866,0.9938615,-0.21631429,-38.342285,0.0007753968,1.5258789e-05,0.23809876,-0.00010681152,-0.00010681152,2.7236938,-0.00059223175,9.804596,0.23976135,-0.21655273,9.801373,-0.0024540871
-0.012298395,0.010894059,-16.65802,0.99385303,-0.21633668,-38.101196,9.2461705e-05,0.0002593994,0.23876329,-4.5776367e-05,0.0002593994,2.418518,0.0010404587,9.804108,0.23976135,-0.21846008,9.801356,0.0014000386
-0.012320869,0.01089468,-15.605164,0.9938533,-0.21677443,-38.134766,-0.0016252697,1.5258789e-05,0.23882261,0.0002593994,-0.00016784668,2.8671265,-0.00043964386,9.804108,0.23904419,-0.21678162,9.801345,0.0011163503
-0.012320806,0.01087978,-15.686035,0.99385715,-0.21681336,-37.69226,0.00057044625,0.0001373291,0.23852468,-0.00016784668,-4.5776367e-05,2.786255,0.0005044937,9.803146,0.2400055,-0.21870422,9.801351,-0.00051403046
-0.012361809,0.010895266,-15.2786255,0.9938538,-0.21757333,-37.86316,-0.0013259202,7.6293945e-05,0.23891978,-0.00010681152,-0.00010681152,3.4469604,-0.001581192,9.804108,0.23664856,-0.21870422,9.801325,0.0015047938
-0.012385427,0.010909822,-15.202332,0.99385035,-0.21799588,-37.730408,0.00054335594,0.0001373291,0.23926003,7.6293945e-05,-0.00010681152,2.4047852,0.0005235672,9.804352,0.24215698,-0.21751404,9.801308,0.0028294474
-0.012356203,0.010887772,-16.30249,0.99385566,-0.21748392,-38.250732,0.0012169927,0.0001373291,0.23875828,-4.5776367e-05,-4.5776367e-05,2.2720337,-0.0017251968,9.801712,0.23832703,-0.2182312,9.801331,-0.00095000863
-0.012392872,0.010887947,-15.527344,0.9938562,-0.21820045,-36.94763,-0.0007274896,-9.1552734e-05,0.23883832,0.00036621094,-4.5776367e-05,1.9943237,-0.001953125,9.800766,0.23855591,-0.2172699,9.801313,0.00065653026
-0.012363225,0.01088662,-15.492249,0.9938561,-0.21762432,-37.487793,0.000874877,-9.1552734e-05,0.2387499,7.6293945e-05,-4.5776367e-05,2.4749756,0.0011014938,9.805069,0.23976135,-0.21846008,9.801328,-0.00070233643
-0.012389841,0.010902382,-15.553284,0.9938524,-0.21810223,-37.95929,-0.0008018166,1.5258789e-05,0.23912051,1.5258789e-05,1.5258789e-05,2.6306152,0.0010519028,9.804825,0.24072266,-0.21559143,9.801308,0.00059223175
-0.012345449,0.0109353345,-16.08429,0.993843,-0.21714535,-39.152527,0.002320975,7.6293945e-05,0.23968646,0.00019836426,-0.00010681152,3.2409668,0.00054073334,9.803162,0.23808289,-0.21774292,9.801315,0.0012100339
-0.012362387,0.010905009,-15.628052,0.99385124,-0.21755837,-40.948486,-0.0006278008,-9.1552734e-05,0.23911572,0.0001373291,-0.00016784668,3.326416,-0.00043201447,9.800766,0.23904419,-0.21749878,9.80132,-0.001082331
-0.012376267,0.010901035,-15.608215,0.9938525,-0.21784048,-40.579224,0.00012883544,7.6293945e-05,0.23906526,0.00019836426,-0.00010681152,3.652954,-0.0012397766,9.803635,0.23928833,-0.21798706,9.801315,-5.541742e-05
-0.012375679,0.010890574,-15.211487,0.99385524,-0.21785717,-38.70392,0.0006251186,1.5258789e-05,0.23885494,7.6293945e-05,-0.00010681152,2.156067,0.0006122589,9.8029175,0.23904419,-0.21774292,9.80132,-0.00032526255
-0.012389966,0.01089867,-16.542053,0.99385333,-0.21811467,-39.154053,-8.456409e-05,7.6293945e-05,0.23904656,7.6293945e-05,-0.00022888184,2.897644,-0.0005455017,9.806503,0.23760986,-0.21751404,9.801309,0.00043563545
-0.012370945,0.010861759,-15.193176,0.9938627,-0.21784224,-38.005066,0.0008793473,-4.5776367e-05,0.23826909,0.0,1.5258789e-05,3.6102295,0.0028295517,9.805069,0.23904419,-0.2163086,9.801334,-0.00097210705
-0.012361192,0.010880718,-16.151428,0.99385756,-0.2176005,-39.24408,0.0006495416,7.6293945e-05,0.2386277,-4.5776367e-05,-0.00016784668,3.3172607,0.0010852814,9.80722,0.237854,-0.21702576,9.8013315,0.0005785972
-0.012349007,0.0108546205,-15.753174,0.9938642,-0.21743251,-39.51416,0.00096039474,-9.1552734e-05,0.23808064,-0.00010681152,-4.5776367e-05,2.6885986,0.0005750656,9.801956,0.23760986,-0.21678162,9.801348,-0.0010320693
-0.012343526,0.010880349,-14.878845,0.9938574,-0.21725607,-37.53357,0.0005451143,7.6293945e-05,0.23858348,0.0001373291,-0.00010681152,2.9037476,-0.00089359283,9.804108,0.23951721,-0.21678162,9.80134,0.0006272495
-0.012341287,0.010874561,-15.994263,0.9938589,-0.21722786,-38.798523,2.0205975e-05,7.6293945e-05,0.23846309,-0.00036621094,0.00019836426,2.4429321,-0.0007610321,9.805786,0.23880005,-0.2182312,9.801343,3.9756298e-05
-0.012329767,0.010867245,-15.615845,0.9938606,-0.21702236,-38.279724,6.8992376e-05,0.00019836426,0.23829284,1.5258789e-05,-0.00016784668,2.7038574,0.0009202957,9.804108,0.2368927,-0.21655273,9.8013525,0.0001835823
-0.012345102,0.010844432,-14.935303,0.9938668,-0.21738362,-38.30719,-6.532669e-05,1.5258789e-05,0.23786888,-4.5776367e-05,-4.5776367e-05,3.0578613,-0.00065517426,9.804108,0.23928833,-0.21749878,9.801355,-0.00057436526
-0.012341919,0.010853824,-15.055847,0.9938643,-0.2172961,-37.77466,0.00034309924,-4.5776367e-05,0.23804997,0.0001373291,-4.5776367e-05,2.4093628,0.0006790161,9.804596,0.237854,-0.21583557,9.8013525,0.00091451406
-0.012330787,0.010851808,-15.898132,0.9938646,-0.21708386,-38.79242,0.0006067753,7.6293945e-05,0.23798643,1.5258789e-05,-0.00016784668,2.7679443,0.00029468536,9.805313,0.23904419,-0.21678162,9.801358,-0.000459522
-0.012328765,0.0108598,-15.724182,0.9938625,-0.21702282,-37.677002,0.00078327954,-0.00015258789,0.23814195,0.0001373291,-4.5776367e-05,2.2216797,-0.00059604645,9.805542,0.24047852,-0.2163086,9.801356,0.0008264482
-0.0123260645,0.010918725,-16.9281,0.9938471,-0.21681115,-38.8443,0.00058333576,-4.5776367e-05,0.239314,-0.00010681152,-4.5776367e-05,2.6428223,0.0010471344,9.804352,0.23951721,-0.2163086,9.8013315,0.0013194978
-0.012311178,0.010921347,-15.847778,0.9938461,-0.21651304,-37.34131,0.0010026395,-4.5776367e-05,0.23933533,1.5258789e-05,-0.00016784668,2.62146,6.198883e-05,9.805786,0.23904419,-0.21679688,9.801338,-0.00013659894
-0.012329234,0.010916563,-15.551758,0.99384767,-0.21687898,-37.88452,-0.00031612813,0.0001373291,0.23927742,-0.00010681152,1.5258789e-05,2.6306152,-0.00058841705,9.804596,0.23736572,-0.21534729,9.8013315,0.00015728176
-0.012300389,0.010885764,-15.663147,0.99385524,-0.21639805,-38.485718,0.00088337064,7.6293945e-05,0.23860167,-0.00016784668,0.0001373291,1.9760132,0.00023365021,9.805313,0.23808289,-0.21702576,9.801359,-0.00083230436
-0.012306649,0.010870112,-16.104126,0.99385947,-0.2165626,-38.542175,-0.0011016726,0.00019836426,0.23830192,-4.5776367e-05,7.6293945e-05,3.0044556,0.00014781952,9.804352,0.24023438,-0.21655273,9.801362,-0.0003055781
-0.0122938985,0.010889189,-15.765381,0.9938543,-0.21616533,-38.00659,0.00017224252,0.0001373291,0.23914848,0.0001373291,7.6293945e-05,2.7008057,-0.0014238358,9.805542,0.23857117,-0.21678162,9.801351,0.0012511164
-0.012279187,0.010878568,-16.06903,0.9938568,-0.21600288,-37.686157,2.1740794e-05,7.6293945e-05,0.23841359,0.00019836426,-4.5776367e-05,2.5299072,0.0011072159,9.8033905,0.24095154,-0.21678162,9.801372,-0.00065152347
-0.012321684,0.010922558,-15.368652,0.993846,-0.21671517,-38.127136,-0.0012022406,-9.1552734e-05,0.23938146,7.6293945e-05,-4.5776367e-05,2.0736694,-0.0013360977,9.802444,0.2368927,-0.21678162,9.801332,0.0019814223
-0.012318456,0.010874311,-16.47644,0.9938585,-0.21678215,-38.38806,6.335974e-05,7.6293945e-05,0.23841049,0.0001373291,0.00019836426,2.9067993,-0.0005607605,9.80603,0.23976135,-0.21846008,9.801355,-0.0023040473
-0.012320362,0.010902142,-15.637207,0.9938513,-0.21674441,-37.86316,-0.00045759976,-9.1552734e-05,0.2389707,6.1035156e-05,7.6293945e-05,3.5110474,0.00041294098,9.804825,0.23857117,-0.2163086,9.801342,0.0014329702
-0.012324172,0.010879588,-15.827942,0.99385726,-0.2168797,-37.649536,-0.00079227984,0.00019836426,0.23852786,0.0001373291,0.0001373291,2.861023,0.00026988983,9.801956,0.23736572,-0.2163086,9.80135,-0.0007518679
-0.012293751,0.010857763,-16.35437,0.99386245,-0.2163437,-38.572693,0.00081051886,-4.5776367e-05,0.23802821,1.5258789e-05,-4.5776367e-05,2.5100708,-0.0010957718,9.8033905,0.23904419,-0.21655273,9.801374,-0.0007265955
-0.0123047065,0.010888567,-15.643311,0.9938546,-0.21647489,-37.365723,-4.130602e-05,0.0001373291,0.2386667,0.0001373291,-4.5776367e-05,2.3880005,-0.001999855,9.8022,0.2400055,-0.21679688,9.801355,0.0010543764
-0.012300951,0.010897301,-15.737915,0.99385226,-0.21637791,-35.86731,0.0003465861,7.6293945e-05,0.2388334,-0.00022888184,0.0001373291,2.2354126,0.0010519028,9.804825,0.23736572,-0.2131958,9.8013525,0.0011187047
-0.0122451335,0.010872659,-16.099548,0.9938578,-0.21535298,-37.86621,0.0014933646,7.6293945e-05,0.23822446,-0.00010681152,1.5258789e-05,3.1707764,0.00053215027,9.8029175,0.23664856,-0.22038269,9.801392,-0.0009177774
-0.012319561,0.010833338,-14.651489,0.99386925,-0.21691407,-37.94403,-0.0034228414,1.5258789e-05,0.23759386,-0.00010681152,1.5258789e-05,2.9891968,-0.00076675415,9.802673,0.2368927,-0.21870422,9.801372,-0.001239568
-0.012353364,0.010808593,-16.000366,0.9938763,-0.21764155,-39.471436,-0.001266405,0.00032043457,0.23716971,-4.5776367e-05,7.6293945e-05,2.2766113,-0.0005121231,9.802429,0.23617554,-0.2163086,9.801366,-0.00056520104
-0.01231292,0.010778937,-15.348816,0.9938833,-0.21693046,-37.834167,0.000890404,-9.1552734e-05,0.23649272,-0.00022888184,1.5258789e-05,2.3971558,-2.7656555e-05,9.804596,0.23808289,-0.21702576,9.801398,-0.00036038458
-0.012320037,0.010803432,-15.644836,0.99387705,-0.21700379,-38.612366,-0.00022646785,0.0001373291,0.23699713,1.5258789e-05,-4.5776367e-05,3.3447266,-2.7656555e-05,9.800766,0.23880005,-0.21751404,9.801384,0.0008136034
-0.012344252,0.010834586,-16.445923,0.99386936,-0.2173935,-38.42926,-0.00033055246,0.00019836426,0.2376703,-0.00016784668,7.6293945e-05,2.2644043,-0.0019321442,9.803879,0.24072266,-0.21942139,9.80136,0.0018263012
-0.012375429,0.010860137,-16.603088,0.99386317,-0.21793431,-38.227844,-0.0014444441,-4.5776367e-05,0.23824602,-4.5776367e-05,-0.00016784668,2.0980835,0.0020627975,9.80603,0.2368927,-0.21774292,9.801333,0.0017128736
-0.012365504,0.010831094,-16.668701,0.9938706,-0.21781841,-38.59253,0.0008518547,0.0002593994,0.2376448,1.5258789e-05,7.6293945e-05,3.2989502,0.0015277863,9.801239,0.23976135,-0.21702576,9.801351,-0.0005725622
-0.0123723755,0.010868421,-15.176392,0.99386096,-0.21785226,-38.191223,-9.213388e-05,-4.5776367e-05,0.23840521,7.6293945e-05,-0.00010681152,2.7236938,-0.0015230179,9.8033905,0.23857117,-0.21870422,9.801331,0.0013094544
-0.012369119,0.010869776,-16.012573,0.99386054,-0.21778494,-38.760376,8.222461e-05,7.6293945e-05,0.23842551,-0.00010681152,-4.5776367e-05,3.2455444,-0.00022411346,9.800049,0.23880005,-0.21606445,9.8013315,0.00033050776
-0.012358202,0.01088827,-15.620422,0.99385554,-0.21752167,-37.602234,0.0009897202,1.5258789e-05,0.2387724,0.00030517578,-0.00010681152,2.709961,-0.0017442703,9.800995,0.23808289,-0.21870422,9.80133,0.00072196126
-0.012373039,0.010850843,-15.788269,0.99386555,-0.21791257,-38.52234,-0.00031626225,7.6293945e-05,0.23805526,1.5258789e-05,-4.5776367e-05,2.293396,-0.0016403198,9.800995,0.23713684,-0.2172699,9.801338,-0.0011651665
-0.012350434,0.010832902,-15.652466,0.9938699,-0.21751888,-37.556458,0.00072436035,1.5258789e-05,0.2376495,0.0001373291,0.0001373291,3.352356,2.0980835e-05,9.8022,0.237854,-0.21559143,9.801356,-0.00028635561
-0.012311592,0.010854576,-15.441895,0.9938636,-0.21670108,-37.91504,0.0008748621,7.6293945e-05,0.2380017,0.0001373291,7.6293945e-05,2.0721436,0.00063991547,9.800049,0.23927307,-0.2163086,9.801366,0.000559181
-0.01233055,0.010858455,-15.82489,0.99386287,-0.21706131,-38.179016,-0.00039945543,0.0001373291,0.23811878,1.5258789e-05,-0.00022888184,2.8564453,0.003947258,9.808182,0.23808289,-0.21606445,9.801355,0.00062280893
-0.012307201,0.010843934,-15.885925,0.99386626,-0.21664388,-38.346863,0.001550898,-0.00015258789,0.23777987,0.00032043457,1.5258789e-05,3.0136108,-0.0024747849,9.802444,0.2400055,-0.21678162,9.8013735,-0.00019793212
-0.012310603,0.010910114,-15.275574,0.99384904,-0.21653207,-39.067078,-9.387732e-06,7.6293945e-05,0.23910962,1.5258789e-05,-4.5776367e-05,3.3569336,-0.001332283,9.8033905,0.2400055,-0.21751404,9.801343,0.002073601
-0.012316496,0.01088155,-16.027832,0.9938566,-0.21672432,-38.453674,-1.719594e-05,-4.5776367e-05,0.23855105,0.00030517578,-4.5776367e-05,3.088379,0.0026197433,9.804108,0.2368927,-0.21247864,9.8013525,-0.0005123168
-0.012270914,0.010886176,-15.914917,0.99385464,-0.2158206,-37.283325,0.002198562,1.5258789e-05,0.23854834,1.5258789e-05,-0.00016784668,2.6992798,0.0020694733,9.803635,0.23976135,-0.21368408,9.801372,-0.0005340278
-0.012242361,0.010892257,-15.65094,0.9938526,-0.21524595,-37.70752,0.0016071647,-4.5776367e-05,0.23861027,0.00012207031,-0.00010681152,3.35083,-0.001490593,9.8033905,0.23832703,-0.21678162,9.801384,0.0006278455
-0.012272937,0.010906573,-15.786743,0.9938494,-0.21580517,-37.246704,-0.0007056743,0.0001373291,0.2389602,6.1035156e-05,-0.00010681152,2.4658203,-0.00034809113,9.801956,0.23904419,-0.21559143,9.801363,0.0005106181
-0.01227784,0.010886269,-14.839172,0.99385476,-0.21595576,-38.256836,0.00015069544,0.00019836426,0.23856466,6.1035156e-05,-4.5776367e-05,2.3376465,-0.0010271072,9.8029175,0.23928833,-0.21798706,9.801369,-0.00027133524
-0.012314389,0.010884581,-15.591431,0.9938558,-0.21667497,-37.913513,-0.0012746006,7.6293945e-05,0.23860726,-4.5776367e-05,7.6293945e-05,3.1097412,0.00058555603,9.803146,0.23760986,-0.21534729,9.8013525,0.00039562583
-0.012260678,0.010819873,-15.254211,0.9938718,-0.21579899,-37.677002,0.00022725761,7.6293945e-05,0.237202,1.5258789e-05,0.0001373291,2.7252197,-0.0012903214,9.804825,0.23904419,-0.21343994,9.801406,-0.0010481328
-0.012230844,0.010854882,-15.992737,0.9938622,-0.21512146,-37.519836,0.0014825761,7.6293945e-05,0.2378394,0.0004272461,-4.5776367e-05,2.6138306,0.002322197,9.803162,0.2400055,-0.21606445,9.801406,0.0016278476
-0.012238884,0.010864,-16.950989,0.99385995,-0.2152541,-38.354492,-4.8324466e-05,-4.5776367e-05,0.23803835,0.0002593994,-0.00022888184,3.4484863,-5.054474e-05,9.804596,0.23808289,-0.21655273,9.801397,0.0007273257
-0.0122702215,0.010882771,-15.5807495,0.99385554,-0.21581623,-37.76703,-0.00092849135,7.6293945e-05,0.23847885,0.00036621094,-4.5776367e-05,3.2730103,0.0006093979,9.803146,0.23808289,-0.2141571,9.8013735,0.0007518381
-0.012263219,0.010871017,-16.522217,0.9938585,-0.21571098,-41.314697,0.0008842349,1.5258789e-05,0.23822935,1.5258789e-05,-0.00010681152,4.0893555,-0.00039482117,9.803162,0.23832703,-0.21679688,9.801382,-0.0001989305
-0.012277467,0.01088125,-15.6188965,0.9938561,-0.21596202,-39.82544,-7.458031e-05,7.6293945e-05,0.2384636,7.6293945e-05,-4.5776367e-05,3.578186,-0.00041103363,9.8029175,0.23832703,-0.21894836,9.801372,0.0002888441
-0.01233164,0.010859557,-15.74707,0.9938626,-0.21707967,-39.186096,-0.0018244833,7.6293945e-05,0.2381431,0.0001373291,-0.00010681152,3.8970947,4.005432e-05,9.803635,0.2400055,-0.21679688,9.801354,-0.00010871887
-0.01234398,0.01087893,-15.170288,0.99385774,-0.21726878,-38.267517,-0.0001950711,1.5258789e-05,0.23855606,1.5258789e-05,1.5258789e-05,2.8045654,0.00050354004,9.8033905,0.23880005,-0.21534729,9.801341,0.0011501908
-0.0122988075,0.010885939,-15.196228,0.9938552,-0.21636663,-39.131165,0.0017792135,7.6293945e-05,0.23860185,0.0001373291,1.5258789e-05,3.440857,-0.000620842,9.803635,0.23880005,-0.21607971,9.801359,0.00015108287
-0.012294036,0.010903531,-15.67688,0.9938505,-0.2162259,-39.12506,0.00019858778,-0.00021362305,0.23894346,0.0002593994,-0.00010681152,2.7755737,0.00086688995,9.803162,0.24047852,-0.21679688,9.801353,0.0007600039
-0.0123088965,0.010920576,-16.227722,0.9938463,-0.21647048,-39.074707,0.00020496547,-9.1552734e-05,0.23931514,0.00030517578,-0.00010681152,4.359436,-0.00084495544,9.8029175,0.23760986,-0.21511841,9.801339,-7.44313e-05
-0.012306761,0.010905431,-15.614319,0.99385023,-0.21646959,-37.078857,0.00019925833,1.5258789e-05,0.239008,0.00018310547,-0.00010681152,2.8747559,-0.00040626526,9.803635,0.23928833,-0.21487427,9.801347,-0.0009673685
-0.012277908,0.010899177,-15.257263,0.99385136,-0.21592231,-38.2782,0.0013099015,-4.5776367e-05,0.23882279,0.00019836426,-4.5776367e-05,2.6412964,-0.0004310608,9.801239,0.23976135,-0.2182312,9.801364,-0.0005322248
-0.012314662,0.010921302,-15.356445,0.9938462,-0.21658127,-37.8006,-0.0013717264,-9.1552734e-05,0.2393417,-4.5776367e-05,0.0001373291,3.363037,3.9100647e-05,9.803635,0.23545837,-0.21774292,9.801336,0.0008702874
-0.012328039,0.010853205,-16.497803,0.99386424,-0.21702637,-38.796997,-0.0011708885,7.6293945e-05,0.23800863,0.00038146973,0.0001373291,3.62854,2.5749207e-05,9.801483,0.23570251,-0.21894836,9.801359,-0.002831623
-0.012333609,0.010812255,-15.104675,0.99387497,-0.21724543,-37.243652,-0.00070764124,7.6293945e-05,0.23720175,7.6293945e-05,-0.00010681152,3.9413452,1.04904175e-05,9.803162,0.23928833,-0.2141571,9.8013735,-0.0010633171
-0.012322057,0.010857177,-15.942383,0.9938631,-0.2168987,-37.76703,0.0015836954,-9.1552734e-05,0.23807554,0.00019836426,-0.00016784668,3.3370972,-0.00014591217,9.8029175,0.24047852,-0.21583557,9.80136,0.0014062375
-0.012294232,0.01088868,-15.029907,0.9938544,-0.21626979,-37.968445,0.0011948347,1.5258789e-05,0.23864707,-4.5776367e-05,7.6293945e-05,1.6876221,0.0010223389,9.805542,0.23832703,-0.21655273,9.80136,0.0010663271
-0.012299893,0.010881126,-15.414429,0.9938565,-0.21640088,-38.153076,-0.00010609627,0.0001373291,0.23850797,1.5258789e-05,-0.00016784668,2.4719238,0.0002002716,9.803162,0.23664856,-0.21751404,9.801362,0.00024163723
-0.012335843,0.010836911,-15.90271,0.9938686,-0.21722281,-37.43744,-0.0009697825,-4.5776367e-05,0.23769923,-0.00010681152,-4.5776367e-05,2.859497,-0.00065898895,9.804108,0.23808289,-0.21702576,9.801362,-0.0010929108
-0.012318372,0.010841789,-15.126038,0.99386704,-0.21686807,-38.137817,0.0006123036,7.6293945e-05,0.23776029,0.0001373291,-0.00016784668,3.5308838,0.0013132095,9.805313,0.23880005,-0.21655273,9.801369,-0.00020834804
-0.012324691,0.010856182,-15.901184,0.9938634,-0.21695289,-37.664795,0.00046285987,7.6293945e-05,0.23806116,0.00019836426,-4.5776367e-05,2.8579712,0.0008764267,9.804596,0.23951721,-0.21678162,9.80136,0.0011583716
-0.012306575,0.010875801,-15.890503,0.993858,-0.21654584,-38.41858,0.00030107796,-0.00015258789,0.23841545,7.6293945e-05,7.6293945e-05,2.9312134,0.00010204315,9.804825,0.23928833,-0.21702576,9.80136,0.00078731775
-0.012339481,0.010895157,-16.340637,0.99385345,-0.21713705,-38.99994,-0.0010236055,7.6293945e-05,0.238871,0.0001373291,7.6293945e-05,3.793335,0.0005502701,9.804352,0.23928833,-0.21487427,9.801335,0.0005686432
-0.0122921355,0.010900615,-16.316223,0.99385124,-0.21619663,-38.468933,0.0016316473,0.0001373291,0.23888123,0.00030517578,1.5258789e-05,2.029419,-0.0004310608,9.803146,0.23713684,-0.21536255,9.801356,0.0003351122
-0.012263035,0.010868231,-15.925598,0.99385923,-0.21571492,-37.278748,0.0009070784,7.6293945e-05,0.2381733,-4.5776367e-05,-4.5776367e-05,2.5375366,0.0001783371,9.804352,0.24023438,-0.21679688,9.801384,-0.0011098236
-0.012295828,0.010897336,-16.911316,0.99385214,-0.21627766,-37.348938,-0.0006900579,-4.5776367e-05,0.23882338,7.6293945e-05,-4.5776367e-05,3.0578613,-0.0008249283,9.8029175,0.23904419,-0.2163086,9.801355,0.0013469011
-0.012291283,0.010900052,-15.423584,0.99385136,-0.21618146,-37.216187,0.0003925413,1.5258789e-05,0.23886819,-6.1035156e-05,-4.5776367e-05,3.5247803,-0.0010271072,9.803879,0.23641968,-0.21463013,9.801356,0.0001244545
-0.012261229,0.010860022,-16.160583,0.9938613,-0.2157017,-38.111877,0.000881508,-4.5776367e-05,0.2380055,0.0001373291,0.0001373291,3.326416,0.0007505417,9.799805,0.23640442,-0.21440125,9.801389,-0.001889646
-0.0122638345,0.010836635,-15.164185,0.9938675,-0.21581562,-38.346863,-0.0014169365,7.6293945e-05,0.23754355,7.6293945e-05,7.6293945e-05,2.885437,0.001502037,9.804108,0.23760986,-0.21679688,9.801397,0.0004982054
-0.012269939,0.010858736,-15.621948,0.9938618,-0.21587549,-37.028503,-0.0008778423,1.5258789e-05,0.23799796,7.6293945e-05,1.5258789e-05,1.6677856,0.0005168915,9.8033905,0.23664856,-0.21463013,9.801385,0.0009982139
-0.012242313,0.010821576,-16.271973,0.9938711,-0.2154353,-38.908386,0.0013159811,0.00019836426,0.23719774,0.0001373291,1.5258789e-05,3.717041,-0.00045871735,9.801483,0.23880005,-0.21655273,9.801414,-0.0013079196
-0.012266146,0.0108367745,-16.784668,0.9938675,-0.21586044,-37.431335,-0.0011355579,7.6293945e-05,0.23755118,1.5258789e-05,0.0001373291,3.8665771,-0.000790596,9.8029175,0.23904419,-0.21534729,9.801396,0.0012161285
-0.012225815,0.010852289,-16.833496,0.99386275,-0.2150301,-37.4115,0.0011461526,1.5258789e-05,0.23777707,0.00030517578,0.0001373291,3.1417847,-5.722046e-05,9.805069,0.23832703,-0.2141571,9.801409,0.0009908974
-0.012216819,0.010878347,-15.609741,0.99385583,-0.21478403,-37.530518,0.00042706728,-0.00021362305,0.23827899,7.6293945e-05,-4.5776367e-05,2.871704,0.0014009476,9.805069,0.23928833,-0.21534729,9.801402,0.00047191978