timestamp,rotationVector_x,rotationVector_y,rotationVector_z,accelerometer_x,accelerometer_y,accelerometer_z,magneticField_x,magneticField_y,magneticField_z,gravity_x,gravity_y,gravity_z,linearAcceleration_x,linearAcceleration_y,linearAcceleration_z,gyroscope_x,gyroscope_y,gyroscope_z
2019-07-01T19:12:51.480Z,-0.012130355,0.0037270011,-0.20261271,-0.03111267,-0.25125122,9.8033905,-5.8883667,16.737366,-43.347168,-0.023371765,-0.24777284,9.803492,0.0001637619,-0.000114902854,-0.00035953522,0.0,-0.00010681152,9.1552734e-05
2019-07-01T19:12:51.673Z,-0.012122686,0.0037368073,-0.20263378,-0.026321411,-0.24885559,9.7986145,-5.685425,16.027832,-44.33136,-0.023585249,-0.24766506,9.803494,-0.00082905777,-2.9057264e-06,-0.0007200241,0.0,1.5258789e-05,3.0517578e-05
2019-07-01T19:12:51.881Z,-0.012124654,0.0037702052,-0.20272052,-0.0143585205,-0.25602722,9.8033905,-5.781555,15.655518,-44.177246,-0.024196858,-0.24783768,9.803488,-0.000691833,-0.00031718612,-0.0011100769,0.00012207031,7.6293945e-05,-9.1552734e-05
2019-07-01T19:12:52.090Z,-0.012131372,0.0037048608,-0.20255645,-0.01914978,-0.24885559,9.7986145,-4.736328,15.727234,-44.73419,-0.022956768,-0.24770308,9.803494,0.0023713857,-0.00020499527,0.00021266937,0.00012207031,-9.1552734e-05,0.00021362305
2019-07-01T19:12:52.300Z,-0.012131312,0.0037018731,-0.20254876,-0.01914978,-0.24645996,9.7986145,-5.1757812,16.4917,-43.50128,-0.022901574,-0.2476899,9.803495,0.00016524643,-0.00045645237,0.0004529953,6.1035156e-05,7.6293945e-05,1.5258789e-05
2019-07-01T19:12:52.487Z,-0.012131904,0.0037175615,-0.20258933,-0.01914978,-0.24885559,9.7986145,-5.3512573,16.114807,-43.42041,-0.023190245,-0.24776454,9.803493,-0.0004921332,-0.0008547753,-1.9073486e-05,0.00018310547,-0.00010681152,0.00021362305
2019-07-01T19:12:52.699Z,-0.012113903,0.0036951597,-0.20252222,-0.023925781,-0.25602722,9.7986145,-5.2749634,16.200256,-44.16046,-0.022848517,-0.24732831,9.803504,0.00011252053,0.00086401403,0.00030231476,6.1035156e-05,-3.0517578e-05,3.0517578e-05
2019-07-01T19:12:52.897Z,-0.012138166,0.0037050815,-0.20256065,-0.01914978,-0.24406433,9.8033905,-6.1553955,16.285706,-44.18335,-0.02293294,-0.24783455,9.803492,-0.0005197562,-0.0014933795,0.00035953522,0.00018310547,-0.00015258789,0.0002746582
2019-07-01T19:12:53.093Z,-0.012160075,0.0036993532,-0.20255767,-0.026321411,-0.25602722,9.8033905,-5.607605,15.960693,-44.422913,-0.022736628,-0.24823238,9.803481,3.2614917e-06,-0.0013160408,0.0018320084,0.0,1.5258789e-05,9.1552734e-05
2019-07-01T19:12:53.304Z,-0.012167595,0.0036979162,-0.202558,-0.01914978,-0.23928833,9.7986145,-5.3741455,15.605164,-43.522644,-0.022679059,-0.24837111,9.803478,0.00018772483,5.1259995e-06,-0.0018186569,0.0,-4.5776367e-05,9.1552734e-05
2019-07-01T19:12:53.511Z,-0.012182207,0.0036860728,-0.20253542,-0.026321411,-0.2536316,9.8033905,-5.116272,16.21399,-44.543457,-0.02239928,-0.24860412,9.8034725,0.0006259326,-0.0004851371,0.00071048737,-0.00012207031,7.6293945e-05,-3.0517578e-05
2019-07-01T19:12:53.711Z,-0.012187758,0.0036983357,-0.20256986,-0.026321411,-0.25125122,9.805786,-4.660034,15.585327,-44.236755,-0.022603983,-0.24876022,9.803469,-0.00013066828,0.0001591593,-0.0,-6.1035156e-05,-4.5776367e-05,-9.1552734e-05
2019-07-01T19:12:53.915Z,-0.012190967,0.0037022675,-0.20258166,-0.01914978,-0.24645996,9.812973,-5.152893,15.411377,-44.854736,-0.022663746,-0.24883772,9.803467,-6.8506226e-05,0.0002629906,0.00207901,0.0,1.5258789e-05,-3.0517578e-05
2019-07-01T19:12:54.111Z,-0.012199726,0.0036825247,-0.20253567,-0.023925781,-0.25125122,9.805786,-5.46875,17.048645,-42.695618,-0.022261463,-0.24892645,9.803465,0.00024536438,-0.00086434186,-0.0008583069,6.1035156e-05,-0.00015258789,0.00033569336
2019-07-01T19:12:54.315Z,-0.0121762715,0.0036871599,-0.20253503,-0.01914978,-0.24645996,9.805786,-6.806946,16.098022,-44.119263,-0.022443838,-0.24849446,9.803475,-0.00076219626,0.00085765123,0.00022125244,0.0,-0.00010681152,0.00015258789
2019-07-01T19:12:54.522Z,-0.012190595,0.0036624128,-0.20247917,-0.01914978,-0.2536316,9.8033905,-6.517029,15.464783,-44.714355,-0.021925846,-0.24866998,9.8034725,0.0011013802,-0.0006157607,0.0011119843,0.00012207031,0.0001373291,3.0517578e-05
2019-07-01T19:12:54.721Z,-0.012242704,0.0036760068,-0.20254192,-0.021530151,-0.2536316,9.800995,-4.812622,15.644836,-43.914795,-0.021963932,-0.24972595,9.803445,0.0009086784,-0.0015039444,-0.00040340424,-6.1035156e-05,1.5258789e-05,0.00021362305
2019-07-01T19:12:54.921Z,-0.012204648,0.0036829547,-0.20253941,-0.023925781,-0.26081848,9.812973,-4.8721313,16.149902,-43.885803,-0.022249216,-0.24902274,9.803462,-0.0007280689,0.0016289204,0.0005264282,0.0,-4.5776367e-05,3.0517578e-05
2019-07-01T19:12:55.127Z,-0.012240135,0.0036744715,-0.20253661,-0.021530151,-0.2536316,9.8033905,-5.5252075,15.811157,-43.247986,-0.02194601,-0.24967042,9.803447,0.00041870214,-0.0013042837,0.00035095215,6.1035156e-05,-4.5776367e-05,-9.1552734e-05
2019-07-01T19:12:55.346Z,-0.0122561185,0.0036845203,-0.20257095,-0.023925781,-0.25125122,9.812973,-6.5216064,15.393066,-44.87915,-0.022066722,-0.25001803,9.803438,-0.00019253232,-0.00023427606,0.0004005432,-0.00012207031,1.5258789e-05,-0.00010681152
2019-07-01T19:12:55.532Z,-0.012230884,0.0037264468,-0.20266508,-0.021530151,-0.24645996,9.808182,-5.3619385,16.049194,-44.340515,-0.022948183,-0.2497022,9.803443,-0.0019357111,0.00063718855,-0.00021076202,0.0,-0.00010681152,-3.0517578e-05
2019-07-01T19:12:55.737Z,-0.012186742,0.0037096443,-0.20259833,-0.028717041,-0.2416687,9.8033905,-5.038452,16.143799,-44.636536,-0.022817962,-0.24878629,9.803467,-0.00014486723,0.0021001548,-0.0012578964,-0.00012207031,1.5258789e-05,0.00021362305
2019-07-01T19:12:55.942Z,-0.012163627,0.0037689735,-0.20273821,-0.01675415,-0.24645996,9.808182,-6.536865,14.949036,-44.1391,-0.024013724,-0.24858156,9.80347,-0.0023079626,0.00068442523,-0.0016298294,6.1035156e-05,-0.00010681152,0.00015258789
2019-07-01T19:12:56.149Z,-0.012123237,0.0037265436,-0.20260774,-0.021530151,-0.24406433,9.800995,-5.848694,16.020203,-44.703674,-0.023392532,-0.24763425,9.803495,0.0004279483,0.0018903166,0.00018405914,-0.00012207031,-0.00010681152,3.0517578e-05
2019-07-01T19:12:56.345Z,-0.012158229,0.0037192975,-0.20260786,-0.023925781,-0.25842285,9.808182,-6.022644,15.715027,-44.380188,-0.023114262,-0.24827737,9.80348,0.00062325783,-0.0015346855,0.00043582916,0.00018310547,-0.00015258789,0.00015258789
2019-07-01T19:12:56.545Z,-0.012154053,0.003743076,-0.20266664,-0.028717041,-0.2536316,9.8033905,-5.1757812,16.644287,-44.377136,-0.02357261,-0.24829306,9.803478,-0.0010687485,-5.7563186e-05,0.0009317398,-0.00012207031,0.0001373291,0.00033569336
2019-07-01T19:12:56.751Z,-0.012193499,0.003759838,-0.20273076,-0.01914978,-0.25125122,9.800995,-6.452942,15.180969,-45.07599,-0.023721365,-0.24911864,9.803456,-0.00044750795,-0.0018774122,-0.00049972534,0.00012207031,-0.00010681152,0.00015258789
2019-07-01T19:12:56.948Z,-0.012210015,0.003734298,-0.20267406,-0.028717041,-0.23928833,9.810577,-5.1452637,15.403748,-43.800354,-0.023179648,-0.24933292,9.8034525,0.000690531,-0.00045882165,0.0011005402,6.1035156e-05,-0.00010681152,0.00021362305
2019-07-01T19:12:57.154Z,-0.012185717,0.003726333,-0.20264061,-0.01914978,-0.24645996,9.805786,-6.614685,16.841125,-44.277954,-0.023131792,-0.2488339,9.803465,0.00015541539,0.00097577274,0.00089645386,6.1035156e-05,-0.00010681152,-3.0517578e-05
2019-07-01T19:12:57.355Z,-0.0121659525,0.003724446,-0.2026252,-0.03111267,-0.24645996,9.8033905,-5.003357,15.049744,-44.029236,-0.023178035,-0.24844651,9.803474,-0.00051668845,0.00033140182,-0.001004219,0.0,1.5258789e-05,-0.00015258789
2019-07-01T19:12:57.555Z,-0.012173006,0.0037235492,-0.20262668,-0.01675415,-0.24645996,9.810577,-4.878235,16.156006,-44.866943,-0.023132402,-0.24857843,9.803472,0.00015424192,-1.6108155e-05,-0.0005044937,-6.1035156e-05,-4.5776367e-05,0.0001373291
2019-07-01T19:12:57.765Z,-0.012190663,0.0036999627,-0.20257558,-0.028717041,-0.24406433,9.796219,-5.2200317,15.849304,-45.4422,-0.022622231,-0.24882261,9.803468,0.0010937899,-0.00025831163,0.00014400482,-0.00012207031,0.0002593994,9.1552734e-05
2019-07-01T19:12:57.963Z,-0.012148334,0.0037237555,-0.20261401,-0.01914978,-0.25125122,9.800995,-4.9865723,15.5685425,-44.981384,-0.02323765,-0.24810524,9.803485,-0.0006865077,0.0019067526,-6.198883e-05,-0.00012207031,1.5258789e-05,0.00015258789
2019-07-01T19:12:58.170Z,-0.012153844,0.0037431812,-0.2026668,-0.023925781,-0.24406433,9.805786,-5.7006836,15.737915,-44.6167,-0.023575421,-0.24828948,9.803478,-0.0010680221,0.00014577806,-0.0017871857,-6.1035156e-05,-0.00021362305,9.1552734e-05
2019-07-01T19:12:58.392Z,-0.0121571645,0.0037313206,-0.20263813,-0.01914978,-0.25602722,9.808182,-5.973816,16.661072,-43.736267,-0.023341713,-0.2483054,9.803478,-0.00011030957,0.00017479062,0.0010375977,-6.1035156e-05,-0.00015258789,0.00015258789
2019-07-01T19:12:58.579Z,-0.012180686,0.0037181596,-0.20261694,-0.028717041,-0.24885559,9.805786,-6.416321,15.829468,-43.963623,-0.023000842,-0.24870425,9.803469,0.00026793778,-0.0013124198,0.0016431808,0.0,-4.5776367e-05,-3.0517578e-05
2019-07-01T19:12:58.782Z,-0.012188114,0.003733323,-0.20265983,-0.021530151,-0.24885559,9.805786,-4.954529,16.221619,-44.32068,-0.02325162,-0.24890818,9.803464,-0.0009163581,0.00031752884,-0.00064849854,0.0,-0.00010681152,-3.0517578e-05
2019-07-01T19:12:58.980Z,-0.012184656,0.003767219,-0.20274496,-0.026321411,-0.24406433,9.808182,-5.6747437,16.168213,-43.77289,-0.023894668,-0.24897856,9.80346,-0.0009919126,-0.00034479797,-0.0012378693,6.1035156e-05,7.6293945e-05,-9.1552734e-05
2019-07-01T19:12:59.182Z,-0.012161515,0.00375062,-0.20268999,-0.01675415,-0.25125122,9.800995,-5.8654785,15.652466,-44.62738,-0.023681898,-0.24846688,9.803473,0.00022862852,0.0008113682,-0.0008172989,-6.1035156e-05,-4.5776367e-05,-9.1552734e-05
2019-07-01T19:12:59.397Z,-0.012153739,0.0037371428,-0.20265125,-0.01914978,-0.2536316,9.796219,-5.6747437,16.168213,-43.77289,-0.02346382,-0.24826308,9.803479,0.00072876364,0.0006186217,0.0008916855,-6.1035156e-05,7.6293945e-05,3.0517578e-05
2019-07-01T19:12:59.584Z,-0.01220185,0.0037142085,-0.20261812,-0.021530151,-0.25125122,9.8033905,-5.453491,15.673828,-43.733215,-0.022840537,-0.24909498,9.803459,0.0010667704,-0.002135232,-5.054474e-05,0.00024414062,1.5258789e-05,-0.00022888184
2019-07-01T19:12:59.789Z,-0.012178965,0.0037638408,-0.20273325,-0.026321411,-0.2416687,9.805786,-5.519104,16.03241,-43.580627,-0.02385541,-0.24885555,9.803463,-0.0017483197,-0.00046768785,-4.1007996e-05,0.00012207031,7.6293945e-05,-9.1552734e-05
2019-07-01T19:12:59.995Z,-0.012224394,0.003724402,-0.20265634,-0.011962891,-0.25125122,9.805786,-5.9005737,16.52069,-43.919373,-0.022936946,-0.24956925,9.803447,0.0018805098,-0.001430288,0.00013542175,0.00018310547,-4.5776367e-05,-0.00022888184
2019-07-01T19:13:00.201Z,-0.012162767,0.003682246,-0.2025152,-0.021530151,-0.24645996,9.805786,-5.194092,16.130066,-43.876648,-0.02240815,-0.24821518,9.803483,0.0013519116,0.0017650723,0.00023555756,0.0,0.0001373291,-4.5776367e-05
2019-07-01T19:13:00.411Z,-0.012179968,0.0036711309,-0.20249587,-0.021530151,-0.24885559,9.8033905,-5.227661,15.473938,-44.387817,-0.022131255,-0.2485009,9.803476,0.0008314233,-0.0005826801,0.0004825592,6.1035156e-05,1.5258789e-05,9.1552734e-05
2019-07-01T19:13:00.606Z,-0.012168637,0.003749296,-0.20269041,-0.028717041,-0.25125122,9.8033905,-5.3878784,15.463257,-44.232178,-0.02362805,-0.24859838,9.803471,-0.0031636897,1.527369e-05,0.000954628,-6.1035156e-05,-4.5776367e-05,-9.1552734e-05
2019-07-01T19:13:00.804Z,-0.012198473,0.003748954,-0.20270549,-0.026321411,-0.24406433,9.8033905,-6.567383,15.963745,-43.629456,-0.023499,-0.24917027,9.803455,0.0002915766,-0.0015800148,-0.0012798309,0.00024414062,7.6293945e-05,-0.000289917
2019-07-01T19:13:01.009Z,-0.012178645,0.0037356373,-0.20266071,-0.033493042,-0.2536316,9.808182,-6.8115234,15.873718,-43.559265,-0.02333349,-0.24873553,9.803467,0.00059994124,0.00061891973,0.0007419586,6.1035156e-05,7.6293945e-05,-9.1552734e-05
2019-07-01T19:13:01.212Z,-0.012168982,0.0037707204,-0.20274557,-0.023925781,-0.24885559,9.800995,-5.9280396,15.937805,-44.26422,-0.024024105,-0.24869151,9.803467,-0.000615187,0.0003620088,0.000111579895,6.1035156e-05,7.6293945e-05,0.00019836426
2019-07-01T19:13:01.411Z,-0.012192877,0.0037668585,-0.20274845,-0.01914978,-0.2536316,9.8033905,-5.4138184,16.700745,-44.204712,-0.023854163,-0.24913503,9.803455,0.000648899,-0.0006468296,-0.00023841858,-0.00012207031,7.6293945e-05,0.00019836426
2019-07-01T19:13:01.618Z,-0.012179737,0.0037664173,-0.20274028,-0.026321411,-0.24885559,9.800995,-5.4244995,16.48407,-44.551086,-0.023900032,-0.24888077,9.803462,0.00044924952,0.0010070503,-0.0011110306,-6.1035156e-05,0.0001373291,9.1552734e-05
2019-07-01T19:13:01.822Z,-0.012216162,0.0037673619,-0.2027622,-0.03111267,-0.24645996,9.810577,-5.2490234,16.555786,-42.88025,-0.023767712,-0.24958448,9.803445,0.0005605798,-0.0011628568,-0.0004234314,-6.1035156e-05,-4.5776367e-05,1.5258789e-05
2019-07-01T19:13:02.026Z,-0.012161933,0.00376478,-0.20272654,-0.01914978,-0.24645996,9.800995,-5.758667,16.091919,-43.86139,-0.023942884,-0.24853207,9.803471,-0.0009421408,0.0020935088,0.00051021576,0.00012207031,-4.5776367e-05,3.0517578e-05
2019-07-01T19:13:02.233Z,-0.012170618,0.0037506109,-0.20269483,-0.023925781,-0.24885559,9.805786,-6.251526,15.837097,-43.515015,-0.023644295,-0.24864177,9.80347,0.0006660633,-0.000915125,-0.00045871735,0.0,-0.00015258789,3.0517578e-05
2019-07-01T19:13:02.441Z,-0.012137041,0.0037675113,-0.20272024,-0.028717041,-0.24645996,9.800995,-6.881714,16.007996,-42.9245,-0.024095932,-0.24806482,9.803482,-0.0015066117,0.0016223937,0.00017642975,-6.1035156e-05,-0.00010681152,-0.00015258789
2019-07-01T19:13:02.668Z,-0.012118313,0.0038045929,-0.20280536,-0.03111267,-0.24645996,9.8033905,-5.734253,16.374207,-42.370605,-0.02486099,-0.24785478,9.803486,-0.0014599394,0.00020945072,-0.0010032654,0.0,1.5258789e-05,0.00015258789
2019-07-01T19:13:02.870Z,-0.012145837,0.0038179841,-0.20285444,-0.022735596,-0.25028992,9.800522,-5.784607,17.098999,-42.295837,-0.024996193,-0.24843776,9.803471,-0.000852922,-0.0011422038,-0.0009851456,6.1035156e-05,-4.5776367e-05,-3.0517578e-05
2019-07-01T19:13:03.072Z,-0.012172351,0.0037716953,-0.20274986,-0.024887085,-0.25028992,9.801483,-5.0949097,16.574097,-43.94226,-0.024028337,-0.2487602,9.803466,0.0020072442,-0.00084008276,-0.0016145706,0.0,-4.5776367e-05,0.00015258789
2019-07-01T19:13:03.270Z,-0.012201443,0.003800704,-0.20283988,-0.024169922,-0.24765015,9.801727,-4.7805786,16.452026,-44.355774,-0.024446769,-0.24943638,9.803447,-0.0014046468,-0.000640288,-0.00027751923,-0.00012207031,-0.00010681152,0.0002746582
2019-07-01T19:13:03.465Z,-0.012168961,0.0037896005,-0.202794,-0.023208618,-0.24909973,9.80603,-6.5322876,15.097046,-44.485474,-0.024374455,-0.24876735,9.803463,0.0006752666,0.0013227165,0.00061893463,0.0,0.0001373291,-9.1552734e-05
2019-07-01T19:13:03.661Z,-0.012191502,0.003783387,-0.20279013,-0.025604248,-0.25076294,9.8029175,-5.052185,15.701294,-43.969727,-0.024166439,-0.2491754,9.803454,0.000713896,-0.00086815655,0.001999855,-0.00012207031,-4.5776367e-05,0.0002746582
2019-07-01T19:13:03.856Z,-0.012218058,0.0038124938,-0.20287903,-0.025360107,-0.24861145,9.800995,-5.2627563,16.493225,-44.25354,-0.024597073,-0.24980327,9.803437,-0.0007651057,-0.00050768256,-0.0018453598,-0.00012207031,0.0001373291,0.0002746582
2019-07-01T19:13:04.058Z,-0.012189384,0.003834196,-0.20291936,-0.023208618,-0.25100708,9.806259,-6.239319,14.463806,-44.77539,-0.025117684,-0.24934004,9.803447,-0.00096186064,0.0004618764,-0.00011539459,0.00012207031,-0.00010681152,9.1552734e-05
2019-07-01T19:13:04.262Z,-0.012205163,0.0037741857,-0.20277382,-0.023925781,-0.24621582,9.801956,-6.7245483,16.177368,-44.25659,-0.023939548,-0.24940069,9.803449,0.0021655243,-0.00064228475,0.0019836426,0.00012207031,-4.5776367e-05,-9.1552734e-05
2019-07-01T19:13:04.454Z,-0.012171685,0.003773312,-0.20275366,-0.022735596,-0.25004578,9.806274,-6.489563,16.049194,-44.596863,-0.024061067,-0.2487539,9.803465,-0.00082730316,0.0015634894,-0.0012292862,0.0,-0.00010681152,0.0002746582
2019-07-01T19:13:04.657Z,-0.01219343,0.0037300242,-0.20265421,-0.022247314,-0.24909973,9.804108,-5.1589966,15.112305,-43.859863,-0.023168562,-0.248997,9.803461,0.0013958421,-0.00031471252,0.0023765564,-6.1035156e-05,-0.00015258789,0.00015258789
2019-07-01T19:13:04.860Z,-0.012197242,0.0037373153,-0.20267497,-0.025360107,-0.24932861,9.802444,-5.1452637,15.55481,-44.448853,-0.023288151,-0.24909966,9.803458,-0.00040698238,-0.00021007657,0.00014972687,-6.1035156e-05,7.6293945e-05,0.00015258789
2019-07-01T19:13:05.062Z,-0.012208776,0.00376575,-0.20275411,-0.022979736,-0.24909973,9.803635,-5.3634644,15.974426,-44.128418,-0.023768198,-0.24943605,9.803449,-0.00064642914,-0.000859797,-0.0019769669,6.1035156e-05,1.5258789e-05,0.00015258789
2019-07-01T19:13:05.270Z,-0.012196863,0.003750228,-0.2027079,-0.024169922,-0.25004578,9.8022,-4.7683716,14.996338,-44.65332,-0.023529258,-0.24914448,9.803456,7.7590346e-05,0.0010176003,0.0014019012,-0.00018310547,-0.00010681152,9.1552734e-05
2019-07-01T19:13:05.473Z,-0.0122393165,0.0037426902,-0.20271127,-0.023208618,-0.24932861,9.804596,-5.383301,15.383911,-43.415833,-0.023214813,-0.24992979,9.803437,0.00023502111,-0.0010778904,-0.0009841919,6.1035156e-05,-0.00010681152,0.00019836426
2019-07-01T19:13:05.674Z,-0.012210262,0.0037716683,-0.20277008,-0.022964478,-0.25219727,9.803879,-5.2597046,16.566467,-44.31305,-0.023871869,-0.2494885,9.803447,-0.00077097863,0.0008780807,0.00014781952,-6.1035156e-05,0.0001373291,0.00019836426
2019-07-01T19:13:05.879Z,-0.01226153,0.0037511897,-0.20274498,-0.023208618,-0.24813843,9.804596,-6.439209,15.396118,-44.578552,-0.02328108,-0.2503909,9.803425,0.00078988634,-0.0015746951,0.0001001358,-0.00012207031,-0.00010681152,0.00021362305
2019-07-01T19:13:06.080Z,-0.012228222,0.0037612494,-0.20275296,-0.024414062,-0.2498169,9.803879,-5.345154,16.33606,-43.678284,-0.023604712,-0.24979153,9.80344,-9.150058e-05,0.0011873543,0.0003824234,6.1035156e-05,7.6293945e-05,0.00015258789
2019-07-01T19:13:06.281Z,-0.012213569,0.003769194,-0.20276551,-0.024414062,-0.24861145,9.804108,-6.0150146,15.785217,-43.988037,-0.023812367,-0.24954209,9.803447,-0.00035578944,0.0004761368,0.0008955002,-0.00012207031,7.6293945e-05,9.1552734e-05
2019-07-01T19:13:06.483Z,-0.012209352,0.0037886302,-0.20281313,-0.0236969,-0.2514801,9.804352,-5.076599,17.166138,-44.87915,-0.024190258,-0.24953957,9.803446,-0.00069468655,0.00023303926,0.00028324127,6.1035156e-05,7.6293945e-05,3.0517578e-05
2019-07-01T19:13:06.684Z,-0.012241317,0.0037793373,-0.2028064,-0.026321411,-0.24957275,9.801483,-5.9188843,16.156006,-44.21997,-0.023886334,-0.25011617,9.803431,0.0009074155,-0.0011264682,-0.0010929108,0.0,-4.5776367e-05,9.1552734e-05
2019-07-01T19:13:06.891Z,-0.0122236945,0.003800455,-0.20285116,-0.022979736,-0.24885559,9.802444,-6.3079834,16.343689,-43.40973,-0.024350567,-0.24986291,9.803436,-0.0014979001,0.00028935075,-0.0007314682,0.00018310547,-0.00015258789,0.00015258789
2019-07-01T19:13:07.101Z,-0.012234397,0.0037680666,-0.20277376,-0.021774292,-0.25053406,9.800995,-4.724121,15.943909,-44.236755,-0.023705756,-0.24993771,9.803436,0.00049589016,0.00010766089,-0.00096416473,-0.00018310547,-0.00021362305,0.00015258789
2019-07-01T19:13:07.288Z,-0.012243422,0.0037411442,-0.2027095,-0.024642944,-0.24838257,9.804825,-5.0354004,16.140747,-44.10858,-0.023169251,-0.25000244,9.803436,0.00067449175,0.00014990568,-0.0017595291,-0.00012207031,7.6293945e-05,9.1552734e-05
2019-07-01T19:13:07.508Z,-0.012191141,0.0037527245,-0.20271124,-0.022735596,-0.25053406,9.806274,-6.6970825,16.531372,-42.903137,-0.023599105,-0.24904463,9.803459,-0.00032707863,0.001146093,0.0024938583,0.00024414062,1.5258789e-05,-3.0517578e-05
2019-07-01T19:13:07.702Z,-0.012221388,0.0037450788,-0.20270781,-0.024642944,-0.24885559,9.801956,-5.342102,16.487122,-44.252014,-0.023332868,-0.24959494,9.803446,0.00012605824,-0.001148656,0.001824379,-6.1035156e-05,-3.0517578e-05,0.00033569336
2019-07-01T19:13:07.907Z,-0.0122036,0.0037486285,-0.2027074,-0.022735596,-0.24957275,9.80722,-4.86145,16.444397,-44.05365,-0.023471873,-0.24926749,9.803453,-0.00020861626,0.0006682724,-0.00054359436,0.00012207031,1.5258789e-05,-3.0517578e-05
2019-07-01T19:13:08.108Z,-0.012212847,0.0037643004,-0.20275256,-0.025360107,-0.24932861,9.805313,-5.72052,15.222168,-44.34204,-0.023724554,-0.24950844,9.803447,-0.00019874051,-0.00051116943,0.0010824203,-0.00012207031,7.6293945e-05,0.00015258789
2019-07-01T19:13:08.313Z,-0.012201415,0.0037797333,-0.20278606,-0.025131226,-0.24836731,9.804108,-5.2871704,15.905762,-43.99414,-0.024057878,-0.24935111,9.803451,-0.0010699648,0.00053058565,0.0007133484,-6.1035156e-05,-0.00010681152,3.0517578e-05
2019-07-01T19:13:08.533Z,-0.01218855,0.003796957,-0.20282336,-0.022018433,-0.25196838,9.805557,-6.524658,15.245056,-44.606018,-0.024430323,-0.24917352,9.803454,-0.00045353547,0.00059498847,-0.00015258789,-6.1035156e-05,7.6293945e-05,3.0517578e-05
2019-07-01T19:13:08.716Z,-0.012259086,0.003766336,-0.20278254,-0.025131226,-0.24957275,9.80603,-5.921936,16.159058,-44.596863,-0.023572069,-0.2504051,9.803425,0.001801407,-0.0022418797,0.0003786087,0.0,-0.00010681152,0.00021362305
2019-07-01T19:13:08.926Z,-0.012231593,0.0037851671,-0.20281616,-0.023452759,-0.24885559,9.8029175,-6.349182,15.545654,-44.326782,-0.02403449,-0.24995291,9.803435,-0.0013218354,0.0011366606,9.1552734e-05,-0.00012207031,-4.5776367e-05,0.0002746582
2019-07-01T19:13:09.141Z,-0.012222616,0.0037744346,-0.20278381,-0.024642944,-0.25125122,9.805313,-5.758667,16.091919,-43.86139,-0.023872351,-0.24973707,9.803441,0.0004224386,0.0006823689,-0.0007305145,-6.1035156e-05,-0.00010681152,0.00033569336
2019-07-01T19:13:09.327Z,-0.012220654,0.0037853015,-0.20281065,-0.02607727,-0.24838257,9.805786,-6.375122,16.477966,-42.474365,-0.024082,-0.24974325,9.80344,-0.00080163963,0.00020623207,0.0004711151,-6.1035156e-05,-4.5776367e-05,0.00038146973
2019-07-01T19:13:09.527Z,-0.012222191,0.0037972939,-0.20284224,-0.0236969,-0.24885559,9.805542,-5.5130005,16.256714,-44.06433,-0.024298122,-0.24982126,9.803438,-0.0005845111,0.00029428303,0.00079631805,-0.00012207031,-0.00010681152,0.00015258789
2019-07-01T19:13:09.729Z,-0.012222572,0.0037887935,-0.20282063,-0.027282715,-0.25172424,9.804825,-5.3771973,15.608215,-43.974304,-0.024138879,-0.24979424,9.803439,-0.0004992001,0.0005159825,0.0003709793,-0.00012207031,-4.5776367e-05,3.0517578e-05
2019-07-01T19:13:09.931Z,-0.012229935,0.003852182,-0.20298724,-0.022735596,-0.24789429,9.806747,-5.848694,15.789795,-43.315125,-0.025284303,-0.250192,9.803425,-0.0017502643,-0.0007754564,-0.00087070465,6.1035156e-05,0.0001373291,0.00033569336
2019-07-01T19:13:10.136Z,-0.012205275,0.0038108965,-0.20286809,-0.024414062,-0.24838257,9.802673,-5.534363,15.9713745,-45.254517,-0.02462007,-0.24955119,9.803444,0.0016460661,0.0012419671,0.0014944077,-6.1035156e-05,-4.5776367e-05,0.0002746582
2019-07-01T19:13:10.339Z,-0.012200206,0.0037789852,-0.20278348,-0.024169922,-0.24861145,9.8033905,-6.7321777,15.802002,-43.125916,-0.024048978,-0.24932483,9.803451,0.00012628548,0.00050123036,-0.0020360947,6.1035156e-05,-0.00021362305,0.00033569336
2019-07-01T19:13:10.537Z,-0.0121796345,0.0037995873,-0.20282534,-0.025360107,-0.24885559,9.804108,-5.781555,15.731812,-44.68994,-0.024515806,-0.24901281,9.803457,-0.0010866132,0.00064882636,-0.001042366,0.0,1.5258789e-05,9.1552734e-05
2019-07-01T19:13:10.739Z,-0.01220179,0.003802309,-0.20284419,-0.023925781,-0.2514801,9.805069,-6.6482544,16.033936,-44.215393,-0.024475118,-0.24944949,9.803446,0.00030667707,-0.00035230815,-0.0004043579,0.0,1.5258789e-05,0.00015258789
2019-07-01T19:13:10.965Z,-0.012258299,0.003776468,-0.20280813,-0.02368164,-0.24957275,9.803879,-6.3461304,15.542603,-43.79883,-0.02376323,-0.25043088,9.803423,0.0010301471,-0.0015110373,0.0008535385,-6.1035156e-05,-0.00015258789,0.00033569336
2019-07-01T19:13:11.160Z,-0.01223439,0.0037796933,-0.2028036,-0.023208618,-0.2514801,9.803635,-5.932617,15.789795,-43.76526,-0.023921445,-0.24998453,9.803434,-0.00024685077,0.0011459291,-0.00071048737,-6.1035156e-05,1.5258789e-05,0.00015258789
2019-07-01T19:13:11.413Z,-0.0122527,0.0037764728,-0.20280515,-0.024169922,-0.24861145,9.804825,-5.6915283,15.879822,-44.20929,-0.023786359,-0.25032333,9.803426,-0.00013815984,-0.00067046285,-0.0003118515,6.1035156e-05,-4.5776367e-05,9.1552734e-05
2019-07-01T19:13:11.610Z,-0.012221444,0.0037649588,-0.20275886,-0.024887085,-0.25028992,9.803146,-5.0491333,15.85083,-44.317627,-0.023701401,-0.24967627,9.803442,0.00024981983,0.0005889535,-5.054474e-05,6.1035156e-05,-0.00010681152,9.1552734e-05
2019-07-01T19:13:11.810Z,-0.012238289,0.003791235,-0.2028353,-0.024169922,-0.25028992,9.805069,-6.300354,16.71753,-44.46869,-0.024119478,-0.2501061,9.8034315,-0.0007656552,-0.00040772557,0.0006008148,-0.00012207031,1.5258789e-05,0.00032043457
2019-07-01T19:13:12.010Z,-0.012247077,0.0037999637,-0.20286243,-0.022491455,-0.24909973,9.804108,-5.743408,16.45813,-43.86444,-0.024245206,-0.2503102,9.803426,-0.00039546937,0.00028786063,0.00025367737,-6.1035156e-05,1.5258789e-05,0.00021362305
2019-07-01T19:13:12.213Z,-0.01223809,0.0037596214,-0.20275407,-0.025131226,-0.24813843,9.8033905,-6.4346313,15.466309,-44.262695,-0.023533918,-0.24997455,9.803435,0.0012735277,0.00066913664,6.67572e-06,-0.00012207031,-4.5776367e-05,0.00015258789
2019-07-01T19:13:12.417Z,-0.012211323,0.003776116,-0.20278208,-0.025131226,-0.25004578,9.802673,-6.114197,15.489197,-44.422913,-0.02395001,-0.24952686,9.803446,-0.0014092606,0.0009241104,-0.0011148453,6.1035156e-05,-0.00021362305,0.00015258789
2019-07-01T19:13:12.617Z,-0.012195864,0.0037740103,-0.2027684,-0.022018433,-0.24932861,9.805069,-5.923462,15.933228,-43.585205,-0.023974553,-0.24922132,9.803453,-0.00043860823,0.0001309663,5.6266785e-05,0.00012207031,-0.00010681152,0.0002746582
2019-07-01T19:13:12.823Z,-0.012203178,0.0037464674,-0.20270163,-0.025131226,-0.24909973,9.805069,-5.4763794,15.316772,-44.63501,-0.023433518,-0.24925065,9.803453,0.0006992314,-0.00030817091,0.00034999847,6.1035156e-05,1.5258789e-05,0.00038146973
2019-07-01T19:13:13.031Z,-0.0122017,0.0037564277,-0.2027264,-0.021774292,-0.2467041,9.804108,-5.012512,14.984131,-44.947815,-0.023624372,-0.24926247,9.803453,-0.0005433727,-4.3153763e-05,0.00071144104,0.0,-4.5776367e-05,3.0517578e-05
2019-07-01T19:13:13.231Z,-0.012170222,0.0037348173,-0.2026541,-0.023925781,-0.24694824,9.8022,-5.5908203,16.25061,-43.83545,-0.023352908,-0.2485704,9.803472,0.00061864965,0.0016363859,-0.0006427765,-6.1035156e-05,1.5258789e-05,1.5258789e-05
2019-07-01T19:13:13.435Z,-0.0121479705,0.003728355,-0.20262562,-0.022735596,-0.2498169,9.801956,-4.8187256,15.725708,-45.03174,-0.023324482,-0.24811678,9.803483,0.00036003627,0.001168862,-0.0010671616,-6.1035156e-05,1.5258789e-05,0.00021362305
2019-07-01T19:13:13.639Z,-0.012188986,0.0037334939,-0.20266074,-0.024887085,-0.25076294,9.803879,-6.1172485,15.264893,-43.71338,-0.023251202,-0.24892561,9.803463,-0.00043101236,-0.0013704598,-0.00054740906,-0.00012207031,-0.00015258789,3.0517578e-05
2019-07-01T19:13:13.840Z,-0.012213348,0.0037493268,-0.20271441,-0.023208618,-0.25076294,9.801956,-4.8431396,15.21759,-45.36133,-0.02344473,-0.24945761,9.803449,-0.00095467456,-0.00059457123,-3.528595e-05,-0.00012207031,-4.5776367e-05,0.0002593994
2019-07-01T19:13:14.041Z,-0.012230168,0.0037588398,-0.20274782,-0.023452759,-0.25004578,9.802673,-5.531311,15.890503,-44.213867,-0.023552008,-0.24981919,9.803439,-0.00037477724,-0.0004813969,-0.00034713745,-6.1035156e-05,-0.00015258789,0.00021362305
2019-07-01T19:13:14.243Z,-0.012233079,0.0037461855,-0.2027169,-0.022735596,-0.24813843,9.804596,-5.482483,16.836548,-43.49518,-0.0233053,-0.24982406,9.80344,0.00056825764,-0.00023724139,-0.0003862381,0.00012207031,0.0001373291,3.0517578e-05
2019-07-01T19:13:14.442Z,-0.012221792,0.0037344564,-0.20268077,-0.021057129,-0.25053406,9.804825,-5.256653,16.63971,-44.37256,-0.023134159,-0.24955982,9.803447,0.00039942935,0.0007135719,0.0019721985,-6.1035156e-05,1.5258789e-05,0.00021362305
2019-07-01T19:13:14.646Z,-0.012235236,0.0037101384,-0.20262554,-0.023452759,-0.2467041,9.803162,-5.114746,16.212463,-44.39087,-0.022627773,-0.24972007,9.803444,0.0010985304,-0.0005598366,4.1007996e-05,0.0,-4.5776367e-05,0.0002746582
2019-07-01T19:13:14.852Z,-0.012181516,0.0037147796,-0.20260872,-0.02368164,-0.2514801,9.805786,-5.632019,15.296936,-43.72711,-0.02293472,-0.24870656,9.803469,-0.00051734224,0.0024982989,-0.00013160706,0.0,7.6293945e-05,0.0002593994
2019-07-01T19:13:15.061Z,-0.012220826,0.0037340908,-0.2026793,-0.02368164,-0.24813843,9.803879,-6.5933228,15.5303955,-44.39392,-0.023131348,-0.2495398,9.803448,-7.5681135e-05,-0.0019231737,0.00070381165,6.1035156e-05,1.5258789e-05,0.00033569336
2019-07-01T19:13:15.273Z,-0.012208496,0.0037340901,-0.2026727,-0.022018433,-0.2498169,9.802673,-6.5734863,15.968323,-44.306946,-0.02318204,-0.24930292,9.803454,-0.0004980378,0.0007082671,-6.67572e-06,-0.00018310547,-0.00015258789,9.1552734e-05
2019-07-01T19:13:15.518Z,-0.012222534,0.0037304761,-0.20267095,-0.022735596,-0.25028992,9.804596,-5.859375,17.01355,-41.17737,-0.023057267,-0.24955803,9.803447,-0.00015271455,-0.0009907931,-0.0018730164,0.0,7.6293945e-05,9.1552734e-05
2019-07-01T19:13:15.710Z,-0.012244246,0.003721582,-0.20265973,-0.024169922,-0.25004578,9.804108,-5.2001953,15.982056,-43.756104,-0.022803001,-0.24993934,9.803438,0.00031247362,-0.00034041703,0.0019493103,-0.00018310547,-0.00015258789,7.6293945e-05
2019-07-01T19:13:15.912Z,-0.012253663,0.0037422301,-0.20271777,-0.021774292,-0.2514801,9.805786,-5.4885864,16.69159,-43.525696,-0.023147266,-0.25020358,9.803431,-0.00077678263,-0.0003117621,0.0006608963,6.1035156e-05,1.5258789e-05,1.5258789e-05
2019-07-01T19:13:16.119Z,-0.012267765,0.0037386261,-0.20271607,-0.022247314,-0.25076294,9.804352,-5.6411743,15.307617,-45.00885,-0.023022408,-0.25045997,9.803424,0.0005334113,-0.0012375414,0.0005979538,6.1035156e-05,7.6293945e-05,-3.0517578e-05
2019-07-01T19:13:16.324Z,-0.0122708455,0.0037095812,-0.20264316,-0.021774292,-0.25053406,9.803635,-6.8222046,15.808105,-44.47937,-0.02247102,-0.25040203,9.803428,0.0011716951,-0.000110358,-0.00039672852,0.00030517578,7.6293945e-05,3.0517578e-05
2019-07-01T19:13:16.517Z,-0.012263684,0.00371376,-0.20265006,-0.021530151,-0.25053406,9.805786,-5.04303,15.844727,-43.41278,-0.02257798,-0.25028127,9.803431,8.854084e-05,-0.00023043156,4.673004e-05,0.0,-3.0517578e-05,0.00015258789
2019-07-01T19:13:16.729Z,-0.012265829,0.0037013819,-0.20261943,-0.022735596,-0.25028992,9.802673,-6.150818,16.358948,-44.091797,-0.022339564,-0.2502726,9.8034315,7.93878e-05,-0.00046348572,0.00034236908,6.1035156e-05,-4.5776367e-05,0.00015258789
2019-07-01T19:13:16.926Z,-0.012244789,0.003705135,-0.20261781,-0.023208618,-0.24765015,9.800766,-6.1950684,15.333557,-43.84613,-0.022495687,-0.24988343,9.80344,5.4296106e-06,0.0005681366,-0.001045227,0.00012207031,0.0001373291,0.00021362305
2019-07-01T19:13:17.127Z,-0.012222509,0.0036928465,-0.20257434,-0.024169922,-0.24885559,9.805542,-5.305481,15.620422,-44.95697,-0.02235932,-0.2494058,9.8034525,0.0001105573,0.00077816844,-0.002295494,0.0,-0.00010681152,0.00021362305
2019-07-01T19:13:17.336Z,-0.012199683,0.0037305458,-0.20265889,-0.024887085,-0.2505188,9.805786,-5.2200317,15.620422,-44.3573,-0.023152526,-0.24911925,9.803458,-0.0019774958,0.00027659535,0.0022916794,6.1035156e-05,-0.00010681152,0.00038146973
2019-07-01T19:13:17.566Z,-0.012213546,0.0037576808,-0.20273595,-0.023925781,-0.25125122,9.801956,-6.6970825,15.013123,-44.345093,-0.02359889,-0.24949516,9.803449,-0.0005688872,-0.0012451261,0.0007305145,6.1035156e-05,0.0001373291,0.00021362305
2019-07-01T19:13:17.743Z,-0.012235073,0.0037826428,-0.20281154,-0.022735596,-0.25053406,9.805786,-6.602478,16.447449,-40.507507,-0.023973344,-0.25000957,9.803433,-0.00019631721,-0.00052174926,-0.001584053,-0.00018310547,-4.5776367e-05,0.00021362305
2019-07-01T19:13:17.944Z,-0.012252777,0.0037570745,-0.20275539,-0.024642944,-0.2524414,9.805069,-4.774475,16.29486,-42.651367,-0.023426246,-0.25024647,9.803429,0.0011653472,-0.00026971102,0.0011835098,6.1035156e-05,7.6293945e-05,3.0517578e-05
2019-07-01T19:13:18.150Z,-0.012297424,0.0037986205,-0.20288594,-0.0236969,-0.24957275,9.806503,-5.13916,15.548706,-43.6203,-0.024013009,-0.25127214,9.803402,-0.0013437681,-0.0018515885,0.0012693405,-6.1035156e-05,-4.5776367e-05,0.00032043457
2019-07-01T19:13:18.350Z,-0.012254174,0.0037805492,-0.2028164,-0.021774292,-0.24861145,9.803162,-5.2841187,15.98053,-44.129944,-0.023855899,-0.2503681,9.803424,0.00016269088,0.0022684038,0.00037193298,-0.00018310547,1.5258789e-05,0.0001373291
2019-07-01T19:13:18.555Z,-0.0122532,0.0037400692,-0.20271197,-0.022491455,-0.25125122,9.804108,-6.02417,15.565491,-44.107056,-0.02310909,-0.25018594,9.803431,0.0015810989,0.00039246678,-0.0011863708,6.1035156e-05,-4.5776367e-05,0.00033569336
2019-07-01T19:13:18.757Z,-0.0122677395,0.0037137275,-0.20265214,-0.022735596,-0.2524414,9.806747,-6.086731,15.77301,-42.855835,-0.022560693,-0.25035906,9.803428,0.00054529496,-0.00037020445,0.0007953644,-6.1035156e-05,-0.00010681152,0.0002593994
2019-07-01T19:13:18.957Z,-0.0123132225,0.0037208286,-0.20269471,-0.022018433,-0.25028992,9.805542,-6.1553955,16.212463,-43.818665,-0.022505324,-0.25126162,9.803406,-0.00045473315,-0.0016034544,0.0011720657,-6.1035156e-05,-0.00015258789,0.0001373291
2019-07-01T19:13:19.156Z,-0.012302518,0.0036863675,-0.20260051,-0.023925781,-0.25100708,9.805786,-6.5704346,16.04004,-44.366455,-0.021910232,-0.250917,9.803415,0.0006135758,0.0011529326,0.00030708313,-0.00012207031,-0.00010681152,0.00044250488
2019-07-01T19:13:19.358Z,-0.012322688,0.0037496742,-0.20277382,-0.022247314,-0.25196838,9.803162,-5.3604126,16.047668,-44.189453,-0.023001317,-0.25155985,9.803396,-0.0018808562,-0.00011065602,5.2452087e-05,-0.00024414062,1.5258789e-05,7.6293945e-05
2019-07-01T19:13:19.561Z,-0.012312429,0.003735324,-0.2027315,-0.024398804,-0.24908447,9.804825,-5.2200317,15.316772,-42.607117,-0.022777405,-0.25130484,9.803403,0.00053258426,0.00032529235,-0.00203228,6.1035156e-05,7.6293945e-05,-9.1552734e-05
2019-07-01T19:13:19.762Z,-0.012272301,0.003757041,-0.20276576,-0.025604248,-0.25172424,9.804825,-5.393982,15.318298,-44.26117,-0.02334529,-0.25062147,9.803419,-0.0012937114,0.0013352036,0.0011987686,0.0,-4.5776367e-05,0.00050354004
2019-07-01T19:13:19.965Z,-0.012285307,0.003784875,-0.20284417,-0.022964478,-0.24765015,9.8029175,-5.0811768,15.194702,-44.82727,-0.023807976,-0.2509838,9.80341,-0.000831889,-0.00070798397,-0.0007982254,-6.1035156e-05,-0.00015258789,0.00015258789
2019-07-01T19:13:20.181Z,-0.012234197,0.003772923,-0.20278612,-0.022964478,-0.24717712,9.8033905,-5.6427,16.82434,-43.338013,-0.023796665,-0.24995346,9.803435,-0.0003712941,0.0025528222,-0.0008535385,-0.00012207031,-4.5776367e-05,0.00021362305
2019-07-01T19:13:20.502Z,-0.012227155,0.0037331823,-0.20268036,-0.023925781,-0.24861145,9.804352,-5.680847,16.023254,-43.803406,-0.023088465,-0.24965774,9.803444,-0.0001169499,-0.00059753656,0.001698494,0.0,-0.00010681152,0.0002746582
2019-07-01T19:13:20.628Z,-0.012224095,0.0037399065,-0.20269598,-0.025131226,-0.24932861,9.804825,-5.706787,15.513611,-44.0567,-0.023225786,-0.24962607,9.803445,-0.00022448413,8.007884e-05,-0.0006170273,0.0,-4.5776367e-05,-0.00022888184
2019-07-01T19:13:20.835Z,-0.012190356,0.0037557771,-0.20271866,-0.024642944,-0.2498169,9.802444,-6.8115234,16.026306,-44.436646,-0.023658961,-0.24904184,9.803458,-0.0014694817,0.00045968592,0.00021266937,0.00012207031,-0.00010681152,-0.00015258789
2019-07-01T19:13:21.041Z,-0.0122128045,0.0037925502,-0.20282504,-0.024642944,-0.25004578,9.804596,-6.588745,15.7547,-44.952393,-0.024248758,-0.2496217,9.803442,-0.000881372,-0.0006569326,-0.0014410019,-6.1035156e-05,0.0001373291,9.1552734e-05
2019-07-01T19:13:21.240Z,-0.012223587,0.0037950021,-0.20283711,-0.024642944,-0.25004578,9.805069,-5.4351807,16.111755,-43.719482,-0.024249863,-0.24983881,9.803437,-0.00016310439,3.3199787e-05,-9.536743e-07,-0.00012207031,-0.00010681152,0.00015258789
2019-07-01T19:13:21.443Z,-0.012222432,0.0038115375,-0.20287892,-0.023452759,-0.24957275,9.805542,-5.786133,15.432739,-43.54248,-0.024561329,-0.24988341,9.803434,0.00015056506,0.0001000911,0.0017518997,-6.1035156e-05,0.00019836426,0.00015258789
2019-07-01T19:13:21.647Z,-0.012248785,0.0037775487,-0.2028058,-0.024169922,-0.24932861,9.8033905,-5.644226,15.156555,-44.584656,-0.023822425,-0.25025246,9.803428,0.001089137,-0.0004862547,-0.0007429123,0.0,-0.00010681152,0.00033569336
2019-07-01T19:13:21.847Z,-0.012200421,0.003791541,-0.20281582,-0.022735596,-0.25004578,9.802673,-5.369568,15.827942,-44.006348,-0.024281006,-0.24937972,9.80345,-0.0006031934,0.0010267943,0.00045490265,0.00012207031,7.6293945e-05,3.0517578e-05
2019-07-01T19:13:22.049Z,-0.012224466,0.0037740108,-0.2027837,-0.024414062,-0.24885559,9.805069,-5.0094604,16.65039,-43.777466,-0.023856882,-0.2497709,9.80344,0.0013665278,-0.0009805411,-0.0014476776,0.00012207031,7.6293945e-05,-9.1552734e-05
2019-07-01T19:13:22.252Z,-0.012190768,0.0037777426,-0.20277524,-0.023208618,-0.24957275,9.80722,-5.7724,15.57312,-42.75818,-0.024064759,-0.24913849,9.803456,-0.00034784153,0.00054217875,0.0003004074,0.00012207031,7.6293945e-05,0.00015258789
2019-07-01T19:13:22.460Z,-0.01218587,0.0037710122,-0.20275535,-0.0236969,-0.24909973,9.803162,-5.4718018,15.309143,-43.730164,-0.023960048,-0.24901716,9.803458,0.00026680157,-0.000273481,0.0017938614,0.00018310547,7.6293945e-05,3.0517578e-05
2019-07-01T19:13:22.677Z,-0.012189378,0.0037595956,-0.20272793,-0.022491455,-0.25004578,9.804825,-5.7495117,16.31012,-43.74237,-0.023733823,-0.2490385,9.803459,0.0005279612,-0.00026118755,-0.00071811676,0.0,-4.5776367e-05,9.1552734e-05
2019-07-01T19:13:22.859Z,-0.012200126,0.003749585,-0.20270799,-0.02154541,-0.24932861,9.8033905,-6.44989,15.1779175,-44.85016,-0.023503905,-0.2492046,9.803455,0.0005270913,-0.00033716857,0.00015163422,0.0,7.6293945e-05,-3.0517578e-05
2019-07-01T19:13:23.062Z,-0.012221058,0.0037198218,-0.20264281,-0.024169922,-0.24909973,9.800995,-6.600952,15.307617,-44.06128,-0.022865701,-0.24948671,9.803451,0.0018102396,-6.784499e-05,-0.0010032654,-6.1035156e-05,7.6293945e-05,0.0002593994
2019-07-01T19:13:23.269Z,-0.012205551,0.0037459484,-0.20270157,-0.0236969,-0.24909973,9.8029175,-5.8547974,15.72113,-43.707275,-0.02341413,-0.24929418,9.803453,-0.0010005627,0.00043188035,-0.001950264,-0.00012207031,7.6293945e-05,0.0001373291
2019-07-01T19:13:23.472Z,-0.012203316,0.0037600603,-0.20273659,-0.023452759,-0.25172424,9.804352,-6.1294556,15.127563,-44.79828,-0.023685113,-0.24930818,9.8034525,-1.2265518e-05,0.00020341575,0.00013637543,-6.1035156e-05,7.6293945e-05,0.00015258789
2019-07-01T19:13:23.676Z,-0.012241177,0.0037570377,-0.20274909,-0.024887085,-0.24838257,9.801483,-5.632019,15.296936,-43.72711,-0.023473287,-0.25002345,9.803434,0.00049379095,-0.0009810627,0.00057315826,-0.00012207031,1.5258789e-05,0.00019836426
2019-07-01T19:13:23.879Z,-0.012232115,0.0037864868,-0.20281982,-0.022018433,-0.25004578,9.805069,-4.977417,15.560913,-43.77594,-0.02405682,-0.24996825,9.803434,-0.0013047233,0.00038057566,-0.0013656616,0.0,-0.00010681152,0.00033569336
2019-07-01T19:13:24.081Z,-0.012219255,0.003752762,-0.20272638,-0.025848389,-0.25123596,9.801712,-6.512451,15.460205,-44.03534,-0.023484165,-0.24958497,9.803446,0.0009928588,0.00073096156,0.0013170242,0.0,1.5258789e-05,0.0002746582
2019-07-01T19:13:24.281Z,-0.012257556,0.003809343,-0.20289211,-0.024414062,-0.25125122,9.80484,-5.921936,16.082764,-44.084167,-0.02437602,-0.25054947,9.803419,-0.0017021075,-0.002144903,-0.0008735657,0.0,-4.5776367e-05,0.00015258789
2019-07-01T19:13:24.482Z,-0.012274704,0.0037818109,-0.20283063,-0.0236969,-0.2524414,9.8033905,-5.3009033,15.615845,-44.354248,-0.023794798,-0.25076768,9.803414,0.0005867798,-0.00023308396,0.0011787415,-6.1035156e-05,-4.5776367e-05,0.00021362305
2019-07-01T19:13:24.698Z,-0.012286193,0.0037879262,-0.20285247,-0.022735596,-0.25196838,9.801727,-6.19812,15.489197,-45.098877,-0.023860922,-0.25101313,9.803409,0.00040777773,-0.0004710257,-0.0008211136,6.1035156e-05,1.5258789e-05,3.0517578e-05
2019-07-01T19:13:24.949Z,-0.012235518,0.0037945074,-0.20284222,-0.023925781,-0.24598694,9.803879,-5.9661865,15.133667,-44.274902,-0.02419158,-0.25006604,9.8034315,-0.0016584974,0.0035886168,-0.00030231476,0.0,7.6293945e-05,-3.0517578e-05
2019-07-01T19:13:25.144Z,-0.012166137,0.0037882272,-0.20278896,-0.024642944,-0.24742126,9.804596,-6.315613,16.273499,-43.878174,-0.024360599,-0.24870758,9.803466,-0.0002835989,0.002707854,0.00042915344,-6.1035156e-05,-4.5776367e-05,3.0517578e-05
2019-07-01T19:13:25.345Z,-0.012163188,0.003769465,-0.20273924,-0.026794434,-0.24789429,9.803162,-5.970764,14.987183,-44.154358,-0.024024641,-0.24857512,9.80347,-0.00038816407,0.00044970214,0.0020475388,-6.1035156e-05,-0.00015258789,0.0002746582
2019-07-01T19:13:25.549Z,-0.012137919,0.0038155213,-0.20284389,-0.022247314,-0.24957275,9.8033905,-6.428528,15.614319,-44.5343,-0.02498308,-0.24827567,9.803474,-0.0015827026,0.0010962337,-0.0011835098,-0.00018310547,-0.00010681152,0.0001373291
2019-07-01T19:13:25.752Z,-0.012181096,0.0037574149,-0.2027179,-0.024642944,-0.24789429,9.801239,-5.793762,15.438843,-44.522095,-0.023727432,-0.24887055,9.803463,0.0014793444,-0.00071030855,-0.00047016144,-0.00012207031,-0.00021362305,0.00050354004
2019-07-01T19:13:25.954Z,-0.012182926,0.0037671376,-0.20274383,-0.0236969,-0.2498169,9.805313,-5.9310913,15.710449,-43.252563,-0.023900282,-0.24894497,9.803461,-2.6274472e-05,0.0005543381,1.8119812e-05,6.1035156e-05,0.0001373291,9.1552734e-05
2019-07-01T19:13:26.160Z,-0.012194051,0.0037840088,-0.20279308,-0.0284729,-0.2498169,9.803879,-5.554199,15.3793335,-44.3161,-0.02416749,-0.24922687,9.8034525,-0.00047500432,-0.0015314221,0.00096035004,6.1035156e-05,1.5258789e-05,0.0002746582
2019-07-01T19:13:26.360Z,-0.0121738855,0.0038669582,-0.20299512,-0.027999878,-0.24885559,9.803162,-5.0827026,15.045166,-44.102478,-0.02578925,-0.24917486,9.803451,-0.0026827585,0.00032788515,0.00031757355,0.0,-0.00010681152,0.00015258789
2019-07-01T19:13:26.560Z,-0.012157195,0.003879909,-0.2030194,-0.025131226,-0.25100708,9.805786,-5.4977417,16.54663,-43.77899,-0.026098236,-0.2489066,9.803456,-0.001183724,0.00030237436,-0.00010585785,6.1035156e-05,1.5258789e-05,1.5258789e-05
2019-07-01T19:13:26.771Z,-0.0121998675,0.0038858082,-0.20305741,-0.024398804,-0.25028992,9.8022,-6.121826,15.345764,-44.828796,-0.026031867,-0.24975039,9.803434,0.00018567778,-0.00147973,0.0010499954,-0.00012207031,1.5258789e-05,0.0002746582
2019-07-01T19:13:26.971Z,-0.012204041,0.0038547958,-0.20298007,-0.022979736,-0.25100708,9.804825,-6.388855,14.59198,-43.763733,-0.025439443,-0.24970503,9.803437,0.0010407977,-0.00033919513,-0.0015420914,0.00030517578,-0.00010681152,0.00015258789
2019-07-01T19:13:27.172Z,-0.012224532,0.0038033605,-0.20285906,-0.025360107,-0.24885559,9.803879,-6.3293457,15.907288,-43.725586,-0.024401013,-0.24989073,9.803435,0.0019106492,-0.0015782118,0.00072193146,0.00018310547,7.6293945e-05,0.00015258789
2019-07-01T19:13:27.374Z,-0.012203646,0.0038172978,-0.20288365,-0.023925781,-0.25028992,9.805542,-6.4804077,16.114807,-43.676758,-0.024745513,-0.24954577,9.803443,-0.00061391294,0.0006970465,-0.00032234192,0.0,-0.00015258789,0.00015258789
2019-07-01T19:13:27.571Z,-0.012232199,0.0037971577,-0.20284726,-0.022735596,-0.25004578,9.805313,-5.091858,16.57257,-43.56537,-0.024254398,-0.250013,9.803432,0.0005599018,-0.00096932054,0.0013818741,0.0,-0.00015258789,-3.0517578e-05
2019-07-01T19:13:27.776Z,-0.012213075,0.003750717,-0.20271783,-0.024169922,-0.25076294,9.803162,-4.949951,16.218567,-44.018555,-0.023471652,-0.24945796,9.803449,0.0007385034,0.0008725077,0.00012493134,6.1035156e-05,-4.5776367e-05,-0.00015258789
2019-07-01T19:13:27.981Z,-0.012239852,0.003770293,-0.2027824,-0.022491455,-0.25219727,9.804596,-5.3009033,15.539551,-43.766785,-0.023724606,-0.2500515,9.803432,-0.0004432816,-0.0011782646,-0.00039482117,-0.00012207031,-4.5776367e-05,9.1552734e-05
2019-07-01T19:13:28.185Z,-0.012300628,0.0037545015,-0.2027744,-0.02368164,-0.25004578,9.802673,-6.7214966,16.020203,-43.08014,-0.02318162,-0.2511555,9.803406,0.00093640387,-0.0015073121,5.8174133e-05,-6.1035156e-05,1.5258789e-05,0.0002746582
2019-07-01T19:13:28.389Z,-0.01225491,0.003784883,-0.20282792,-0.024642944,-0.24765015,9.801956,-5.0842285,14.894104,-43.45398,-0.023933252,-0.25039977,9.803424,-0.0014262311,0.0013065636,-0.0012350082,6.1035156e-05,7.6293945e-05,0.00015258789
2019-07-01T19:13:28.595Z,-0.012222447,0.0037743277,-0.20278344,-0.024414062,-0.2498169,9.805786,-5.1361084,15.54718,-43.392944,-0.023871066,-0.24973339,9.803441,0.00041787885,0.0015905052,-0.0008211136,-6.1035156e-05,7.6293945e-05,-9.1552734e-05
2019-07-01T19:13:28.789Z,-0.012230999,0.0037738492,-0.20278679,-0.024414062,-0.25053406,9.804352,-6.164551,16.065979,-44.151306,-0.023827001,-0.24989578,9.803437,-9.6566975e-05,-0.00061506033,0.0021562576,6.1035156e-05,-0.00015258789,0.0001373291
2019-07-01T19:13:28.997Z,-0.012238065,0.003791969,-0.20283708,-0.023208618,-0.24909973,9.804596,-6.14624,16.27655,-42.900085,-0.024134018,-0.25010473,9.803431,-0.00075159967,-0.00016999245,-0.00063610077,-6.1035156e-05,1.5258789e-05,0.0002593994
2019-07-01T19:13:29.205Z,-0.012238452,0.0037803955,-0.20280758,-0.02368164,-0.25364685,9.806992,-5.2612305,16.416931,-43.814087,-0.023917753,-0.25006542,9.803432,0.0007120166,4.976988e-05,0.0011730194,-0.00018310547,7.6293945e-05,1.5258789e-05
2019-07-01T19:13:29.405Z,-0.012267089,0.003774806,-0.20280857,-0.023925781,-0.25004578,9.804108,-5.9066772,16.448975,-44.161987,-0.023696225,-0.2505931,9.80342,0.00073594786,-0.0006136894,0.0011014938,0.0,7.6293945e-05,-0.00016784668
2019-07-01T19:13:29.610Z,-0.012279863,0.0037870468,-0.20284683,-0.024169922,-0.2498169,9.803879,-6.387329,16.488647,-44.0567,-0.023870664,-0.25088793,9.803411,-0.0005253311,-8.961558e-05,-0.0011739731,-0.00018310547,-0.00010681152,3.0517578e-05
2019-07-01T19:13:29.798Z,-0.012270506,0.0038003467,-0.20287596,-0.023452759,-0.2514801,9.801956,-6.17218,15.7699585,-43.380737,-0.02415585,-0.2507619,9.803413,-0.00072896853,0.0004954934,-0.00045490265,-6.1035156e-05,-0.00010681152,0.00021362305
2019-07-01T19:13:30.011Z,-0.012295956,0.003797574,-0.20288247,-0.024642944,-0.25004578,9.803406,-5.996704,16.375732,-44.85016,-0.023999643,-0.25123972,9.803403,-0.001603419,0.0002450645,0.0007095337,0.0,1.5258789e-05,0.00015258789
2019-07-01T19:13:30.205Z,-0.012256869,0.0038063468,-0.20288405,-0.025131226,-0.24957275,9.801727,-5.130005,15.844727,-44.239807,-0.024323277,-0.25052413,9.803419,-0.00031870604,0.0009612739,-0.00017166138,6.1035156e-05,1.5258789e-05,0.00033569336
2019-07-01T19:13:30.418Z,-0.012265551,0.0038283863,-0.20294526,-0.022735596,-0.25268555,9.801239,-5.1757812,16.796875,-45.10193,-0.024696277,-0.25078008,9.803412,-0.00019156188,-0.0004788041,-0.0013856888,0.0,7.6293945e-05,9.1552734e-05
2019-07-01T19:13:30.617Z,-0.012271527,0.003803965,-0.20288579,-0.022735596,-0.24932861,9.801956,-5.8563232,15.7196045,-43.85681,-0.024218751,-0.25079617,9.803413,0.0010078531,-0.00023451447,-0.0012512207,-6.1035156e-05,7.6293945e-05,3.0517578e-05
2019-07-01T19:13:30.827Z,-0.012251842,0.0037782388,-0.20280921,-0.023925781,-0.24861145,9.802444,-6.3476562,15.544128,-44.02466,-0.023822647,-0.250314,9.803427,0.0013288688,0.0014339983,-2.5749207e-05,0.0,7.6293945e-05,9.1552734e-05
2019-07-01T19:13:31.030Z,-0.012246707,0.0037629907,-0.20276733,-0.022735596,-0.25004578,9.805313,-5.532837,15.892029,-44.36493,-0.023560956,-0.25015375,9.8034315,0.00035000406,0.00055620074,-1.5258789e-05,6.1035156e-05,-4.5776367e-05,-3.0517578e-05
2019-07-01T19:13:31.229Z,-0.012234129,0.0037521345,-0.20273274,-0.023208618,-0.24885559,9.803162,-5.934143,15.791321,-44.065857,-0.023411334,-0.24986823,9.803438,-0.00028580986,-0.00018014014,0.0017328262,0.0,-0.00010681152,-4.5776367e-05
2019-07-01T19:13:31.434Z,-0.01220627,0.0037235448,-0.20264445,-0.023925781,-0.25125122,9.8033905,-5.2124023,15.687561,-43.663025,-0.022995563,-0.24921758,9.803456,3.0098483e-05,0.001785636,-0.0005912781,-6.1035156e-05,-0.00021362305,0.00044250488
2019-07-01T19:13:31.631Z,-0.012259797,0.0037534037,-0.20274973,-0.022491455,-0.25125122,9.803635,-5.8776855,15.361023,-44.607544,-0.023329277,-0.25036654,9.803426,-0.00059637986,-0.0027906895,0.0008735657,0.00024414062,-0.00010681152,3.0517578e-05
2019-07-01T19:13:31.835Z,-0.012252822,0.0037220565,-0.20266554,-0.025360107,-0.24861145,9.8033905,-4.9346924,16.511536,-43.80951,-0.022776537,-0.25010604,9.803434,0.00052909367,-0.00018528104,-0.00021743774,6.1035156e-05,-0.00010681152,0.00032043457
2019-07-01T19:13:32.041Z,-0.0122354105,0.0037579772,-0.20274842,-0.023208618,-0.24836731,9.805069,-4.798889,16.012573,-44.143677,-0.02351444,-0.24991645,9.803437,-0.001616152,0.00059457123,0.0006504059,0.0,7.6293945e-05,0.0002746582
2019-07-01T19:13:32.243Z,-0.012185808,0.003746979,-0.20269364,-0.023925781,-0.24813843,9.805542,-4.5776367,15.588379,-44.08722,-0.023514442,-0.24891897,9.803462,0.0003069304,0.0012805313,0.00042819977,6.1035156e-05,7.6293945e-05,9.1552734e-05
2019-07-01T19:13:32.441Z,-0.012156931,0.0037579155,-0.20270626,-0.023925781,-0.24957275,9.802429,-5.3100586,15.394592,-44.17267,-0.023836102,-0.24840824,9.803474,-0.0010491591,0.0010059923,0.00059986115,6.1035156e-05,-0.00015258789,0.00015258789
2019-07-01T19:13:32.651Z,-0.012192425,0.0037644885,-0.20274211,-0.024642944,-0.25028992,9.804596,-5.5984497,15.951538,-43.21747,-0.023812056,-0.2491168,9.803456,0.000116346404,-0.001404807,-0.0005559921,-6.1035156e-05,1.5258789e-05,1.5258789e-05
2019-07-01T19:13:32.843Z,-0.012204319,0.0037834686,-0.20279719,-0.024169922,-0.24909973,9.801956,-4.0161133,15.478516,-43.832397,-0.024115216,-0.24942198,9.803448,-0.0005265586,-0.00061167777,-4.4822693e-05,0.0,1.5258789e-05,0.00033569336
2019-07-01T19:13:33.056Z,-0.012198966,0.0037846058,-0.20279725,-0.023452759,-0.24742126,9.8033905,-5.5908203,16.325378,-44.34967,-0.02415834,-0.24932373,9.803451,0.00023210235,0.000463441,-0.0013093948,0.0,0.0001373291,9.1552734e-05
2019-07-01T19:13:33.259Z,-0.012179844,0.0037774087,-0.20276853,-0.023925781,-0.24932861,9.805313,-5.706787,15.666199,-45.158386,-0.024103504,-0.24892725,9.803461,-6.660633e-05,0.0012599081,0.00024986267,-0.00018310547,-0.00015258789,9.1552734e-05
2019-07-01T19:13:33.455Z,-0.012200212,0.003751709,-0.20271349,-0.024887085,-0.25076294,9.806503,-5.845642,16.090393,-44.53888,-0.023542952,-0.24921481,9.803454,0.0005636234,-0.00035363436,0.00048351288,-0.00012207031,-4.5776367e-05,0.00032043457
2019-07-01T19:13:33.661Z,-0.012209002,0.0037878293,-0.20281088,-0.02368164,-0.24742126,9.80484,-6.500244,15.7547,-44.277954,-0.024176842,-0.24952957,9.803445,-0.0009504128,-2.2053719e-06,0.0028820038,-0.00012207031,1.5258789e-05,0.00038146973
2019-07-01T19:13:33.856Z,-0.012210628,0.0037595779,-0.20273925,-0.024887085,-0.25172424,9.801727,-5.5267334,15.885925,-43.60962,-0.023646079,-0.2494467,9.803448,0.001158325,0.00040125847,-0.00014209747,6.1035156e-05,-4.5776367e-05,0.00038146973
2019-07-01T19:13:34.061Z,-0.012245541,0.003788353,-0.2028318,-0.023925781,-0.24932861,9.802673,-6.5826416,15.82489,-44.71283,-0.024036175,-0.25023377,9.803428,-0.0013239477,-0.0017347634,-0.0031290054,-6.1035156e-05,-0.00021362305,0.00039672852
2019-07-01T19:13:34.280Z,-0.012210392,0.0037801424,-0.20279191,-0.022247314,-0.24957275,9.802444,-5.2337646,15.556335,-45.50171,-0.024028528,-0.24952525,9.803446,-0.00036996976,0.0018782765,0.0003080368,-0.00012207031,0.0001373291,0.0002746582
2019-07-01T19:13:34.476Z,-0.012233208,0.0037764646,-0.20279469,-0.024887085,-0.25100708,9.801956,-4.740906,15.428162,-43.585205,-0.023866422,-0.24994877,9.803435,0.00041267462,-0.0003515035,-0.0010728836,0.0,-4.5776367e-05,0.00015258789
2019-07-01T19:13:34.731Z,-0.012240541,0.003772,-0.20278715,-0.023208618,-0.24598694,9.804108,-5.961609,15.359497,-45.059204,-0.023753434,-0.25007161,9.8034315,-0.00017419457,6.4074993e-06,-0.0007133484,-0.00018310547,-0.00015258789,3.0517578e-05
2019-07-01T19:13:34.923Z,-0.012208656,0.003790335,-0.20281713,-0.022018433,-0.25028992,9.802444,-5.8898926,15.066528,-44.366455,-0.024224741,-0.24953306,9.803445,-0.0009053033,-0.0005005449,0.0013904572,0.0,7.6293945e-05,-3.0517578e-05
2019-07-01T19:13:35.125Z,-0.012227666,0.003764611,-0.20276129,-0.025848389,-0.24861145,9.804596,-5.557251,15.229797,-43.969727,-0.023669353,-0.24979442,9.80344,0.001651084,-0.0007379204,-0.000834465,0.0,7.6293945e-05,0.00015258789
2019-07-01T19:13:35.329Z,-0.012209226,0.0038093505,-0.20286624,-0.022018433,-0.25196838,9.805557,-6.336975,14.093018,-44.848633,-0.024575125,-0.24962087,9.803442,-0.0015000813,0.00054207444,0.0015211105,0.0,0.0001373291,0.00021362305
2019-07-01T19:13:35.535Z,-0.012228129,0.0037728434,-0.20278268,-0.02368164,-0.24932861,9.801483,-4.9865723,15.414429,-43.954468,-0.023820153,-0.24983656,9.803438,0.0020479467,-0.0009044856,5.4359436e-05,0.00012207031,1.5258789e-05,3.0517578e-05
2019-07-01T19:13:35.739Z,-0.0122422725,0.0037665593,-0.20277412,-0.021530151,-0.25100708,9.804596,-6.1019897,15.858459,-44.952393,-0.023645392,-0.25008294,9.803432,0.00019265339,-0.00045087934,-0.0017137527,0.0,0.0001373291,9.1552734e-05
2019-07-01T19:13:35.941Z,-0.012249447,0.0037486842,-0.20273207,-0.0284729,-0.24813843,9.804825,-6.77948,14.933777,-44.3573,-0.023284318,-0.25014862,9.8034315,0.0007934179,-0.00037947297,0.00044250488,0.00012207031,-0.00010681152,0.00021362305
2019-07-01T19:13:36.145Z,-0.012188573,0.0038292583,-0.20290625,-0.0236969,-0.25028992,9.804825,-5.5496216,15.52887,-44.587708,-0.02502943,-0.24930452,9.803449,-0.0031971708,0.0011876076,0.001247406,0.00012207031,0.00019836426,-9.1552734e-05
2019-07-01T19:13:36.348Z,-0.0122111,0.003802514,-0.2028497,-0.024414062,-0.25004578,9.803635,-5.419922,16.555786,-44.233704,-0.024440596,-0.24962924,9.803442,0.0012337584,-0.00064247847,-0.00027751923,6.1035156e-05,-4.5776367e-05,-9.1552734e-05
2019-07-01T19:13:36.551Z,-0.012219122,0.003795864,-0.20283693,-0.021774292,-0.2514801,9.805069,-5.932617,15.942383,-44.866943,-0.024284234,-0.24975652,9.80344,0.00036119297,-0.0007493645,0.0007677078,-6.1035156e-05,-4.5776367e-05,9.1552734e-05
2019-07-01T19:13:36.759Z,-0.012262392,0.003770367,-0.20279466,-0.025848389,-0.254364,9.801727,-5.403137,15.402222,-45.903015,-0.023633227,-0.25048488,9.803422,0.0016173441,-0.0014564693,-0.00012874603,0.0,0.0001373291,0.0002746582
2019-07-01T19:13:36.959Z,-0.012276291,0.003831516,-0.20295905,-0.023208618,-0.25004578,9.805313,-6.008911,15.853882,-43.44635,-0.024710082,-0.2509991,9.803407,-0.0016109198,-0.0016823113,-0.0018415451,0.00030517578,0.0001373291,9.1552734e-05
2019-07-01T19:13:37.160Z,-0.012263406,0.0038110844,-0.20289971,-0.023452759,-0.2514801,9.803879,-4.927063,16.731262,-43.76526,-0.024384227,-0.25066888,9.803415,0.0016502701,-7.7188015e-05,0.0009946823,6.1035156e-05,0.0002593994,-0.00022888184
2019-07-01T19:13:37.354Z,-0.012284586,0.0037958978,-0.20287208,-0.022735596,-0.2498169,9.804108,-5.657959,16.534424,-43.699646,-0.02401537,-0.25101447,9.803408,0.0005642716,-0.00069242716,2.193451e-05,0.0,-0.00010681152,0.00015258789
2019-07-01T19:13:37.557Z,-0.012266878,0.0037786542,-0.20281833,-0.023452759,-0.2514801,9.802673,-5.5389404,15.745544,-44.46869,-0.023768464,-0.25060454,9.803418,0.00079055317,0.0010510385,0.00018024445,0.0,0.0001373291,3.0517578e-05
2019-07-01T19:13:37.770Z,-0.012278281,0.0037810009,-0.20283046,-0.024169922,-0.24693298,9.801483,-5.0186157,16.506958,-44.1864,-0.023765048,-0.25083312,9.803412,0.0005560927,-0.00017750263,-0.0017900467,-0.00012207031,1.5258789e-05,9.1552734e-05
2019-07-01T19:13:37.969Z,-0.012203516,0.003778459,-0.20278391,-0.026321411,-0.25028992,9.806992,-4.4570923,16.471863,-44.215393,-0.024025593,-0.24938634,9.80345,-0.0008627996,0.0029127896,-0.00071525574,6.1035156e-05,1.5258789e-05,0.00015258789
2019-07-01T19:13:38.172Z,-0.012226044,0.0038170305,-0.20289496,-0.021774292,-0.25076294,9.806992,-5.5999756,16.105652,-44.093323,-0.024648342,-0.24997506,9.803432,-0.0007094592,-0.0012527853,0.0028705597,-0.00012207031,1.5258789e-05,3.0517578e-05
2019-07-01T19:13:38.378Z,-0.012261861,0.0037825191,-0.20282556,-0.024169922,-0.25004578,9.806259,-6.336975,15.914917,-44.77997,-0.023860801,-0.25052378,9.803421,0.0018469486,-0.00067934394,0.001917839,-6.1035156e-05,7.6293945e-05,-4.5776367e-05
2019-07-01T19:13:38.573Z,-0.0122628985,0.0037938461,-0.2028552,-0.024887085,-0.25028992,9.805069,-4.9362183,16.435242,-43.371582,-0.02406661,-0.2505895,9.803419,-0.00034303777,0.0008185804,-0.00014781952,-0.00024414062,7.6293945e-05,0.00021362305
2019-07-01T19:13:38.781Z,-0.012264105,0.0037972883,-0.20286468,-0.020812988,-0.25411987,9.80603,-6.265259,15.698242,-44.67621,-0.02412548,-0.25062653,9.803416,0.00020458363,0.0003873706,0.00038433075,-0.00012207031,0.0001373291,0.00015258789
2019-07-01T19:13:38.985Z,-0.012336482,0.0037720967,-0.20283878,-0.022262573,-0.25004578,9.805313,-5.090332,16.720581,-44.062805,-0.023360329,-0.25191543,9.803386,0.0018362347,-0.0021391213,0.0010643005,-0.00012207031,1.5258789e-05,1.5258789e-05
2019-07-01T19:13:39.179Z,-0.012314747,0.0037567168,-0.20278765,-0.024169922,-0.2514801,9.803635,-5.1071167,16.433716,-44.799805,-0.0231646,-0.25143573,9.803399,0.0006784331,0.0014473498,-0.0005674362,-6.1035156e-05,7.6293945e-05,-9.1552734e-05
2019-07-01T19:13:39.399Z,-0.012296144,0.0037714087,-0.20281541,-0.022491455,-0.2498169,9.804825,-5.7662964,14.352417,-45.272827,-0.023513628,-0.2511376,9.803406,-0.00040896982,0.00040867925,-0.0018148422,6.1035156e-05,7.6293945e-05,-0.00010681152
2019-07-01T19:13:39.594Z,-0.012283833,0.0037556074,-0.20276825,-0.023208618,-0.25053406,9.804596,-4.060364,16.427612,-44.3161,-0.02327125,-0.25083724,9.803413,0.0007831864,0.0008280277,0.00022602081,-0.00018310547,0.0001373291,0.00032043457
2019-07-01T19:13:39.798Z,-0.012294045,0.0037583949,-0.20278087,-0.023452759,-0.25196838,9.803162,-4.9682617,15.856934,-44.16809,-0.023280919,-0.25104472,9.803409,0.0005483292,7.006526e-05,-0.0003232956,0.0,0.0001373291,9.1552734e-05
2019-07-01T19:13:39.999Z,-0.012288734,0.0037832542,-0.20284185,-0.02368164,-0.25196838,9.800995,-5.5618286,16.906738,-43.780518,-0.023763813,-0.25104308,9.803408,-0.0006489754,-0.00019466877,-0.0014886856,0.0,1.5258789e-05,0.00038146973
2019-07-01T19:13:40.204Z,-0.012336983,0.003789539,-0.20288382,-0.023925781,-0.25100708,9.8033905,-4.6966553,16.604614,-44.48242,-0.023681698,-0.2519955,9.803383,0.00071714446,-0.0014080107,-0.0011510849,-6.1035156e-05,7.6293945e-05,3.0517578e-05
2019-07-01T19:13:40.404Z,-0.012306119,0.0037968955,-0.20288618,-0.0236969,-0.25100708,9.803162,-5.482483,15.090942,-43.850708,-0.023945209,-0.25143224,9.803397,-0.00069859065,0.0013774931,-0.00060272217,-6.1035156e-05,7.6293945e-05,9.1552734e-05
2019-07-01T19:13:40.609Z,-0.012293167,0.0037820775,-0.20284119,-0.022735596,-0.25268555,9.803879,-6.176758,15.927124,-44.934082,-0.023723738,-0.25112352,9.803406,0.0005151052,0.00083345175,0.00070858,0.0,-3.0517578e-05,0.00015258789
2019-07-01T19:13:40.811Z,-0.012333198,0.0037614964,-0.20280981,-0.022491455,-0.25125122,9.801956,-5.882263,15.213013,-44.337463,-0.023177287,-0.25180954,9.80339,0.0006854888,-0.0020699203,-0.0003271103,0.00012207031,-4.5776367e-05,3.0517578e-05
2019-07-01T19:13:41.017Z,-0.012299683,0.0037773119,-0.20283246,-0.024642944,-0.2514801,9.805313,-5.8395386,16.236877,-44.50836,-0.02360854,-0.25122944,9.803403,-0.0005620215,0.0009327233,-0.00022029877,0.00012207031,1.5258789e-05,9.1552734e-05
2019-07-01T19:13:41.217Z,-0.012306323,0.0037655362,-0.20280579,-0.022247314,-0.25291443,9.806503,-5.683899,16.177368,-44.903564,-0.022697031,-0.2515124,9.803398,0.0013973415,-0.00043848157,0.0012331009,6.1035156e-05,0.0001373291,3.0517578e-05
2019-07-01T19:13:41.421Z,-0.012354499,0.003755022,-0.2028046,-0.022018433,-0.25196838,9.804108,-5.2337646,15.3289795,-44.41681,-0.02296955,-0.25219265,9.80338,-0.00048005953,-0.00068721175,0.0013065338,-0.00012207031,-0.00010681152,9.1552734e-05
2019-07-01T19:13:41.624Z,-0.01233991,0.003722945,-0.20271443,-0.025848389,-0.25125122,9.804108,-5.7891846,15.510559,-44.3573,-0.022434777,-0.2517829,9.803391,0.00090793706,0.00081297755,0.00022983551,-0.00018310547,7.6293945e-05,0.00038146973
2019-07-01T19:13:41.827Z,-0.012324903,0.0037868198,-0.20287037,-0.022018433,-0.24742126,9.805069,-5.622864,17.338562,-43.763733,-0.023681019,-0.25175244,9.80339,-0.0021644738,0.0007761419,-0.00048160553,-6.1035156e-05,1.5258789e-05,0.00015258789
2019-07-01T19:13:42.025Z,-0.012271258,0.0037587662,-0.20276964,-0.023452759,-0.2514801,9.806274,-5.7617188,15.942383,-43.363953,-0.02338158,-0.2506084,9.80342,0.0008936655,0.002507925,0.0006380081,-0.00012207031,0.0001373291,3.0517578e-05
2019-07-01T19:13:42.233Z,-0.0122894235,0.003761063,-0.20278525,-0.023452759,-0.24957275,9.804352,-5.822754,16.526794,-44.07196,-0.023349425,-0.2509667,9.803411,0.0001442898,-0.00024709105,-4.863739e-05,-6.1035156e-05,1.5258789e-05,0.00021362305
2019-07-01T19:13:42.469Z,-0.012270185,0.003772923,-0.2028054,-0.024169922,-0.25172424,9.804596,-5.6259155,15.597534,-44.72351,-0.02364856,-0.25064495,9.803418,-0.00027336366,0.0008689165,0.00029563904,-0.00012207031,1.5258789e-05,0.00038146973
2019-07-01T19:13:42.660Z,-0.012283441,0.003799526,-0.20288077,-0.024642944,-0.24836731,9.804825,-6.1904907,15.559387,-44.706726,-0.024087377,-0.25100714,9.803409,-0.0003244616,-0.00022092462,-0.0013952255,-6.1035156e-05,0.00019836426,0.00015258789
2019-07-01T19:13:42.855Z,-0.012225613,0.0037781945,-0.20279506,-0.022018433,-0.25053406,9.803635,-5.3390503,16.560364,-44.236755,-0.023929764,-0.24980982,9.803438,0.00072467513,0.0024254024,0.0011453629,-1.5258789e-05,-1.5258789e-05,9.1552734e-05
2019-07-01T19:13:43.098Z,-0.012268613,0.003756617,-0.2027627,-0.023452759,-0.2524414,9.804596,-5.130005,15.9210205,-44.602966,-0.0233526,-0.2505489,9.803421,0.0008634459,-0.0013948083,-0.0009965897,-0.0001373291,4.5776367e-05,-3.0517578e-05
2019-07-01T19:13:43.298Z,-0.012309492,0.0037788993,-0.20284179,-0.021530151,-0.2514801,9.804108,-5.7769775,15.805054,-44.37256,-0.023597596,-0.2514243,9.803398,0.00014736876,-0.0009901226,0.00014591217,-1.5258789e-05,4.5776367e-05,-3.0517578e-05
2019-07-01T19:13:43.499Z,-0.012287032,0.00371557,-0.20266719,-0.023925781,-0.25100708,9.803162,-5.834961,16.462708,-45.370483,-0.02251553,-0.25073716,9.803418,0.0014610831,0.000721246,0.00025367737,0.00010681152,-0.00018310547,3.0517578e-05
2019-07-01T19:13:43.698Z,-0.012299827,0.0037643595,-0.20279929,-0.024887085,-0.2498169,9.803879,-5.093384,16.574097,-43.789673,-0.023367738,-0.2511799,9.803405,-0.0019916333,-0.0012536049,-0.0017576218,4.5776367e-05,-7.6293945e-05,-3.0517578e-05
2019-07-01T19:13:43.902Z,-0.012271004,0.0037752697,-0.20281185,-0.024642944,-0.2498169,9.802673,-5.3390503,16.48407,-43.875122,-0.023688711,-0.25067016,9.803417,-0.00095395744,0.0008561909,-0.00037002563,0.00010681152,4.5776367e-05,-0.00010681152
2019-07-01T19:13:44.109Z,-0.012254538,0.0037664555,-0.20278041,-0.02130127,-0.2514801,9.803635,-5.845642,15.861511,-43.15033,-0.023592995,-0.2503182,9.803427,-0.00033206306,0.00028008223,0.00038051605,0.000289917,-0.00018310547,-3.0517578e-05
2019-07-01T19:13:44.303Z,-0.012262227,0.0037133642,-0.20264825,-0.022018433,-0.25291443,9.806992,-5.0308228,16.288757,-44.30542,-0.022576626,-0.25025168,9.803431,0.0015206803,-0.0009864271,0.00040721893,4.5776367e-05,-0.00024414062,7.6293945e-05
2019-07-01T19:13:44.518Z,-0.0122830765,0.0037151647,-0.20266403,-0.023452759,-0.24957275,9.804825,-6.326294,16.055298,-44.22455,-0.02252428,-0.25065956,9.803421,-0.00020832382,-0.0010313988,0.0015516281,-1.5258789e-05,0.00010681152,3.0517578e-05
2019-07-01T19:13:44.717Z,-0.012298907,0.0037299974,-0.20271058,-0.024414062,-0.25076294,9.803146,-5.101013,16.427612,-43.971252,-0.022734262,-0.25102356,9.8034115,-0.00022746436,-0.0004261732,-0.0002450943,-1.5258789e-05,4.5776367e-05,1.5258789e-05
2019-07-01T19:13:44.919Z,-0.012273777,0.0037532605,-0.20275685,-0.022491455,-0.25100708,9.8033905,-4.9697876,15.931702,-44.607544,-0.023269098,-0.25063458,9.803419,-0.0013716258,0.0010857284,-0.00047588348,-7.6293945e-05,-7.6293945e-05,-9.1552734e-05
2019-07-01T19:13:45.118Z,-0.012303114,0.0037494763,-0.20276284,-0.024642944,-0.25411987,9.805069,-5.7617188,16.322327,-45.401,-0.023078201,-0.25118297,9.803406,9.937398e-05,-0.00077551603,-0.00111866,4.5776367e-05,-7.6293945e-05,3.0517578e-05
2019-07-01T19:13:45.319Z,-0.01232264,0.0037633725,-0.20280898,-0.020812988,-0.25125122,9.804352,-5.9051514,16.448975,-44.010925,-0.023255538,-0.25161424,9.803394,-0.00019524805,-0.0017671287,0.00084400177,0.00022888184,4.5776367e-05,-0.00015258789
2019-07-01T19:13:45.523Z,-0.012306599,0.003732069,-0.20272002,-0.022735596,-0.25076294,9.804596,-5.6030273,15.956116,-43.745422,-0.022741027,-0.25117967,9.803406,0.0007251557,0.00044500828,0.00055885315,-1.5258789e-05,-0.0001373291,-3.0517578e-05
2019-07-01T19:13:45.728Z,-0.012322982,0.0037045956,-0.20265825,-0.022491455,-0.25004578,9.801483,-5.1986694,16.133118,-44.480896,-0.022497695,-0.25042906,9.803426,0.00086452626,-0.0005658567,-0.00074863434,0.00010681152,-1.5258789e-05,3.0517578e-05
2019-07-01T19:13:45.929Z,-0.0122719025,0.0037112539,-0.20264801,-0.023208618,-0.2524414,9.804123,-5.659485,16.688538,-44.726562,-0.023192948,-0.2503893,9.803426,-0.0012203306,-0.00036516786,0.0013113022,-1.5258789e-05,-1.5258789e-05,-0.00015258789
2019-07-01T19:13:46.163Z,-0.012286228,0.0037510463,-0.20275784,-0.023208618,-0.24813843,9.804108,-6.175232,15.847778,-44.195557,-0.023176799,-0.25086486,9.803413,-0.0005205143,-0.0008638501,-0.0010385513,-1.5258789e-05,-1.5258789e-05,-0.00021362305
2019-07-01T19:13:46.355Z,-0.012267506,0.0037372329,-0.20271236,-0.021530151,-0.25315857,9.805069,-5.0231934,16.58783,-45.07599,-0.022997634,-0.2504494,9.803425,0.00050604716,0.0011193454,0.00026607513,-7.6293945e-05,0.00010681152,-0.0002746582
2019-07-01T19:13:46.560Z,-0.012290572,0.0037316126,-0.20271027,-0.02130127,-0.25125122,9.803635,-5.8273315,16.30249,-43.362427,-0.022798503,-0.2508699,9.803414,0.0010263529,-0.00083076954,0.0019388199,0.00010681152,0.00016784668,-9.1552734e-05
2019-07-01T19:13:46.803Z,-0.01231015,0.0037337777,-0.2027263,-0.023452759,-0.25291443,9.807465,-5.319214,15.252686,-44.578552,-0.022758108,-0.2512548,9.803404,0.0007414967,-0.0014106333,-0.00030994415,0.00010681152,4.5776367e-05,0.0001373291
2019-07-01T19:13:46.997Z,-0.012318767,0.003729717,-0.2027205,-0.023452759,-0.2524414,9.806747,-5.0949097,14.674377,-43.49823,-0.022647351,-0.251404,9.803401,0.00038913824,-0.0012331605,0.0021762848,0.00010681152,4.5776367e-05,9.1552734e-05
2019-07-01T19:13:47.200Z,-0.01233339,0.0037634235,-0.20281486,-0.022735596,-0.25004578,9.805542,-5.2459717,16.85791,-44.178772,-0.023212232,-0.251821,9.80339,-0.00095224194,-0.00056126714,0.0008125305,0.00010681152,-1.5258789e-05,-3.0517578e-05
2019-07-01T19:13:47.394Z,-0.012291618,0.0037196672,-0.20268017,-0.0236969,-0.25172424,9.80722,-5.595398,16.32843,-44.726562,-0.022572659,-0.25084183,9.803416,0.0005593691,0.0010820925,-0.0001077652,0.00016784668,-6.1035156e-05,-0.00015258789
2019-07-01T19:13:47.600Z,-0.012289181,0.0037644778,-0.2027939,-0.023452759,-0.25196838,9.804596,-5.3268433,16.699219,-43.377686,-0.02341375,-0.25097585,9.803411,-0.0009944588,-0.0006856322,0.00041294098,4.5776367e-05,0.00016784668,-3.0517578e-05
2019-07-01T19:13:47.802Z,-0.012313227,0.0037737365,-0.20283054,-0.024642944,-0.25028992,9.80484,-5.2703857,16.348267,-44.433594,-0.023486475,-0.25147521,9.803396,3.8597733e-05,-0.00044089556,-0.0008392334,-1.5258789e-05,-0.0001373291,-3.0517578e-05
2019-07-01T19:13:48.008Z,-0.012289452,0.0037680923,-0.20280331,-0.023452759,-0.2524414,9.805786,-6.513977,15.538025,-44.699097,-0.02347967,-0.25099564,9.80341,-0.0006845314,0.0002938509,0.000705719,-1.5258789e-05,-0.00018310547,0.0002593994
2019-07-01T19:13:48.211Z,-0.012318867,0.0037485233,-0.20276883,-0.023452759,-0.25172424,9.803162,-5.6869507,15.875244,-43.60504,-0.0229957,-0.2514818,9.803398,0.00026515312,-0.0004313588,-0.00048160553,0.00010681152,-1.5258789e-05,-0.00015258789
2019-07-01T19:13:48.418Z,-0.012297557,0.003781136,-0.20284113,-0.021774292,-0.25053406,9.802429,-5.7128906,15.216064,-43.28766,-0.023688208,-0.25120404,9.803404,-0.0014408957,-2.4676323e-05,-0.0025548935,-1.5258789e-05,-7.6293945e-05,-3.0517578e-05
2019-07-01T19:13:48.635Z,-0.012319077,0.003728669,-0.20271797,-0.024169922,-0.2524414,9.8029175,-6.9122314,17.251587,-43.502808,-0.02262664,-0.25140572,9.803401,0.0022872817,-0.0003117621,-0.0012350082,4.5776367e-05,0.00010681152,-0.00021362305
2019-07-01T19:13:48.816Z,-0.012295209,0.0037541334,-0.20277056,-0.022262573,-0.25100708,9.804108,-5.819702,16.447449,-43.258667,-0.023197098,-0.25104988,9.803409,-0.0012158062,5.5342913e-05,0.0004529953,0.00010681152,-7.6293945e-05,-0.00015258789
2019-07-01T19:13:49.022Z,-0.01231267,0.0037314922,-0.20272179,-0.0236969,-0.25100708,9.801239,-5.279541,16.052246,-44.039917,-0.022705356,-0.25129402,9.803404,0.00044391677,-0.0006618202,-1.5258789e-05,4.5776367e-05,-0.00018310547,-9.1552734e-05
2019-07-01T19:13:49.227Z,-0.012308855,0.0037560677,-0.20278284,-0.02154541,-0.25172424,9.803635,-5.847168,16.01715,-44.40155,-0.023176812,-0.2513199,9.803402,-0.0009944178,0.00029864907,-0.0020828247,-1.5258789e-05,4.5776367e-05,0.00021362305
2019-07-01T19:13:49.423Z,-0.012297904,0.003706451,-0.20264961,-0.022018433,-0.24932861,9.804596,-6.088257,16.003418,-44.470215,-0.022301683,-0.2509093,9.803414,0.0014732927,0.00061777234,0.0010004044,0.00010681152,-1.5258789e-05,3.0517578e-05
2019-07-01T19:13:49.635Z,-0.012274774,0.0037121093,-0.20265175,-0.023452759,-0.25100708,9.806274,-4.7332764,15.800476,-44.718933,-0.022501754,-0.2504877,9.803425,-0.00046247244,-4.3570995e-05,0.00034427643,0.00010681152,-1.5258789e-05,-3.0517578e-05
2019-07-01T19:13:49.833Z,-0.012273026,0.0037227152,-0.20267804,-0.023925781,-0.2498169,9.803635,-4.899597,15.567017,-44.155884,-0.022705661,-0.2504969,9.803425,-0.0002564434,-0.0002398789,0.0018253326,0.00010681152,-0.0001373291,-0.00015258789
2019-07-01T19:13:50.040Z,-0.0122645255,0.0037303395,-0.20269306,-0.022979736,-0.24957275,9.803635,-5.7724,15.724182,-43.48297,-0.022882031,-0.2503643,9.803427,-0.0012861397,0.00033769011,-0.0005426407,-0.0001373291,-0.00018310547,-0.00015258789
2019-07-01T19:13:50.238Z,-0.012261899,0.0037388084,-0.2027134,-0.023925781,-0.25076294,9.804825,-6.0424805,16.947937,-43.826294,-0.023049923,-0.25034803,9.803428,-0.00064509176,0.0007957518,0.00012302399,-0.00019836426,4.5776367e-05,-0.00021362305
2019-07-01T19:13:50.442Z,-0.012273939,0.0037386855,-0.20271952,-0.022247314,-0.25076294,9.803635,-5.8044434,15.144348,-44.27948,-0.02299811,-0.25057885,9.803421,3.5611913e-05,6.633997e-05,8.678436e-05,0.00016784668,4.5776367e-05,3.0517578e-05
2019-07-01T19:13:50.649Z,-0.012269085,0.0037444222,-0.20273165,-0.023925781,-0.25053406,9.805542,-5.479431,15.242004,-44.499207,-0.023124477,-0.25050876,9.803423,0.00063433684,-0.00072821975,-0.0005903244,4.5776367e-05,0.00010681152,3.0517578e-05
2019-07-01T19:13:50.868Z,-0.012249855,0.0037795214,-0.20281145,-0.025604248,-0.25100708,9.8022,-5.404663,16.694641,-43.148804,-0.023854611,-0.25028098,9.803427,-0.00031357817,-0.000952065,-0.00074863434,0.000289917,0.00010681152,-0.00015258789
2019-07-01T19:13:51.061Z,-0.012248241,0.0038136644,-0.2028982,-0.023452759,-0.25100708,9.80603,-4.8843384,16.009521,-44.670105,-0.02449452,-0.25038794,9.803422,-0.0015817638,-0.00060907006,-0.00065517426,-0.0001373291,-0.00024414062,-9.1552734e-05
2019-07-01T19:13:51.261Z,-0.012260551,0.0037834041,-0.20282714,-0.022491455,-0.25028992,9.803635,-4.6417236,16.177368,-45.399475,-0.023882605,-0.2505022,9.803422,0.0009216685,-0.00022357702,0.0021162033,0.00010681152,0.00010681152,3.0517578e-05
2019-07-01T19:13:51.518Z,-0.012275453,0.0037603932,-0.20277606,-0.022735596,-0.25100708,9.805313,-6.895447,16.021729,-44.810486,-0.023394495,-0.2506956,9.803418,0.000905158,-0.00053295493,-0.0011434555,-1.5258789e-05,-1.5258789e-05,-9.1552734e-05
2019-07-01T19:13:51.712Z,-0.012243187,0.0037660603,-0.20277332,-0.022018433,-0.24765015,9.8033905,-7.104492,16.433716,-42.980957,-0.023632377,-0.2500985,9.803432,-6.236695e-05,0.00054857135,2.5749207e-05,0.00022888184,-1.5258789e-05,3.0517578e-05
2019-07-01T19:13:51.916Z,-0.012224283,0.0037188581,-0.20264207,-0.022979736,-0.24980164,9.804108,-5.6015015,16.105652,-44.39392,-0.02283456,-0.24954477,9.803448,0.0013059154,0.0011786819,-0.0004606247,4.5776367e-05,4.5776367e-05,-3.0517578e-05
2019-07-01T19:13:52.113Z,-0.012231368,0.00371015,-0.2026235,-0.024169922,-0.24908447,9.804352,-5.8135986,15.002441,-44.685364,-0.022643892,-0.24964578,9.803446,0.00015432946,-0.00062325597,0.0003299713,0.00010681152,-6.1035156e-05,-3.0517578e-05
2019-07-01T19:13:52.320Z,-0.012200864,0.0037334769,-0.20266706,-0.024642944,-0.25196838,9.806274,-5.201721,16.210938,-45.144653,-0.023202047,-0.24915375,9.803456,-0.00072117336,0.00032566488,0.0005302429,0.00010681152,0.00010681152,3.0517578e-05
2019-07-01T19:13:52.518Z,-0.0122329835,0.0037743817,-0.20278922,-0.023925781,-0.24885559,9.805313,-5.693054,15.72876,-43.559265,-0.023828708,-0.24993604,9.803435,-0.0012990031,-0.0019954592,0.0006752014,0.00016784668,-7.6293945e-05,0.00015258789
2019-07-01T19:13:52.717Z,-0.012209833,0.003757288,-0.20273295,-0.021530151,-0.25028992,9.804108,-4.9453735,16.444397,-44.65332,-0.023606878,-0.24942218,9.803449,-8.621439e-05,0.0006067902,0.00028324127,-1.5258789e-05,-7.6293945e-05,3.0517578e-05
2019-07-01T19:13:52.932Z,-0.0122286985,0.0037231368,-0.2026554,-0.020584106,-0.25053406,9.803162,-5.819702,16.523743,-43.69507,-0.022895776,-0.24964689,9.803446,0.001597492,-0.0006104708,-0.0006160736,4.5776367e-05,-1.5258789e-05,-3.0517578e-05
2019-07-01T19:13:53.128Z,-0.012262264,0.003679708,-0.20256189,-0.022964478,-0.25004578,9.8029175,-5.9936523,16.374207,-44.699097,-0.021952199,-0.2501167,9.803435,0.0013699774,-0.0006247461,-0.0008869171,-7.6293945e-05,-0.0001373291,9.1552734e-05
2019-07-01T19:13:53.334Z,-0.012260328,0.0037093877,-0.20263703,-0.023452759,-0.24957275,9.803635,-4.988098,15.415955,-44.10553,-0.022510678,-0.25019917,9.803432,-0.001170259,0.0003900826,-0.0010652542,-0.0001373291,-1.5258789e-05,-3.0517578e-05
2019-07-01T19:13:53.535Z,-0.01224399,0.0037213461,-0.202659,-0.023208618,-0.25004578,9.804352,-6.184387,15.707397,-44.752502,-0.02279968,-0.24993345,9.803438,-0.00040887855,0.0006055087,-0.0005464554,0.00010681152,4.5776367e-05,3.0517578e-05
2019-07-01T19:13:53.739Z,-0.012232459,0.0037292608,-0.20267314,-0.024887085,-0.2514801,9.804825,-4.824829,15.50293,-44.473267,-0.022993907,-0.24974382,9.803442,-0.00021339767,-5.8829784e-05,0.0010671616,-1.5258789e-05,0.00010681152,1.5258789e-05
2019-07-01T19:13:53.935Z,-0.0122687295,0.0037787824,-0.20281966,-0.022491455,-0.24957275,9.803879,-5.2246094,15.699768,-45.248413,-0.023763223,-0.25064063,9.803417,-0.001121195,-0.0015285015,0.001039505,-1.5258789e-05,0.00010681152,3.0517578e-05
2019-07-01T19:13:54.148Z,-0.012262196,0.0037492458,-0.20274034,-0.025131226,-0.25053406,9.80722,-5.4382324,16.04004,-43.80951,-0.023242285,-0.25039583,9.803425,0.0009959321,0.00011625886,-0.0013856888,4.5776367e-05,-7.6293945e-05,3.0517578e-05
2019-07-01T19:13:54.348Z,-0.012236525,0.003780358,-0.20280646,-0.024642944,-0.2514801,9.802444,-4.711914,16.160583,-44.04297,-0.023924986,-0.25002822,9.803432,-0.0012023095,0.0004965365,0.002421379,4.5776367e-05,0.00010681152,3.0517578e-05
2019-07-01T19:13:54.592Z,-0.012259248,0.0037977586,-0.20286328,-0.023925781,-0.24789429,9.805542,-6.2408447,15.982056,-43.260193,-0.024154197,-0.25053513,9.803419,-0.00025761314,-0.000921607,-0.0014162064,4.5776367e-05,-1.5258789e-05,-0.00010681152
2019-07-01T19:13:54.749Z,-0.0121855885,0.0037932135,-0.20281217,-0.02130127,-0.24885559,9.804352,-5.6655884,16.389465,-43.955994,-0.02437307,-0.24910147,9.803456,-0.0005102139,0.0017190576,0.0012741089,0.000289917,-1.5258789e-05,9.1552734e-05
2019-07-01T19:13:54.955Z,-0.012202725,0.0037365018,-0.2026758,-0.025604248,-0.2534027,9.803879,-5.116272,16.13617,-44.180298,-0.023250509,-0.24920171,9.803455,0.0024397094,-0.0003475845,-0.0012168884,4.5776367e-05,0.00010681152,9.1552734e-05
2019-07-01T19:13:55.160Z,-0.012249451,0.0038050306,-0.2028767,-0.024414062,-0.24909973,9.8029175,-5.682373,16.253662,-45.19043,-0.024329403,-0.25037628,9.803423,-0.0019900464,-0.0025179684,-0.00033473969,0.00010681152,4.5776367e-05,3.0517578e-05
2019-07-01T19:13:55.361Z,-0.012233083,0.0037848372,-0.2028161,-0.023452759,-0.25053406,9.803635,-4.953003,16.221619,-44.395447,-0.024022235,-0.24998021,9.803434,0.00032619946,0.00017231703,-0.000869751,4.5776367e-05,-0.0001373291,-3.0517578e-05
2019-07-01T19:13:55.560Z,-0.012242938,0.0037889075,-0.20283183,-0.023452759,-0.25028992,9.803635,-4.7805786,16.374207,-43.76831,-0.02405717,-0.250186,9.803429,-0.00011258945,-0.00010225177,-0.00057697296,4.5776367e-05,-1.5258789e-05,0.00015258789
2019-07-01T19:13:55.763Z,-0.012203427,0.0037818558,-0.20279257,-0.023452759,-0.24813843,9.806992,-5.784607,15.583801,-44.34204,-0.024088971,-0.24939832,9.803449,0.00016375817,-0.00016854703,0.0013885498,0.00010681152,-1.5258789e-05,-9.1552734e-05
2019-07-01T19:13:55.970Z,-0.01218696,0.0037741943,-0.2027641,-0.023925781,-0.24742126,9.801727,-6.237793,16.12854,-43.530273,-0.024014594,-0.24905097,9.803457,0.00033580698,0.00046913326,0.0018806458,-1.5258789e-05,4.5776367e-05,0.00021362305
2019-07-01T19:13:56.169Z,-0.01216581,0.0037670047,-0.20273434,-0.025604248,-0.25028992,9.802444,-5.9768677,16.661072,-44.03839,-0.023968218,-0.24861555,9.803469,-0.00020065345,0.00073215365,-0.0014543533,0.00016784668,-0.0001373291,-0.00010681152
2019-07-01T19:13:56.375Z,-0.012178168,0.0037767251,-0.20276588,-0.023208618,-0.25125122,9.8022,-6.323242,16.20636,-44.570923,-0.02409772,-0.24889228,9.803462,-0.00054612383,-0.00068977475,-0.0016126633,-1.5258789e-05,-7.6293945e-05,3.0517578e-05
2019-07-01T19:13:56.580Z,-0.012224476,0.0037741575,-0.20278409,-0.023925781,-0.25125122,9.803635,-4.3167114,16.046143,-44.38324,-0.02385956,-0.24977168,9.80344,0.00040678866,-0.0019526929,0.00067329407,-1.5258789e-05,0.00010681152,-0.00015258789
2019-07-01T19:13:56.779Z,-0.012254803,0.003798068,-0.2028617,-0.024169922,-0.24861145,9.801239,-4.8706055,16.075134,-43.4494,-0.024178237,-0.250451,9.803422,-0.00022115931,-0.0015235245,-0.0005083084,0.00010681152,0.00010681152,9.1552734e-05
2019-07-01T19:13:56.981Z,-0.012214809,0.003787692,-0.20281364,-0.024169922,-0.24932861,9.8022,-5.6015015,15.879822,-43.307495,-0.024150398,-0.24964061,9.803443,0.00046652183,0.0014790744,-0.0012960434,-1.5258789e-05,0.00010681152,-3.0517578e-05
2019-07-01T19:13:57.178Z,-0.012204484,0.00380175,-0.20284419,-0.024414062,-0.24957275,9.803162,-5.567932,16.68396,-43.373108,-0.02445366,-0.24949901,9.803445,-0.0001928322,0.00013419986,-0.0010280609,4.5776367e-05,0.00022888184,3.0517578e-05
2019-07-01T19:13:57.386Z,-0.012212125,0.0038143033,-0.2028805,-0.022491455,-0.25172424,9.8029175,-6.3064575,16.571045,-44.49768,-0.02465506,-0.24969657,9.803439,0.00048352033,-0.00013671815,0.0015554428,-1.5258789e-05,-1.5258789e-05,3.0517578e-05
2019-07-01T19:13:57.599Z,-0.012243224,0.003781132,-0.20281203,-0.025131226,-0.25004578,9.803879,-6.2179565,16.644287,-43.88275,-0.023911774,-0.25016007,9.80343,0.0014186837,-0.0013371408,-8.583069e-05,0.00016784668,0.00010681152,-0.00021362305
2019-07-01T19:13:57.794Z,-0.012220824,0.0038052166,-0.20286185,-0.0236969,-0.2498169,9.801956,-5.2078247,15.989685,-44.88678,-0.024450706,-0.24982701,9.803437,-0.00068187155,0.00048458576,0.0002670288,-0.00019836426,0.00010681152,-0.00015258789
2019-07-01T19:13:57.999Z,-0.012236447,0.0037937793,-0.20284085,-0.024169922,-0.25028992,9.801956,-5.5099487,16.32843,-44.20166,-0.024174253,-0.25008097,9.8034315,0.00072017685,2.1576881e-05,2.002716e-05,-1.5258789e-05,-1.5258789e-05,-9.1552734e-05
2019-07-01T19:13:58.203Z,-0.012252159,0.0038042592,-0.20287617,-0.025604248,-0.25125122,9.8033905,-6.1447144,16.430664,-43.77594,-0.024303945,-0.2504252,9.803421,-9.6933916e-05,-0.00084739923,-0.0006284714,4.5776367e-05,0.00010681152,3.0517578e-05
2019-07-01T19:13:58.400Z,-0.012252911,0.0038351624,-0.20295587,-0.025131226,-0.2514801,9.805069,-4.79126,16.2323,-44.325256,-0.024874007,-0.2505646,9.803417,-0.000732068,-0.0004608631,0.00022029877,0.00010681152,0.00010681152,-0.00021362305
2019-07-01T19:13:58.608Z,-0.012254966,0.0038431734,-0.20297754,-0.023452759,-0.24909973,9.804108,-5.3222656,15.101624,-44.00482,-0.025014117,-0.25063652,9.803415,-0.00011692569,-0.00012460351,0.0015821457,-1.5258789e-05,-7.6293945e-05,-3.0517578e-05
2019-07-01T19:13:58.811Z,-0.012241061,0.0038064332,-0.2028758,-0.025604248,-0.24836731,9.804825,-6.3171387,16.19873,-43.667603,-0.02438996,-0.25022075,9.803427,0.0011814106,0.0008928478,-6.389618e-05,-7.6293945e-05,0.00010681152,-0.00015258789
2019-07-01T19:13:59.013Z,-0.012202284,0.0038397654,-0.20294057,-0.024414062,-0.24813843,9.801239,-5.067444,15.487671,-44.618225,-0.025167879,-0.24961045,9.80344,-0.0011519138,0.0014880747,0.0012426376,4.5776367e-05,-1.5258789e-05,3.0517578e-05
2019-07-01T19:13:59.212Z,-0.012185263,0.0038085205,-0.20285127,-0.024398804,-0.25196838,9.8033905,-5.381775,15.611267,-44.50226,-0.024658361,-0.24915707,9.803453,0.00096105225,0.00077036023,-0.0015630722,-7.6293945e-05,0.00010681152,-9.1552734e-05
2019-07-01T19:13:59.419Z,-0.012227546,0.0038248634,-0.20291586,-0.024642944,-0.24932861,9.803879,-5.2581787,16.564941,-44.08722,-0.024787445,-0.25003558,9.803431,0.0001440458,-0.0021662712,-8.869171e-05,0.00010681152,4.5776367e-05,-0.00015258789
2019-07-01T19:13:59.622Z,-0.012220149,0.003827832,-0.20291951,-0.024642944,-0.24932861,9.802444,-6.05011,15.209961,-45.388794,-0.024872968,-0.24990547,9.803434,-1.4876947e-05,0.0007981211,-0.00021743774,-0.0001373291,0.00010681152,-9.1552734e-05
2019-07-01T19:13:59.825Z,-0.012215671,0.0038258876,-0.20291212,-0.02368164,-0.24836731,9.8033905,-5.343628,16.412354,-44.19098,-0.024855336,-0.24981156,9.803436,0.0002124533,-4.7385693e-06,0.00064754486,0.00010681152,4.5776367e-05,3.0517578e-05
2019-07-01T19:14:00.023Z,-0.0121911345,0.0038111168,-0.20286109,-0.025848389,-0.25028992,9.8033905,-7.131958,16.079712,-44.488525,-0.02468236,-0.2492804,9.803451,0.0007559415,0.0011355281,-0.0005235672,-1.5258789e-05,0.00010681152,-3.0517578e-05
2019-07-01T19:14:00.223Z,-0.012183983,0.003816339,-0.20287065,-0.023925781,-0.24813843,9.806503,-5.340576,16.485596,-44.026184,-0.024808673,-0.24916409,9.803453,-7.909909e-05,5.7443976e-05,-3.528595e-05,-1.5258789e-05,4.5776367e-05,9.1552734e-05
2019-07-01T19:14:00.431Z,-0.012193436,0.0038229914,-0.20289278,-0.026794434,-0.25100708,9.804596,-7.2143555,16.22467,-45.285034,-0.024893163,-0.24937262,9.803448,0.0002523549,-0.0006517619,0.002213478,4.5776367e-05,4.5776367e-05,9.1552734e-05
2019-07-01T19:14:00.634Z,-0.012192568,0.0038649058,-0.20299986,-0.024642944,-0.25076294,9.804825,-5.517578,16.181946,-44.154358,-0.025674228,-0.24952553,9.803442,-0.0013616551,-0.0004940778,0.00035572052,4.5776367e-05,0.00010681152,1.5258789e-05
2019-07-01T19:14:00.837Z,-0.012243981,0.0038437357,-0.2029731,-0.023208618,-0.24957275,9.801483,-5.282593,15.90271,-43.466187,-0.025069796,-0.2504277,9.80342,0.001146799,-0.0015128851,8.678436e-05,4.5776367e-05,-1.5258789e-05,9.1552734e-05
2019-07-01T19:14:01.041Z,-0.012236051,0.0038202808,-0.20290865,-0.024642944,-0.25219727,9.801956,-5.4748535,15.237427,-43.971252,-0.024667429,-0.25018048,9.803428,0.0009709094,0.00036743283,-0.0018663406,-7.6293945e-05,4.5776367e-05,-0.00015258789
2019-07-01T19:14:01.236Z,-0.012252263,0.0038180617,-0.20291165,-0.0236969,-0.25028992,9.802444,-5.7525635,16.313171,-44.195557,-0.024559516,-0.250483,9.80342,-8.4187835e-05,-0.00028768182,-0.000916481,4.5776367e-05,-7.6293945e-05,-0.00015258789
2019-07-01T19:14:01.452Z,-0.012247692,0.0038127427,-0.20289555,-0.02607727,-0.2514801,9.8029175,-6.0546875,16.65039,-43.35785,-0.024479687,-0.25037366,9.803423,0.00078127347,-0.00040474534,-0.0006160736,0.00010681152,0.00016784668,-0.00015258789
2019-07-01T19:14:01.652Z,-0.012247896,0.0038318473,-0.20294468,-0.023452759,-0.25172424,9.806747,-5.6518555,16.833496,-44.696045,-0.024833176,-0.2504548,9.803419,-0.00029968284,-0.00104177,-0.00010204315,0.00022888184,-1.5258789e-05,-3.0517578e-05
2019-07-01T19:14:01.851Z,-0.012278057,0.0038295067,-0.20295484,-0.023925781,-0.25219727,9.804825,-5.8563232,16.026306,-45.60852,-0.024665548,-0.2510249,9.803407,2.473779e-05,-0.00092175603,0.0029659271,-7.6293945e-05,4.5776367e-05,-3.0517578e-05
2019-07-01T19:14:02.056Z,-0.012245311,0.00380282,-0.2028688,-0.0236969,-0.25196838,9.803635,-6.6711426,15.522766,-44.015503,-0.024305448,-0.25028783,9.803426,0.00013529323,0.00095683336,-0.0020933151,0.00022888184,-0.00018310547,3.0517578e-05
2019-07-01T19:14:02.261Z,-0.012275063,0.0038016983,-0.20288186,-0.025131226,-0.25172424,9.803162,-5.581665,16.468811,-43.86902,-0.024162155,-0.25085494,9.8034115,-6.9197267e-06,-0.0013335049,0.0008401871,-7.6293945e-05,0.00010681152,-3.0517578e-05
2019-07-01T19:14:02.461Z,-0.012270826,0.0038211902,-0.20292962,-0.022247314,-0.25053406,9.804352,-5.6991577,15.736389,-44.389343,-0.024541097,-0.25085232,9.803411,-0.0005897507,-0.0003950596,-0.00039958954,0.000289917,4.5776367e-05,-3.0517578e-05
2019-07-01T19:14:02.715Z,-0.012262835,0.0037603974,-0.20276931,-0.022018433,-0.24957275,9.803635,-4.7439575,15.583801,-44.83795,-0.02344649,-0.25045314,9.803423,0.0019163676,-8.058548e-05,-0.00027370453,0.00016784668,-0.00018310547,9.1552734e-05
2019-07-01T19:14:02.920Z,-0.012233862,0.0037528714,-0.20273449,-0.024169922,-0.24885559,9.802444,-5.419922,16.404724,-43.585205,-0.0234261,-0.24986607,9.803438,-2.6693568e-05,0.0007659793,-3.33786e-05,4.5776367e-05,4.5776367e-05,9.1552734e-05
2019-07-01T19:14:03.165Z,-0.012209313,0.0037511021,-0.2027168,-0.023925781,-0.25053406,9.804108,-5.4718018,15.538025,-45.19348,-0.023494268,-0.24938723,9.803451,4.20101e-05,6.394088e-05,0.00044822693,0.000289917,0.00010681152,-3.0517578e-05
2019-07-01T19:14:03.318Z,-0.012228758,0.0037790886,-0.20279904,-0.024887085,-0.25100708,9.804352,-5.2703857,16.42456,-45.021057,-0.023933409,-0.24987388,9.803437,-0.00048052147,-0.0013759583,-0.0003452301,-0.0001373291,0.00010681152,-0.00021362305
2019-07-01T19:14:03.520Z,-0.012235991,0.0038006331,-0.2028582,-0.026794434,-0.25053406,9.805069,-6.488037,15.895081,-43.418884,-0.024303256,-0.2500999,9.803431,-0.00033884123,6.28531e-05,0.0005788803,0.00010681152,0.00016784668,-0.00021362305
2019-07-01T19:14:03.726Z,-0.012247402,0.003863651,-0.20302603,-0.025131226,-0.24885559,9.802673,-5.419922,16.557312,-44.384766,-0.02542506,-0.25057402,9.803415,-0.0016116705,-0.0013761818,0.0006980896,-1.5258789e-05,0.00016784668,7.6293945e-05
2019-07-01T19:14:03.933Z,-0.012189141,0.0038440232,-0.20294444,-0.024414062,-0.25076294,9.804352,-6.184387,15.553284,-43.80188,-0.02530098,-0.24937513,9.803446,0.000659775,0.0024593025,-1.2397766e-05,4.5776367e-05,4.5776367e-05,9.1552734e-05
2019-07-01T19:14:04.153Z,-0.012208303,0.0038530072,-0.20297776,-0.024887085,-0.25125122,9.804108,-5.4244995,16.635132,-45.048523,-0.025388705,-0.2497797,9.803435,0.0005031973,-0.0014559925,-0.00016593933,0.00022888184,-1.5258789e-05,0.00015258789
2019-07-01T19:14:04.332Z,-0.0122187985,0.0038321074,-0.20292976,-0.024642944,-0.24813843,9.802673,-6.3796997,16.25061,-41.61377,-0.024957828,-0.2498968,9.803433,0.00055984966,-0.0011020154,-0.00059604645,0.00010681152,4.5776367e-05,-0.00015258789
2019-07-01T19:14:04.538Z,-0.012197045,0.0038161003,-0.20287703,-0.022735596,-0.24885559,9.802444,-6.3461304,15.542603,-43.79883,-0.024750477,-0.24941409,9.803447,0.00033648685,0.0012763739,-0.0005578995,4.5776367e-05,4.5776367e-05,-0.00021362305
2019-07-01T19:14:04.741Z,-0.012185209,0.0037974576,-0.20282286,-0.024642944,-0.2514801,9.8029175,-6.504822,15.911865,-45.8313,-0.024453355,-0.24911134,9.803455,0.0009990036,-4.61936e-06,-0.0013332367,0.00010681152,4.5776367e-05,3.0517578e-05
2019-07-01T19:14:04.944Z,-0.012215517,0.0038154144,-0.20288517,-0.024414062,-0.24813843,9.804825,-5.5023193,16.474915,-44.17267,-0.02466171,-0.24976626,9.803438,-0.00022644363,-0.001968816,0.00037765503,0.00022888184,-1.5258789e-05,9.1552734e-05
2019-07-01T19:14:05.147Z,-0.012181437,0.003785081,-0.20278908,-0.022491455,-0.25172424,9.804596,-4.7180176,16.091919,-44.433594,-0.024239285,-0.24898884,9.803459,0.0005435813,0.0008626878,0.0018434525,0.00010681152,0.00010681152,-3.0517578e-05
2019-07-01T19:14:05.362Z,-0.012225979,0.0037839222,-0.20280996,-0.022964478,-0.25125122,9.800049,-5.912781,16.226196,-43.678284,-0.024034496,-0.24983999,9.803437,0.001055751,-0.0018739551,-0.00020694733,0.00010681152,0.00016784668,9.1552734e-05
2019-07-01T19:14:05.546Z,-0.012248503,0.0037644487,-0.20277204,-0.022491455,-0.25100708,9.805542,-6.932068,16.888428,-43.72711,-0.023580607,-0.25019413,9.80343,0.0013316255,-0.00083065033,-0.0022144318,4.5776367e-05,-1.5258789e-05,-3.0517578e-05
2019-07-01T19:14:05.751Z,-0.012239718,0.0037545722,-0.20274198,-0.025360107,-0.24957275,9.805313,-5.845642,16.168213,-44.898987,-0.023433562,-0.24998546,9.803435,0.00022629648,-0.00076304376,0.0025014877,0.00016784668,-1.5258789e-05,0.00019836426
2019-07-01T19:14:05.955Z,-0.012233451,0.0037955772,-0.20284386,-0.024887085,-0.25053406,9.802673,-4.135132,16.569519,-44.587708,-0.02421993,-0.25003067,9.803432,-0.0011392646,-0.0004939735,-0.00041103363,0.00016784668,0.00010681152,3.0517578e-05
2019-07-01T19:14:06.159Z,-0.012215361,0.0038071112,-0.20286378,-0.026809692,-0.24885559,9.8033905,-5.1986694,16.131592,-44.329834,-0.024508333,-0.2497297,9.803439,-0.0006215237,0.00041502714,0.00036525726,4.5776367e-05,4.5776367e-05,0.0002593994
2019-07-01T19:14:06.363Z,-0.012197752,0.003826514,-0.20290413,-0.023925781,-0.25100708,9.805542,-6.222534,16.65039,-44.56024,-0.024940735,-0.24946979,9.803445,-0.00090756826,-0.00010211766,-0.001033783,0.00022888184,-7.6293945e-05,9.1552734e-05
2019-07-01T19:14:06.568Z,-0.012211061,0.003831742,-0.20292468,-0.025131226,-0.25100708,9.803162,-6.373596,16.932678,-44.873047,-0.024982914,-0.24974665,9.803437,0.00034225918,-0.001481697,0.0016946793,0.00022888184,0.00010681152,0.0001373291
2019-07-01T19:14:06.769Z,-0.012221929,0.0038314634,-0.20292978,-0.022491455,-0.2498169,9.803635,-4.8675537,16.374207,-44.596863,-0.024932994,-0.24995434,9.803432,4.680641e-05,-0.0007996112,-0.0011119843,4.5776367e-05,4.5776367e-05,3.0517578e-05
2019-07-01T19:14:06.968Z,-0.012221191,0.0037665672,-0.20276286,-0.023925781,-0.25100708,9.805557,-5.680847,16.174316,-44.5282,-0.023732278,-0.2496779,9.803442,0.0019582566,-0.0006091893,0.0015153885,0.00010681152,0.00016784668,-3.0517578e-05
2019-07-01T19:14:07.172Z,-0.012232309,0.0037840887,-0.20281377,-0.023208618,-0.24838257,9.804596,-5.8288574,16.456604,-44.465637,-0.024011536,-0.2499623,9.803434,8.787587e-05,-0.0010226816,0.0014848709,0.00016784668,0.00010681152,9.1552734e-05
2019-07-01T19:14:07.376Z,-0.012199656,0.0037742206,-0.20277096,-0.02607727,-0.24645996,9.803635,-6.2805176,17.077637,-43.867493,-0.023962853,-0.24929503,9.803452,0.0005116407,0.0006996393,-0.0004491806,-1.5258789e-05,0.00010681152,-3.0517578e-05
2019-07-01T19:14:07.574Z,-0.012137181,0.0038017868,-0.20280825,-0.0236969,-0.2498169,9.804352,-6.05011,16.87622,-44.218445,-0.024731299,-0.24820597,9.803477,-0.0011157524,0.0024766028,-0.00014400482,-7.6293945e-05,4.5776367e-05,9.1552734e-05
2019-07-01T19:14:07.779Z,-0.012183169,0.0037968054,-0.20282009,-0.022018433,-0.24645996,9.8033905,-5.744934,16.459656,-44.166565,-0.024449654,-0.2490695,9.803456,0.0007544141,-0.0016765445,0.00022983551,4.5776367e-05,4.5776367e-05,0.00021362305
2019-07-01T19:14:07.978Z,-0.012143827,0.0037526602,-0.20268576,-0.02368164,-0.25028992,9.806503,-5.3497314,16.342163,-44.430542,-0.023792481,-0.24813527,9.803482,0.0015467033,0.0021643639,-6.67572e-06,-7.6293945e-05,4.5776367e-05,-0.00015258789
2019-07-01T19:14:08.189Z,-0.012187082,0.003763741,-0.20273735,-0.02368164,-0.25196838,9.804825,-6.063843,16.357422,-43.190002,-0.023820171,-0.24901111,9.803459,-0.00010246411,-0.001963064,0.0012760162,0.00010681152,-1.5258789e-05,0.00015258789
2019-07-01T19:14:08.390Z,-0.012219763,0.0037761324,-0.20278664,-0.023452759,-0.24957275,9.804352,-4.9453735,16.444397,-44.65332,-0.023915583,-0.24968912,9.803442,-7.1208924e-06,-0.0015299767,-0.00010681152,-1.5258789e-05,4.5776367e-05,0.00015258789
2019-07-01T19:14:08.591Z,-0.0122116,0.00376947,-0.20276517,-0.024414062,-0.24932861,9.801956,-4.786682,16.38031,-44.59839,-0.023825582,-0.24950536,9.803447,0.00037521124,0.00020171702,-0.0005502701,0.00016784668,4.5776367e-05,9.1552734e-05
2019-07-01T19:14:08.797Z,-0.012186873,0.003781956,-0.20278397,-0.027038574,-0.24838257,9.803635,-6.427002,15.689087,-44.7464,-0.024158942,-0.24908064,9.803456,-0.00048343092,0.00047509372,-0.0014886856,4.5776367e-05,-1.5258789e-05,3.0517578e-05
2019-07-01T19:14:09.001Z,-0.012172224,0.0038164754,-0.2028647,-0.026321411,-0.25028992,9.8029175,-6.138611,16.575623,-43.745422,-0.0248596,-0.24893868,9.803458,-0.0017050132,0.00033661723,0.00027942657,-7.6293945e-05,-1.5258789e-05,-3.0517578e-05
2019-07-01T19:14:09.204Z,-0.012213979,0.0038550748,-0.2029861,-0.024642944,-0.25076294,9.803635,-5.4992676,16.622925,-44.36798,-0.025403684,-0.24989711,9.803432,-0.00091810897,-0.0018308908,-0.0010843277,-1.5258789e-05,0.00016784668,-4.5776367e-05
2019-07-01T19:14:09.408Z,-0.012204292,0.0038593027,-0.20299177,-0.027038574,-0.24717712,9.801956,-5.7785034,15.9591675,-45.550537,-0.025522003,-0.2497281,9.803436,0.00016222335,-8.559227e-05,0.0005455017,0.00010681152,0.00010681152,-0.0002746582
2019-07-01T19:14:09.608Z,-0.012156548,0.0038660988,-0.20298362,-0.024414062,-0.25004578,9.801956,-5.2841187,16.05835,-44.718933,-0.02584471,-0.24883823,9.803458,-4.801899e-06,0.0011620075,-0.0010757446,0.00022888184,0.00010681152,-9.1552734e-05
2019-07-01T19:14:09.810Z,-0.012185583,0.0038583092,-0.20297919,-0.0236969,-0.24861145,9.805069,-4.7973633,16.011047,-44.067383,-0.02558063,-0.24936458,9.803445,0.00093463436,-0.0009550899,-0.0015096664,-7.6293945e-05,0.00010681152,-3.0517578e-05
2019-07-01T19:14:10.011Z,-0.0121563645,0.0038379699,-0.20291136,-0.022018433,-0.24908447,9.803879,-5.1834106,16.499329,-44.558716,-0.025323635,-0.2487209,9.803463,0.000680238,0.001295194,0.0020256042,-1.5258789e-05,4.5776367e-05,-9.1552734e-05
2019-07-01T19:14:10.215Z,-0.012206641,0.003766892,-0.2027559,-0.022735596,-0.25125122,9.804596,-5.6640625,16.389465,-43.803406,-0.023798164,-0.24939966,9.80345,0.003215881,-0.0013441741,0.0018291473,4.5776367e-05,4.5776367e-05,-3.0517578e-05
2019-07-01T19:14:10.419Z,-0.012223051,0.0037673903,-0.20276596,-0.023208618,-0.25125122,9.802444,-5.24292,17.007446,-44.677734,-0.023739897,-0.24971698,9.803442,0.00053266436,-0.00080251694,-0.0003786087,-1.5258789e-05,-1.5258789e-05,9.1552734e-05
2019-07-01T19:14:10.619Z,-0.012247463,0.0037667607,-0.20277742,-0.025604248,-0.24861145,9.803162,-6.0943604,16.004944,-45.074463,-0.023627771,-0.25018346,9.80343,-0.00029862486,-0.0013031662,-0.0016908646,0.00022888184,-7.6293945e-05,9.1552734e-05
2019-07-01T19:14:10.826Z,-0.012186356,0.0037751512,-0.20276624,-0.025604248,-0.24813843,9.800995,-5.206299,15.988159,-44.66095,-0.024034835,-0.24904324,9.803458,-0.0008525513,0.0013899654,0.00029945374,0.00016784668,-1.5258789e-05,0.00015258789
2019-07-01T19:14:11.026Z,-0.012170339,0.003803578,-0.2028306,-0.023452759,-0.25053406,9.8029175,-5.543518,15.600586,-44.49768,-0.024628092,-0.24885033,9.803461,-0.0009774193,0.00022612512,-0.0007581711,-1.5258789e-05,0.00010681152,0.00032043457
2019-07-01T19:14:11.227Z,-0.012192953,0.003803876,-0.20284347,-0.025131226,-0.24885559,9.804352,-5.6655884,16.542053,-44.67926,-0.024540551,-0.24928607,9.803451,0.00036838278,-0.0014996827,-0.00082588196,0.00016784668,4.5776367e-05,9.1552734e-05
2019-07-01T19:14:11.431Z,-0.012178272,0.0038011896,-0.20282872,-0.022018433,-0.25100708,9.8033905,-5.180359,16.421509,-43.81714,-0.02455114,-0.24899313,9.803458,-9.2362985e-05,0.000376001,0.0013608932,0.00016784668,-7.6293945e-05,-0.00016784668
2019-07-01T19:14:11.639Z,-0.012221984,0.0037639071,-0.20275645,-0.026321411,-0.25125122,9.805313,-5.6747437,16.169739,-43.77289,-0.023679674,-0.24968241,9.803443,0.0014325734,-0.0020395666,0.0005760193,0.00016784668,-7.6293945e-05,3.0517578e-05
2019-07-01T19:14:11.837Z,-0.012217886,0.0038139897,-0.20288278,-0.023208618,-0.25125122,9.806503,-5.871582,15.4296875,-44.143677,-0.024625536,-0.24980603,9.803438,-0.0016937386,-0.0009352416,0.0014982224,0.000289917,0.00016784668,0.00032043457
2019-07-01T19:14:12.044Z,-0.012226224,0.0037978373,-0.2028458,-0.024414062,-0.24932861,9.803879,-6.011963,16.085815,-45.36133,-0.024291601,-0.24990092,9.803435,0.0010857619,-0.001321733,0.0005121231,0.00010681152,4.5776367e-05,9.1552734e-05
2019-07-01T19:14:12.243Z,-0.012211373,0.0038043573,-0.20285457,-0.024169922,-0.2505188,9.8029175,-5.581665,16.392517,-43.429565,-0.024473663,-0.24964193,9.803441,6.261654e-05,9.992719e-05,0.00017547607,4.5776367e-05,4.5776367e-05,-3.0517578e-05
2019-07-01T19:14:12.442Z,-0.012231701,0.0037896577,-0.20282774,-0.023452759,-0.25125122,9.803635,-5.001831,16.947937,-44.474792,-0.02411734,-0.24997312,9.803434,0.0001919549,-0.0007857084,-0.0021123886,4.5776367e-05,-0.00018310547,-3.0517578e-05
2019-07-01T19:14:12.646Z,-0.012234503,0.0037657819,-0.20276797,-0.023925781,-0.24836731,9.803635,-6.214905,16.63971,-43.35327,-0.023662942,-0.24993052,9.803436,0.00021137297,0.00012618303,0.00066661835,4.5776367e-05,-0.0001373291,0.00021362305
2019-07-01T19:14:12.853Z,-0.012207127,0.0037930838,-0.20282337,-0.027038574,-0.24909973,9.80603,-4.962158,16.079712,-44.72809,-0.024282023,-0.24951479,9.803445,-0.00036055967,0.0009070486,-0.00067329407,4.5776367e-05,0.00022888184,-3.0517578e-05
2019-07-01T19:14:13.056Z,-0.012189443,0.0038215904,-0.20288704,-0.023208618,-0.2498169,9.803635,-6.3842773,16.485596,-43.67981,-0.024883611,-0.24929023,9.80345,-0.0014347583,-0.00025205314,0.0020990372,0.00010681152,-0.00018310547,0.00021362305
2019-07-01T19:14:13.253Z,-0.01218318,0.003754595,-0.20271179,-0.023208618,-0.25076294,9.804596,-5.130005,15.922546,-44.752502,-0.023666551,-0.24889922,9.803463,0.0011758897,0.001013279,-0.00087451935,-0.00019836426,4.5776367e-05,0.00021362305
2019-07-01T19:14:13.450Z,-0.012210638,0.003760484,-0.2027416,-0.024169922,-0.24861145,9.8033905,-5.189514,16.352844,-44.436646,-0.02366285,-0.24945056,9.803448,-0.0005055908,-0.0012967587,0.0005340576,4.5776367e-05,-7.6293945e-05,7.6293945e-05
2019-07-01T19:14:13.660Z,-0.01219127,0.003768484,-0.20275176,-0.024642944,-0.24838257,9.802429,-5.116272,16.21399,-44.692993,-0.023890939,-0.24911071,9.803456,-0.00027785264,0.0005110651,-0.0002861023,0.00016784668,-1.5258789e-05,0.00021362305
2019-07-01T19:14:13.863Z,-0.012179674,0.0037873548,-0.20279397,-0.023452759,-0.2524414,9.805313,-5.3878784,15.463257,-44.38324,-0.02428872,-0.24896413,9.803459,-0.00084120035,-0.00012221932,0.00012111664,4.5776367e-05,4.5776367e-05,0.00021362305
2019-07-01T19:14:14.062Z,-0.012226985,0.0037776348,-0.20279436,-0.023452759,-0.25004578,9.803879,-5.619812,15.592957,-43.9682,-0.02391374,-0.24983393,9.803438,0.0011784211,-0.0021315664,-0.00087833405,-1.5258789e-05,4.5776367e-05,0.0001373291
2019-07-01T19:14:14.261Z,-0.012225068,0.0037684059,-0.20276965,-0.023208618,-0.25196838,9.799805,-5.053711,15.626526,-43.68286,-0.023750434,-0.24975982,9.80344,0.0002983939,0.00019463897,0.0003709793,-1.5258789e-05,4.5776367e-05,0.0002593994
2019-07-01T19:14:14.477Z,-0.012262322,0.003783508,-0.20282835,-0.023208618,-0.24932861,9.808182,-5.670166,16.394043,-44.483948,-0.02387724,-0.25053665,9.803421,0.00017849542,-0.0012069643,-0.0021409988,4.5776367e-05,4.5776367e-05,9.1552734e-05
2019-07-01T19:14:14.672Z,-0.012262981,0.0037748679,-0.20280653,-0.022979736,-0.24957275,9.80603,-6.2301636,16.351318,-43.93921,-0.023714276,-0.2505144,9.803421,0.00050827116,7.927418e-06,0.0036802292,4.5776367e-05,0.00010681152,-3.0517578e-05
2019-07-01T19:14:14.883Z,-0.012229308,0.00373978,-0.20269844,-0.022247314,-0.24957275,9.803879,-4.4281006,17.12799,-43.93158,-0.023201996,-0.24972571,9.803442,0.0011872891,0.00091022253,0.0010137558,4.5776367e-05,4.5776367e-05,9.1552734e-05
2019-07-01T19:14:15.079Z,-0.012226959,0.00374273,-0.20270476,-0.023452759,-0.24932861,9.800995,-5.482483,16.836548,-43.644714,-0.023266383,-0.24969248,9.803443,0.00030454248,0.00014804304,-0.0009202957,4.5776367e-05,4.5776367e-05,9.1552734e-05
2019-07-01T19:14:15.282Z,-0.012211585,0.0037371598,-0.20268224,-0.022964478,-0.2498169,9.802673,-6.6726685,15.524292,-44.317627,-0.023226283,-0.24937463,9.803452,1.7672777e-05,4.6119094e-05,-0.002216339,0.00010681152,-7.6293945e-05,-9.1552734e-05
2019-07-01T19:14:15.487Z,-0.012233955,0.0037323204,-0.2026818,-0.023208618,-0.25053406,9.807465,-5.6365967,17.352295,-45.573425,-0.023044515,-0.24978493,9.803442,0.00030852668,-0.0007533729,-0.00035762787,0.00010681152,0.00010681152,9.1552734e-05
2019-07-01T19:14:15.706Z,-0.0122316675,0.003742211,-0.20270595,-0.024414062,-0.25004578,9.803879,-6.260681,15.846252,-44.873047,-0.023237387,-0.24978088,9.803441,-0.00021264702,-0.00023560226,0.00262928,-7.6293945e-05,4.5776367e-05,-3.0517578e-05
2019-07-01T19:14:15.891Z,-0.012233409,0.0037794255,-0.20280239,-0.02607727,-0.25004578,9.800278,-5.3894043,15.464783,-44.532776,-0.023920516,-0.24996458,9.803434,-0.0009641424,-0.00029999018,-0.00032138824,0.00022888184,0.00016784668,3.0517578e-05
2019-07-01T19:14:16.130Z,-0.012221524,0.0038361128,-0.20294149,-0.02607727,-0.25004578,9.8033905,-5.769348,15.951538,-44.49463,-0.025020903,-0.24996538,9.803432,-0.0015456248,-0.0005784184,-0.0027723312,-1.5258789e-05,0.00010681152,-0.00022888184
2019-07-01T19:14:16.296Z,-0.01220703,0.0038587863,-0.20299192,-0.024887085,-0.24957275,9.803864,-5.027771,16.363525,-44.439697,-0.025501147,-0.24977863,9.803435,0.00014013611,0.00019703805,7.343292e-05,-1.5258789e-05,0.00022888184,3.0517578e-05
2019-07-01T19:14:16.503Z,-0.012184719,0.003855027,-0.20297031,-0.024642944,-0.24885559,9.808426,-5.519104,16.259766,-44.81964,-0.025523312,-0.24933471,9.803447,-8.182041e-05,0.0009435117,3.9100647e-05,4.5776367e-05,-7.6293945e-05,0.00044250488
2019-07-01T19:14:16.711Z,-0.012198969,0.0038202628,-0.20288874,-0.024169922,-0.25028992,9.805313,-5.0994873,16.578674,-44.46869,-0.024819769,-0.24946788,9.803445,0.0013710409,-0.00030849874,0.0038614273,-1.5258789e-05,4.5776367e-05,3.0517578e-05
2019-07-01T19:14:16.909Z,-0.012202617,0.0038126963,-0.20287128,-0.024398804,-0.24909973,9.803146,-6.0028076,16.07666,-44.232178,-0.024664396,-0.2495074,9.803445,0.00025458075,-0.0004953891,0.00018024445,0.00016784668,4.5776367e-05,9.1552734e-05
2019-07-01T19:14:17.111Z,-0.012197474,0.0038060064,-0.20285136,-0.023452759,-0.25219727,9.804825,-5.630493,15.602112,-45.251465,-0.024561465,-0.24938153,9.803448,0.0006394647,-0.00015284121,-0.00036144257,4.5776367e-05,4.5776367e-05,0.00021362305
2019-07-01T19:14:17.312Z,-0.012239258,0.003824492,-0.20292118,-0.02607727,-0.24885559,9.805313,-5.1849365,16.34674,-43.68286,-0.024732333,-0.25025913,9.803426,-0.00039594807,-0.0016794503,-0.0007286072,-1.5258789e-05,-1.5258789e-05,-3.0517578e-05
2019-07-01T19:14:17.510Z,-0.012209132,0.0038155203,-0.20288202,-0.024169922,-0.25004578,9.803635,-5.1956177,16.130066,-44.02771,-0.02468996,-0.249644,9.803441,-0.00019421242,0.00081785023,-9.536743e-07,0.00010681152,-7.6293945e-05,0.0001373291
2019-07-01T19:14:17.718Z,-0.012205457,0.0038128595,-0.20287322,-0.025131226,-0.25053406,9.8022,-5.970764,16.809082,-44.158936,-0.02465573,-0.24956264,9.803443,1.468882e-05,-0.00046387315,-0.0008096695,0.00022888184,-7.6293945e-05,0.00015258789
2019-07-01T19:14:17.917Z,-0.0122097125,0.0038005752,-0.20284398,-0.024887085,-0.25076294,9.8029175,-5.180359,16.419983,-43.667603,-0.024410347,-0.24959473,9.803443,-3.0845404e-06,-0.00068873167,-0.0010232925,4.5776367e-05,-0.0001373291,0.0002593994
2019-07-01T19:14:18.118Z,-0.0122204,0.003815003,-0.20288673,-0.026794434,-0.24838257,9.800766,-4.548645,16.39862,-45.056152,-0.02463397,-0.24985841,9.803435,-0.0009710789,-0.00043962896,-0.0011606216,-1.5258789e-05,-1.5258789e-05,-3.0517578e-05
2019-07-01T19:14:18.322Z,-0.012217504,0.0038521946,-0.20298061,-0.027038574,-0.25076294,9.802673,-5.760193,16.091919,-43.937683,-0.025335744,-0.24995317,9.803431,-0.0017044377,0.00012040138,-0.0006084442,-1.5258789e-05,-7.6293945e-05,9.1552734e-05
2019-07-01T19:14:18.526Z,-0.01220091,0.0038656357,-0.20300621,-0.022491455,-0.24836731,9.8029175,-5.264282,16.571045,-44.841003,-0.025653405,-0.24968874,9.803437,-0.00091347843,0.00034715235,0.00023365021,4.5776367e-05,-0.00018310547,-3.0517578e-05
2019-07-01T19:14:18.726Z,-0.012190509,0.0037969933,-0.2028245,-0.024887085,-0.25053406,9.8029175,-3.5720825,16.532898,-44.314575,-0.024422934,-0.24921125,9.803452,0.0024018046,0.0005722791,-0.0011301041,4.5776367e-05,-1.5258789e-05,-3.0517578e-05
2019-07-01T19:14:18.938Z,-0.01222062,0.0038068262,-0.20286585,-0.022491455,-0.24932861,9.8029175,-5.5633545,16.833496,-43.870544,-0.024481403,-0.24982959,9.803437,-0.00040729158,-0.0014380664,0.0008420944,0.00010681152,-1.5258789e-05,0.00015258789
2019-07-01T19:14:19.138Z,-0.012194761,0.0037559613,-0.20272149,-0.025131226,-0.24836731,9.803879,-5.027771,16.209412,-43.56537,-0.02364426,-0.24912724,9.803456,0.0016243253,0.0014612824,8.392334e-05,-7.6293945e-05,4.5776367e-05,3.0517578e-05
2019-07-01T19:14:19.339Z,-0.012179242,0.0037951493,-0.20281374,-0.024169922,-0.24885559,9.8033905,-5.2352905,17.152405,-44.348145,-0.024435092,-0.24898738,9.803459,-0.0014151763,0.00011263788,-0.0002603531,4.5776367e-05,4.5776367e-05,-3.0517578e-05
2019-07-01T19:14:19.545Z,-0.01218247,0.0038324145,-0.2029111,-0.02607727,-0.24838257,9.8022,-5.9036255,16.600037,-44.73419,-0.0251131,-0.24920002,9.803451,-0.0007352717,0.00010046363,0.00042152405,-7.6293945e-05,0.00016784668,0.00032043457
2019-07-01T19:14:19.768Z,-0.012199168,0.0038092702,-0.20286064,-0.024414062,-0.25172424,9.804352,-5.433655,16.264343,-44.366455,-0.024615038,-0.24942727,9.803447,0.0014057886,-0.00038076937,-0.00052165985,-1.5258789e-05,4.5776367e-05,3.0517578e-05
2019-07-01T19:14:19.960Z,-0.012196848,0.0038171622,-0.20287965,-0.025848389,-0.24885559,9.804596,-5.0857544,16.870117,-44.410706,-0.024770986,-0.24941461,9.803447,-0.0008337237,-0.00039167702,0.00012683868,0.00010681152,-7.6293945e-05,3.0517578e-05
2019-07-01T19:14:20.163Z,-0.012206308,0.0038245725,-0.20290373,-0.024642944,-0.25028992,9.805313,-5.924988,16.085815,-44.61212,-0.0248695,-0.24962632,9.803441,-1.6110018e-05,-0.00040464103,0.0015192032,-1.5258789e-05,0.00010681152,9.1552734e-05
2019-07-01T19:14:20.411Z,-0.01221001,0.0038247115,-0.20290607,-0.022491455,-0.24908447,9.803879,-6.1950684,15.409851,-44.36035,-0.024856834,-0.24969803,9.803439,0.0004449375,-0.00057014823,0.0005311966,0.00016784668,-1.5258789e-05,0.00015258789
2019-07-01T19:14:20.606Z,-0.012182391,0.0037923828,-0.20280832,-0.024414062,-0.2498169,9.8022,-6.387329,16.412354,-43.69507,-0.024370812,-0.24903667,9.803457,0.0013926104,0.0011580735,-0.00044059753,-1.5258789e-05,0.00016784668,3.0517578e-05
2019-07-01T19:14:20.811Z,-0.012214892,0.0038082767,-0.20286651,-0.024414062,-0.24957275,9.803635,-5.735779,16.452026,-42.959595,-0.024531888,-0.24972537,9.803439,0.00011785701,-0.0015255362,-0.0012512207,0.00010681152,-1.5258789e-05,0.00038146973
2019-07-01T19:14:21.018Z,-0.012186803,0.0037948424,-0.202817,-0.021774292,-0.25004578,9.8033905,-4.8309326,16.950989,-43.2724,-0.024398286,-0.24913137,9.803454,0.00022871979,0.0007677078,0.00028133392,-1.5258789e-05,0.00010681152,3.0517578e-05
2019-07-01T19:14:21.222Z,-0.012228091,0.0037559934,-0.2027394,-0.023208618,-0.2524414,9.805542,-5.1452637,17.071533,-42.77954,-0.023507757,-0.24976783,9.803442,0.0017344411,-0.001228869,0.00050354004,-1.5258789e-05,-1.5258789e-05,0.0002593994
2019-07-01T19:14:21.416Z,-0.012273496,0.0037635274,-0.20278305,-0.022018433,-0.24980164,9.805069,-4.962158,16.078186,-44.578552,-0.023460675,-0.25067064,9.803418,0.00049762614,-0.0017555058,0.00033664703,4.5776367e-05,4.5776367e-05,-3.0517578e-05
2019-07-01T19:14:21.625Z,-0.0122479135,0.0037353286,-0.20269698,-0.024887085,-0.24885559,9.8033905,-4.9179077,16.950989,-43.948364,-0.023042902,-0.25006527,9.803434,0.00078308024,0.0012395382,0.0011816025,-7.6293945e-05,-1.5258789e-05,9.1552734e-05
2019-07-01T19:14:21.824Z,-0.012236368,0.0037734986,-0.20278877,-0.026794434,-0.2514801,9.805542,-5.1834106,16.423035,-44.195557,-0.023798406,-0.24999754,9.803435,-0.0020479318,0.00044631958,-0.00064468384,-1.5258789e-05,-7.6293945e-05,-0.00010681152
2019-07-01T19:14:22.027Z,-0.01224615,0.0038113971,-0.20289126,-0.023925781,-0.24765015,9.805069,-6.059265,16.659546,-44.262695,-0.024461085,-0.2503386,9.803425,-0.0016129874,-0.0013529062,0.0008363724,0.00010681152,-0.00018310547,-0.00015258789
2019-07-01T19:14:22.233Z,-0.012198138,0.003781341,-0.20278843,-0.022964478,-0.25004578,9.803162,-5.1208496,16.065979,-44.421387,-0.024101183,-0.24929461,9.803451,0.00065180846,0.0019083619,0.0002412796,4.5776367e-05,0.00010681152,3.0517578e-05
2019-07-01T19:14:22.432Z,-0.012217431,0.0037773869,-0.2027886,-0.025604248,-0.25172424,9.8033905,-5.4214478,16.557312,-44.46106,-0.023948446,-0.24964935,9.803442,0.00025317073,-0.00037950277,-0.0014333725,-1.5258789e-05,-1.5258789e-05,9.1552734e-05
2019-07-01T19:14:22.639Z,-0.01224056,0.0038239625,-0.20292051,-0.020812988,-0.24909973,9.802444,-6.0775757,16.369629,-44.999695,-0.024717152,-0.250282,9.803425,-0.0008859765,-0.0014309287,-0.0004787445,0.00010681152,0.00016784668,9.1552734e-05
2019-07-01T19:14:22.841Z,-0.012241029,0.0037275443,-0.20267332,-0.023925781,-0.24861145,9.803162,-4.9057007,15.26947,-43.460083,-0.022926824,-0.2499016,9.803439,0.0030608978,0.0005840659,4.7683716e-06,0.00010681152,-0.00024414062,9.1552734e-05
2019-07-01T19:14:23.038Z,-0.012198303,0.0037355374,-0.20267096,-0.025360107,-0.25100708,9.804825,-5.2001953,16.133118,-44.631958,-0.023250807,-0.24911287,9.803458,-0.0011635739,0.00072689354,-0.0011234283,4.5776367e-05,-0.00018310547,9.1552734e-05
2019-07-01T19:14:23.242Z,-0.012225193,0.0037666473,-0.2027652,-0.024169922,-0.2514801,9.805557,-5.3588867,16.12091,-44.325256,-0.023717301,-0.24975513,9.803441,-0.0009253025,-0.0010042042,0.00052547455,-7.6293945e-05,0.00010681152,3.0517578e-05
2019-07-01T19:14:23.446Z,-0.012260156,0.0038030723,-0.2028774,-0.024414062,-0.25053406,9.803162,-5.0994873,16.426086,-43.743896,-0.024249012,-0.25057405,9.803418,-0.0008805841,-0.001606375,0.0009918213,-1.5258789e-05,4.5776367e-05,9.1552734e-05
2019-07-01T19:14:23.650Z,-0.012242819,0.0037883013,-0.20283021,-0.021774292,-0.24909973,9.803635,-5.128479,15.919495,-44.45038,-0.024046414,-0.25018126,9.803429,0.00035053678,0.0010921657,-0.00045490265,-7.6293945e-05,-1.5258789e-05,-3.0517578e-05
2019-07-01T19:14:23.855Z,-0.012239903,0.003754154,-0.20274101,-0.0236969,-0.2498169,9.804596,-5.6640625,16.69159,-45.25299,-0.023425043,-0.24998733,9.803435,0.0011794958,-3.9577484e-05,0.0006494522,0.00010681152,4.5776367e-05,-3.0517578e-05
2019-07-01T19:14:24.059Z,-0.012246016,0.003754943,-0.2027463,-0.022491455,-0.25291443,9.804352,-5.1605225,16.934204,-44.093323,-0.023414522,-0.25010797,9.803432,0.00043593347,-0.00016966462,-0.0005226135,-1.5258789e-05,0.00010681152,0.0002593994
2019-07-01T19:14:24.260Z,-0.012277854,0.0037793454,-0.20282598,-0.026794434,-0.24909973,9.8029175,-5.5252075,15.963745,-44.12384,-0.023736112,-0.25081825,9.803414,-0.00067659095,-0.0011357665,0.00013256073,-1.5258789e-05,-1.5258789e-05,-3.0517578e-05
2019-07-01T19:14:24.465Z,-0.012262882,0.0038128959,-0.20290408,-0.023208618,-0.25004578,9.804108,-5.9432983,15.647888,-44.548035,-0.02391381,-0.24999861,9.803433,0.0007062536,0.0009099841,0.0004825592,-1.5258789e-05,-0.0001373291,9.1552734e-05
2019-07-01T19:14:24.655Z,-0.012242803,0.0037504653,-0.2027331,-0.023452759,-0.25076294,9.805786,-5.41687,16.552734,-43.93158,-0.02334469,-0.25002816,9.803434,0.001098996,-0.0004885495,0.00048065186,4.5776367e-05,4.5776367e-05,0.00015258789
2019-07-01T19:14:24.859Z,-0.012248337,0.0037657102,-0.20277518,-0.022979736,-0.25268555,9.805069,-5.2612305,16.642761,-44.825745,-0.02360469,-0.25019604,9.80343,-0.0008065738,-0.00053721666,0.00094890594,4.5776367e-05,-7.6293945e-05,9.1552734e-05
2019-07-01T19:14:25.061Z,-0.012256266,0.0037591895,-0.2027627,-0.023925781,-0.24621582,9.804352,-4.1534424,16.130066,-44.374084,-0.02345112,-0.250322,9.803426,0.0002453085,-0.0008992255,-3.8146973e-06,0.00016784668,4.5776367e-05,3.0517578e-05
2019-07-01T19:14:25.267Z,-0.012216432,0.0037491582,-0.20271562,-0.026321411,-0.2514801,9.804108,-6.2530518,15.838623,-43.81714,-0.023428926,-0.24951619,9.803448,0.00022342987,0.0018992722,0.0003156662,-1.5258789e-05,4.5776367e-05,0.00015258789
2019-07-01T19:14:25.478Z,-0.0122468565,0.003811483,-0.20289187,-0.022735596,-0.2524414,9.804825,-5.329895,16.781616,-44.343567,-0.02445976,-0.2503525,9.803423,-0.002103608,-0.0015935302,-0.00090789795,-7.6293945e-05,-1.5258789e-05,-3.0517578e-05
2019-07-01T19:14:25.676Z,-0.012274799,0.00379394,-0.2028618,-0.025848389,-0.25004578,9.803879,-4.182434,17.141724,-43.56079,-0.024019357,-0.25081852,9.803413,0.0008129459,-0.00063851476,3.8146973e-05,-7.6293945e-05,-7.6293945e-05,-9.1552734e-05
2019-07-01T19:14:25.879Z,-0.012262565,0.0038099152,-0.20289625,-0.024414062,-0.25125122,9.806992,-5.4214478,16.481018,-44.023132,-0.024366003,-0.250648,9.803415,-0.0009912476,0.00038746,0.00050354004,-1.5258789e-05,-7.6293945e-05,-0.00015258789
2019-07-01T19:14:26.085Z,-0.012270713,0.0038194493,-0.20292509,-0.026321411,-0.24836731,9.804596,-4.5166016,16.90216,-43.821716,-0.024509272,-0.2508431,9.803411,-0.00012937188,-0.0005929768,0.0011281967,4.5776367e-05,0.00016784668,-3.0517578e-05
2019-07-01T19:14:26.284Z,-0.012224439,0.0038363028,-0.20294355,-0.02130127,-0.25196838,9.807709,-5.3237915,17.002869,-44.82727,-0.025012422,-0.25002214,9.803431,-0.0008312743,0.0014576018,0.00027275085,4.5776367e-05,-1.5258789e-05,-9.1552734e-05
2019-07-01T19:14:26.489Z,-0.012266411,0.0037742578,-0.2028068,-0.026321411,-0.24932861,9.805786,-5.581665,16.468811,-43.86902,-0.023688849,-0.25057784,9.80342,0.0023938194,-0.0013245344,0.0014619827,4.5776367e-05,-0.00018310547,-3.0517578e-05
2019-07-01T19:14:26.750Z,-0.012251311,0.0038086174,-0.2028869,-0.019622803,-0.2514801,9.801956,-5.9051514,16.600037,-44.885254,-0.024388272,-0.25042653,9.803422,-0.0016851407,0.0006492436,-0.0020542145,0.00010681152,4.5776367e-05,-9.1552734e-05
2019-07-01T19:14:26.943Z,-0.012258259,0.0037487836,-0.20273705,-0.023208618,-0.24957275,9.8033905,-5.441284,16.117859,-44.62433,-0.023249911,-0.25031832,9.803427,0.0026684087,0.00030058622,-0.0008907318,-0.00019836426,4.5776367e-05,-0.000289917
2019-07-01T19:14:27.152Z,-0.012249846,0.0037318056,-0.20268896,-0.022491455,-0.25219727,9.804352,-4.710388,16.085815,-43.45398,-0.022969607,-0.25008819,9.803434,0.0007239673,0.00030478835,-0.0007581711,0.00010681152,4.5776367e-05,-3.0517578e-05
2019-07-01T19:14:27.350Z,-0.012294135,0.0037318745,-0.20271285,-0.024642944,-0.24885559,9.8076935,-6.602478,17.056274,-43.707275,-0.022788698,-0.2509394,9.8034115,0.00053003244,-0.0014589727,0.0018978119,-0.00019836426,0.00010681152,-3.0517578e-05
2019-07-01T19:14:27.556Z,-0.012247167,0.0037833415,-0.20281981,-0.026794434,-0.25028992,9.802444,-5.378723,15.684509,-44.56482,-0.023936529,-0.25024477,9.803428,-0.00141895,0.0014375746,0.00046253204,-1.5258789e-05,0.00010681152,3.0517578e-05
2019-07-01T19:14:27.755Z,-0.012239603,0.0038322073,-0.20294116,-0.025360107,-0.25172424,9.803162,-5.378723,15.682983,-44.488525,-0.024874007,-0.25029695,9.803424,-0.0019186456,-0.00021919608,-0.002398491,0.00022888184,4.5776367e-05,3.0517578e-05
2019-07-01T19:14:27.959Z,-0.012242717,0.0038406781,-0.20296457,-0.024414062,-0.24861145,9.803635,-5.192566,16.279602,-44.45038,-0.025018293,-0.25039104,9.803421,0.0001326073,-0.0010750592,-0.00033473969,0.000289917,0.00010681152,3.0517578e-05
2019-07-01T19:14:28.160Z,-0.012200017,0.0038235295,-0.20289768,-0.022018433,-0.24957275,9.805069,-5.4367065,16.191101,-44.456482,-0.024876045,-0.24950124,9.803444,0.00023457408,0.00066043437,8.2969666e-05,0.00016784668,-1.5258789e-05,1.5258789e-05
2019-07-01T19:14:28.363Z,-0.012205749,0.003785034,-0.20280197,-0.022491455,-0.24742126,9.803162,-6.248474,15.988159,-44.16504,-0.024138369,-0.24945578,9.803447,0.0014048666,-0.0005683601,0.0005273819,0.00016784668,-1.5258789e-05,-9.1552734e-05
2019-07-01T19:14:28.565Z,-0.012149416,0.0037331947,-0.2026388,-0.022735596,-0.2467041,9.804108,-5.458069,15.67688,-44.335938,-0.023408338,-0.24816409,9.803482,0.0016351007,0.001959458,-0.0007619858,0.00016784668,0.00010681152,3.0517578e-05
2019-07-01T19:14:28.762Z,-0.0121164825,0.0037341758,-0.20262371,-0.027038574,-0.24861145,9.803162,-5.9906006,16.37268,-44.396973,-0.02356192,-0.24753523,9.803497,-0.00013379939,0.00084352493,0.00011920929,4.5776367e-05,4.5776367e-05,-9.1552734e-05
2019-07-01T19:14:28.965Z,-0.012136758,0.003791208,-0.20278089,-0.024169922,-0.24932861,9.801727,-6.312561,16.42456,-44.5282,-0.024536766,-0.2481551,9.803479,-0.0015399214,-0.0011676252,-0.0005502701,4.5776367e-05,0.00016784668,-9.1552734e-05
2019-07-01T19:14:29.169Z,-0.012139075,0.0038089547,-0.20282766,-0.024887085,-0.24765015,9.801956,-6.6879272,16.751099,-42.933655,-0.024856495,-0.24827135,9.803475,0.00021206588,-0.0005990714,-0.0016508102,0.00010681152,0.00010681152,-0.00015258789
2019-07-01T19:14:29.380Z,-0.012150229,0.0038114297,-0.20283999,-0.025604248,-0.24909973,9.804108,-4.71344,16.23993,-44.7052,-0.024856513,-0.24849567,9.80347,0.00043989532,-0.0013467818,-0.00026130676,0.00022888184,4.5776367e-05,-0.00022888184
2019-07-01T19:14:29.578Z,-0.012148978,0.0038319523,-0.20289196,-0.024414062,-0.25004578,9.804108,-5.6106567,15.963745,-44.799805,-0.025242407,-0.24855463,9.803468,-0.0006071497,-0.0005566031,0.0010938644,4.5776367e-05,4.5776367e-05,-0.00015258789
2019-07-01T19:14:29.781Z,-0.012171708,0.0038122982,-0.20285371,-0.024414062,-0.24789429,9.8029175,-5.319214,16.921997,-43.86139,-0.02478423,-0.24891189,9.803459,0.0010867249,-0.0006669313,0.00041484833,-1.5258789e-05,0.00010681152,-0.00015258789
2019-07-01T19:14:29.983Z,-0.012141053,0.003822567,-0.20286363,-0.024887085,-0.25028992,9.8033905,-5.5282593,15.812683,-43.47534,-0.025100904,-0.24836439,9.8034725,-0.00026031397,0.00093214214,-0.00036525726,4.5776367e-05,0.00022888184,-0.0002746582
2019-07-01T19:14:30.187Z,-0.012184318,0.003839848,-0.20293115,-0.023208618,-0.2498169,9.801956,-5.366516,15.977478,-44.656372,-0.025243392,-0.24926561,9.80345,0.0010727104,-0.001748994,0.00023651123,-1.5258789e-05,0.00022888184,-9.1552734e-05
2019-07-01T19:14:30.388Z,-0.012203099,0.003823393,-0.202899,-0.024169922,-0.25196838,9.802673,-5.709839,15.594482,-45.021057,-0.024860827,-0.24955992,9.803443,0.0009337086,-0.0009875447,-0.0004863739,0.000289917,0.00010681152,1.5258789e-05
2019-07-01T19:14:30.596Z,-0.012222419,0.0038180663,-0.20289567,-0.025360107,-0.25100708,9.8033905,-6.088257,15.99884,-44.169617,-0.024682488,-0.24990958,9.803434,0.0009995513,-0.0011106282,-1.9073486e-06,-1.5258789e-05,0.00010681152,-0.00015258789
2019-07-01T19:14:30.798Z,-0.01223992,0.0038502913,-0.20298775,-0.025360107,-0.24957275,9.803635,-6.1431885,16.578674,-44.273376,-0.02520811,-0.2503762,9.803421,-0.0006411653,-0.0008838475,0.00031471252,-1.5258789e-05,0.00010681152,3.0517578e-05
2019-07-01T19:14:31.002Z,-0.012230679,0.0038543593,-0.20299323,-0.022964478,-0.25100708,9.804352,-5.114746,16.212463,-44.465637,-0.02532162,-0.2502151,9.803425,0.00018873625,0.00039711595,-0.000582695,4.5776367e-05,0.00010681152,-0.00015258789
2019-07-01T19:14:31.207Z,-0.012240226,0.003816947,-0.20290233,-0.022964478,-0.2498169,9.803879,-6.214905,14.971924,-44.448853,-0.024588408,-0.2502472,9.803426,0.0018531177,-0.00051262975,0.0015211105,4.5776367e-05,0.00010681152,-3.0517578e-05
