timestamp,rotationVector_x,rotationVector_y,rotationVector_z,accelerometer_x,accelerometer_y,accelerometer_z,magneticField_x,magneticField_y,magneticField_z,gravity_x,gravity_y,gravity_z,linearAcceleration_x,linearAcceleration_y,linearAcceleration_z,gyroscope_x,gyroscope_y,gyroscope_z
2019-07-01T20:21:49.511Z,0.010878522,-0.0121666435,0.99385494,0.23880005,-0.21583557,9.8029175,1.9668579,-15.957642,-38.168335,0.2381777,-0.21380249,9.801426,0.0018060058,0.0010992438,0.0001077652,-1.5258789e-05,7.6293945e-05,-0.00035095215
2019-07-01T20:21:49.716Z,0.010885112,-0.012193658,0.9938537,0.23617554,-0.21487427,9.801727,2.3880005,-15.492249,-38.090515,0.23841913,-0.214854,9.801397,0.0003709793,-0.0009725988,-0.0017576218,0.00016784668,1.5258789e-05,1.5258789e-05
2019-07-01T20:21:49.919Z,0.010852961,-0.012197763,0.99386215,0.23928833,-0.21487427,9.801712,2.017212,-16.68396,-38.015747,0.23773196,-0.2144798,9.801422,-0.001563251,-0.00014416873,-0.00022029877,4.5776367e-05,0.0001373291,1.5258789e-05
2019-07-01T20:21:50.119Z,0.010874531,-0.012187872,0.9938563,0.23880005,-0.21559143,9.802673,1.6540527,-15.837097,-37.75177,0.23814231,-0.21422833,9.801418,0.0013619214,8.292496e-05,0.00047683716,0.00010681152,0.0001373291,6.1035156e-05
2019-07-01T20:21:50.318Z,0.010862072,-0.0122101605,0.99385995,0.23832703,-0.2163086,9.801483,3.6193848,-14.89563,-38.54828,0.2379399,-0.21469767,9.801413,0.000612095,-0.0011205822,0.0004711151,-1.5258789e-05,0.0001373291,1.5258789e-05
2019-07-01T20:21:50.519Z,0.010864721,-0.01223499,0.9938597,0.24047852,-0.21534729,9.804596,2.9159546,-14.585876,-37.626648,0.23804463,-0.21517602,9.801399,0.0004975796,-0.00064718723,-0.00047969818,0.00016784668,7.6293945e-05,7.6293945e-05
2019-07-01T20:21:50.741Z,0.01089796,-0.012242317,0.9938511,0.23713684,-0.21440125,9.803879,2.972412,-15.093994,-37.579346,0.23872413,-0.2152297,9.801381,0.0014707297,-0.0007991344,0.0020656586,-7.6293945e-05,1.5258789e-05,0.00019836426
2019-07-01T20:21:50.988Z,0.010856191,-0.012214717,0.99386156,0.23808289,-0.21247864,9.800522,4.022217,-14.86969,-38.55896,0.23783188,-0.21480261,9.801413,-0.0014692396,0.00092737377,0.0002565384,-7.6293945e-05,1.5258789e-05,0.0001373291
2019-07-01T20:21:51.180Z,0.010876324,-0.012199779,0.9938561,0.24072266,-0.21511841,9.800278,2.9785156,-14.866638,-38.28888,0.23820297,-0.21445629,9.801411,0.00034953654,0.0015061498,-0.0018854141,-7.6293945e-05,-9.1552734e-05,0.00018310547
2019-07-01T20:21:51.385Z,0.010932252,-0.012208494,0.9938416,0.23951721,-0.21440125,9.800766,3.0532837,-15.159607,-37.52289,0.23933868,-0.21447587,9.801383,0.0020951927,-0.0001641959,-0.0011043549,0.00010681152,-4.5776367e-05,0.0001373291
2019-07-01T20:21:51.588Z,0.010930848,-0.012203818,0.9938419,0.24047852,-0.21440125,9.799332,2.3254395,-15.135193,-38.08899,0.23930088,-0.21438824,9.801387,-1.9162893e-05,-7.0929527e-06,5.531311e-05,-7.6293945e-05,1.5258789e-05,1.5258789e-05
2019-07-01T20:21:51.792Z,0.010943086,-0.012199561,0.9938386,0.23857117,-0.2131958,9.800278,3.1051636,-15.585327,-38.81836,0.23953648,-0.21427195,9.801383,0.00048710406,0.0003428012,-0.0020284653,0.00016784668,0.0001373291,1.5258789e-05
2019-07-01T20:21:51.995Z,0.010942553,-0.012199004,0.9938387,0.23857117,-0.21368408,9.803635,3.8833618,-14.5980835,-37.213135,0.23952465,-0.21426247,9.801382,-0.00021342933,-0.00038811564,-0.0003976822,-1.5258789e-05,-9.1552734e-05,-0.00010681152
2019-07-01T20:21:52.196Z,0.010925114,-0.012158513,0.9938426,0.23904419,-0.2141571,9.799088,2.8503418,-15.895081,-38.568115,0.23909159,-0.21351786,9.80141,-0.00076314807,0.0015109926,0.0018100739,4.5776367e-05,-9.1552734e-05,7.6293945e-05
2019-07-01T20:21:52.393Z,0.010917505,-0.012182537,0.993845,0.23640442,-0.21559143,9.800278,3.3966064,-14.627075,-37.652588,0.23898979,-0.21400812,9.801402,-0.000402838,-0.0011244267,-0.0011940002,4.5776367e-05,1.5258789e-05,7.6293945e-05
2019-07-01T20:21:52.603Z,0.01087812,-0.01220629,0.9938557,0.23951721,-0.21272278,9.803162,2.7786255,-15.83252,-37.72278,0.23825245,-0.21457875,9.801407,-0.0020532906,-0.0012781024,-0.0006303787,-7.6293945e-05,-4.5776367e-05,0.0004272461
2019-07-01T20:21:52.808Z,0.0109157,-0.012180145,0.99384546,0.23976135,-0.21607971,9.8022,2.4337769,-16.365051,-37.96692,0.2389487,-0.21396622,9.801403,0.0012833625,0.0014896542,0.0021371841,-7.6293945e-05,-0.00015258789,0.00030517578
2019-07-01T20:21:53.023Z,0.010898845,-0.012223193,0.9938506,0.23640442,-0.21606445,9.803146,2.8503418,-16.047668,-37.84485,0.23870188,-0.21485339,9.80139,-0.0006272793,-0.0016918927,0.00047016144,-7.6293945e-05,-9.1552734e-05,7.6293945e-05
2019-07-01T20:21:53.214Z,0.010889366,-0.012239092,0.99385333,0.23857117,-0.21534729,9.801483,2.922058,-14.971924,-34.75952,0.23854566,-0.2151898,9.801386,-0.00047664344,8.390844e-05,0.00047302246,-1.5258789e-05,-9.1552734e-05,-0.00010681152
2019-07-01T20:21:53.419Z,0.0109073315,-0.012241517,0.9938486,0.23904419,-0.21679688,9.799088,2.5253296,-15.913391,-39.08844,0.23890972,-0.21518877,9.801377,-0.00034672022,-0.0006394237,-0.00047397614,-1.5258789e-05,-0.00015258789,1.5258789e-05
2019-07-01T20:21:53.640Z,0.010909132,-0.012278717,0.9938488,0.237854,-0.21487427,9.802673,3.0410767,-16.513062,-41.571045,0.23902342,-0.21591128,9.801359,2.5779009e-05,-0.00089012086,-0.0011043549,-7.6293945e-05,7.6293945e-05,0.00018310547
2019-07-01T20:21:53.871Z,0.010877844,-0.012257621,0.9938566,0.23664856,-0.21487427,9.799561,2.7664185,-15.667725,-40.405273,0.2383541,-0.21558313,9.801382,-0.0009972304,0.0002438426,0.0011711121,0.00010681152,1.5258789e-05,0.0001373291
2019-07-01T20:21:54.076Z,0.0108590005,-0.012240887,0.99386126,0.23832703,-0.21487427,9.802673,4.0023804,-16.67633,-40.963745,0.23794264,-0.21530673,9.801399,-0.0010367632,0.00089356303,-0.0017690659,-1.5258789e-05,1.5258789e-05,7.6293945e-05
2019-07-01T20:21:54.280Z,0.010840636,-0.012231562,0.9938659,0.23713684,-0.21583557,9.8022,3.2791138,-14.9002075,-40.875244,0.23755619,-0.21517384,9.801411,-0.00019560754,0.000304237,0.0015230179,0.00010681152,1.5258789e-05,0.00012207031
2019-07-01T20:21:54.486Z,0.0108567495,-0.012249829,0.99386203,0.24023438,-0.21583557,9.8033905,3.5095215,-15.635681,-38.389587,0.23791634,-0.21548766,9.801396,0.00039461255,-0.0015235394,0.00085926056,4.5776367e-05,-0.00015258789,-4.5776367e-05
2019-07-01T20:21:54.691Z,0.010888032,-0.012247691,0.9938538,0.2359314,-0.21511841,9.801239,2.9434204,-15.52124,-38.87329,0.23853695,-0.21536154,9.801383,0.00025188923,9.089708e-06,-0.00035953522,4.5776367e-05,-9.1552734e-05,1.5258789e-05
2019-07-01T20:21:54.896Z,0.01085034,-0.012252287,0.9938637,0.2400055,-0.21702576,9.799561,2.3483276,-16.293335,-38.62915,0.23779337,-0.21555296,9.801397,-0.002088949,-0.0007573515,-0.0010414124,-1.5258789e-05,1.5258789e-05,0.00018310547
2019-07-01T20:21:55.101Z,0.010898064,-0.012298148,0.993852,0.23736572,-0.2172699,9.798843,4.3518066,-16.603088,-38.0188,0.2388428,-0.21632107,9.801354,0.0018969476,-0.0012084544,-0.0013208389,-1.5258789e-05,1.5258789e-05,-0.00016784668
2019-07-01T20:21:55.306Z,0.010851355,-0.012280836,0.99386394,0.23760986,-0.21463013,9.801956,3.6575317,-14.248657,-37.28485,0.23787318,-0.2161084,9.801382,-0.0014290661,0.00025062263,-0.0005712509,0.00022888184,0.00019836426,-0.00016784668
2019-07-01T20:21:55.511Z,0.01086218,-0.0122415535,0.9938604,0.24263,-0.21463013,9.801956,3.7490845,-15.541077,-38.986206,0.23800756,-0.2153112,9.801397,0.0010463446,0.0006722808,0.001203537,0.000289917,0.0001373291,7.6293945e-05
2019-07-01T20:21:55.716Z,0.010915728,-0.012226414,0.9938462,0.23808289,-0.21296692,9.801956,2.078247,-15.29541,-38.113403,0.23904596,-0.21487083,9.801381,0.002395168,-0.00024874508,0.0006284714,-1.5258789e-05,1.5258789e-05,7.6293945e-05
2019-07-01T20:21:55.920Z,0.01091896,-0.012183364,0.9938446,0.23880005,-0.2163086,9.801483,1.9866943,-15.368652,-38.87787,0.23902057,-0.21402036,9.8014,-0.00021803379,0.0015394986,-5.9127808e-05,4.5776367e-05,0.0001373291,7.6293945e-05
2019-07-01T20:21:56.126Z,0.010881162,-0.012229776,0.9938553,0.23617554,-0.21511841,9.803879,2.6657104,-14.517212,-39.260864,0.23836231,-0.21502979,9.801395,-0.00029033422,-0.0015131086,0.001074791,-0.0001373291,1.5258789e-05,0.00018310547
2019-07-01T20:21:56.331Z,0.010868911,-0.012246521,0.99385875,0.2400055,-0.21655273,9.800766,2.7038574,-15.614319,-38.430786,0.23815243,-0.21539019,9.801392,-0.0005621612,-0.00042764843,0.0007200241,-7.6293945e-05,1.5258789e-05,7.6293945e-05
2019-07-01T20:21:56.536Z,0.010885026,-0.012265644,0.9938549,0.24072266,-0.21534729,9.800278,2.7175903,-15.322876,-38.371277,0.23851438,-0.21572067,9.801375,0.0009964257,-0.00033800304,-0.0011167526,4.5776367e-05,0.0001373291,-0.00010681152
2019-07-01T20:21:56.740Z,0.010907794,-0.0122437915,0.99384856,0.23857117,-0.21487427,9.800278,3.5339355,-15.127563,-37.760925,0.23892373,-0.215232,9.801376,0.0013189763,0.0005943626,-0.0012292862,-1.5258789e-05,7.6293945e-05,-0.00010681152
2019-07-01T20:21:56.946Z,0.010897288,-0.012241265,0.99385124,0.23808289,-0.21463013,9.804825,4.008484,-15.237427,-38.406372,0.23870851,-0.21521093,9.801382,-0.00013445318,-0.00015421212,0.00044822693,4.5776367e-05,0.00019836426,7.6293945e-05
2019-07-01T20:21:57.066Z,0.010866553,-0.012227484,0.99385905,0.23617554,-0.21679688,9.80101,4.020691,-14.945984,-38.1958,0.23806557,-0.21502432,9.801402,-0.0004737079,0.00016632676,0.0017356873,4.5776367e-05,0.0001373291,7.6293945e-05
2019-07-01T20:21:57.268Z,0.010835321,-0.01225448,0.9938677,0.237854,-0.21440125,9.799332,3.755188,-15.621948,-37.87079,0.23749778,-0.21563625,9.801402,-0.000615865,-0.0013797134,-0.0006084442,-1.5258789e-05,0.0001373291,0.0001373291
2019-07-01T20:21:57.473Z,0.010839634,-0.012231884,0.9938662,0.23928833,-0.21224976,9.800766,2.3239136,-15.132141,-38.31482,0.23753685,-0.21518283,9.801412,0.00056155026,0.0012558252,-0.0021572113,4.5776367e-05,0.0001373291,1.5258789e-05
2019-07-01T20:21:57.669Z,0.010863918,-0.01219022,0.9938592,0.23880005,-0.21559143,9.804825,3.0075073,-16.033936,-38.227844,0.23793514,-0.21430282,9.801421,0.0013592839,0.0018187016,0.00078582764,-1.5258789e-05,1.5258789e-05,0.00018310547
2019-07-01T20:21:57.879Z,0.0108670285,-0.012200311,0.9938585,0.23760986,-0.2131958,9.802444,2.218628,-15.722656,-38.128662,0.23801835,-0.21449172,9.8014145,4.477799e-05,-0.00036473572,0.002122879,4.5776367e-05,7.6293945e-05,7.6293945e-05
2019-07-01T20:21:58.076Z,0.010867866,-0.012187276,0.9938581,0.23951721,-0.21463013,9.8029175,2.9769897,-14.942932,-38.00354,0.23800786,-0.2142346,9.80142,0.0005379021,0.00010035932,0.00045108795,-1.5258789e-05,0.0001373291,0.0001373291
2019-07-01T20:21:58.277Z,0.010874752,-0.012195823,0.99385643,0.23857117,-0.21463013,9.802673,2.7328491,-15.109253,-37.498474,0.23816329,-0.21438316,9.801413,0.00061146915,4.6789646e-06,-2.4795532e-05,4.5776367e-05,1.5258789e-05,-4.5776367e-05
2019-07-01T20:21:58.480Z,0.010868981,-0.012187853,0.9938578,0.23832703,-0.21583557,9.800766,2.8884888,-15.32135,-37.17041,0.23803136,-0.21424292,9.80142,2.6360154e-05,-0.00013566017,-1.1444092e-05,4.5776367e-05,7.6293945e-05,7.6293945e-05
2019-07-01T20:21:58.680Z,0.010869293,-0.012224525,0.99385834,0.23760986,-0.21343994,9.801483,2.0828247,-15.071106,-38.59558,0.23811415,-0.21495908,9.801402,0.00044317544,-0.0015811473,-0.0009775162,0.00010681152,0.00019836426,-4.5776367e-05
2019-07-01T20:21:58.886Z,0.010867058,-0.012194985,0.9938584,0.23928833,-0.2172699,9.801956,2.6275635,-15.548706,-38.33618,0.23800784,-0.21438752,9.801417,0.00054983795,0.0012038648,-1.6212463e-05,-7.6293945e-05,0.00019836426,-0.00010681152
2019-07-01T20:21:59.096Z,0.0108619975,-0.012243762,0.99386054,0.23976135,-0.21511841,9.804596,1.6021729,-15.107727,-38.053894,0.2380085,-0.21535484,9.801395,0.00029879808,-0.0018972158,0.00046539307,-1.5258789e-05,1.5258789e-05,7.6293945e-05
2019-07-01T20:21:59.296Z,0.010886511,-0.012235354,0.993854,0.237854,-0.21368408,9.79837,3.5140991,-15.490723,-38.21106,0.2384808,-0.21512443,9.80139,0.0014950037,3.2797456e-05,0.00078105927,4.5776367e-05,7.6293945e-05,-0.00010681152
2019-07-01T20:21:59.502Z,0.010887413,-0.012208998,0.99385333,0.24023438,-0.2163086,9.800522,3.024292,-15.591431,-38.66577,0.23844382,-0.21460667,9.801402,0.00013613701,0.0011588335,-0.0031433105,4.5776367e-05,0.0001373291,1.5258789e-05
2019-07-01T20:21:59.696Z,0.010885427,-0.01223844,0.99385434,0.23760986,-0.2141571,9.803635,3.7246704,-16.127014,-38.879395,0.2384656,-0.21518768,9.801389,0.0005813986,-0.0011234432,0.00045394897,-7.6293945e-05,1.5258789e-05,-0.00016784668
2019-07-01T20:21:59.901Z,0.010874618,-0.012223781,0.9938569,0.23880005,-0.21440125,9.804825,2.2949219,-15.713501,-38.734436,0.23821901,-0.21493019,9.8014,-0.00039428473,0.00078573823,0.0014133453,4.5776367e-05,-4.5776367e-05,0.00018310547
2019-07-01T20:22:00.110Z,0.010897052,-0.012221993,0.993851,0.23664856,-0.21559143,9.799332,3.3432007,-15.794373,-37.8891,0.23866351,-0.21483475,9.801391,0.00010511279,-1.1220574e-05,0.0014257431,0.00010681152,-9.1552734e-05,-0.00010681152
2019-07-01T20:22:00.302Z,0.010867813,-0.012216072,0.9938586,0.23760986,-0.21583557,9.802444,3.0090332,-15.882874,-38.723755,0.23806693,-0.21479778,9.801407,-0.0014260262,-6.958842e-05,-0.001917839,-7.6293945e-05,1.5258789e-05,-0.00016784668
2019-07-01T20:22:00.513Z,0.01085332,-0.012236314,0.9938627,0.23951721,-0.21534729,9.801483,2.1728516,-16.746521,-38.18512,0.23781957,-0.2152326,9.801403,2.2664666e-05,-0.0013094842,0.0003118515,0.00010681152,0.0002593994,1.5258789e-05
2019-07-01T20:22:00.714Z,0.010877883,-0.012222041,0.993856,0.24072266,-0.21440125,9.804108,3.1280518,-15.226746,-37.84027,0.2382806,-0.21488737,9.801399,0.001708433,0.0009892583,0.0003671646,-7.6293945e-05,7.6293945e-05,1.5258789e-05
2019-07-01T20:22:00.914Z,0.010909227,-0.012218149,0.9938478,0.23832703,-0.2141571,9.799088,3.4332275,-15.570068,-37.997437,0.2388988,-0.21472679,9.801389,0.0013081133,0.0003502369,0.000875473,-1.5258789e-05,-9.1552734e-05,0.0001373291
2019-07-01T20:22:01.112Z,0.010864616,-0.0122260535,0.9938596,0.23617554,-0.21487427,9.799561,3.0212402,-15.664673,-38.604736,0.23802388,-0.21500157,9.801403,-0.0013707131,0.0015574694,-0.0023698807,4.5776367e-05,1.5258789e-05,-0.00010681152
2019-07-01T20:22:01.315Z,0.01084168,-0.012222201,0.9938655,0.2359314,-0.21391296,9.801712,3.1829834,-15.80658,-37.73346,0.23755753,-0.214988,9.801415,-0.00017954409,-0.00014151633,-0.0006313324,-7.6293945e-05,0.0001373291,0.00018310547
2019-07-01T20:22:01.531Z,0.010805606,-0.012183696,0.99387425,0.23808289,-0.2141571,9.800278,2.796936,-15.316772,-38.523865,0.2367564,-0.21433216,9.801449,-0.0012915581,0.0011305064,0.0005311966,4.5776367e-05,0.0001373291,-0.00010681152
2019-07-01T20:22:01.730Z,0.010822245,-0.012196478,0.99387014,0.23760986,-0.2141571,9.800766,2.307129,-15.4953,-38.38806,0.23711549,-0.21453732,9.8014345,0.0012248904,-0.000349015,-0.0006055832,4.5776367e-05,7.6293945e-05,-0.00010681152
2019-07-01T20:22:01.933Z,0.0108268205,-0.012187809,0.9938688,0.23712158,-0.21391296,9.801956,2.6275635,-15.699768,-37.61139,0.23718888,-0.21435554,9.801438,-3.5643578e-05,0.00042778254,-0.00023937225,-1.5258789e-05,-9.1552734e-05,1.5258789e-05
2019-07-01T20:22:02.135Z,0.010832972,-0.012190554,0.9938672,0.23664856,-0.21343994,9.8022,3.7719727,-15.182495,-38.009644,0.23731752,-0.21439268,9.8014345,0.0005527437,0.00022087991,2.861023e-06,-0.0001373291,7.6293945e-05,-6.1035156e-05
2019-07-01T20:22:02.344Z,0.010820561,-0.0121524315,0.99386984,0.23832703,-0.21391296,9.800995,2.5497437,-15.403748,-38.684082,0.23699,-0.21368065,9.801457,-0.00057284534,0.0014331937,0.0015993118,4.5776367e-05,7.6293945e-05,-4.5776367e-05
2019-07-01T20:22:02.541Z,0.010838887,-0.012184711,0.9938656,0.23880005,-0.21487427,9.801239,3.161621,-16.166687,-38.635254,0.23742351,-0.2142625,9.8014345,0.0013817698,-0.0010894984,-0.0006971359,4.5776367e-05,0.0001373291,0.00012207031
2019-07-01T20:22:02.734Z,0.010848208,-0.012193479,0.9938633,0.23880005,-0.2163086,9.800278,3.440857,-15.42511,-37.74109,0.23762804,-0.21440883,9.801426,0.00070373714,-0.0004697293,9.536743e-06,4.5776367e-05,1.5258789e-05,-0.00016784668
2019-07-01T20:22:02.941Z,0.010881419,-0.012211431,0.99385494,0.23904419,-0.21511841,9.800293,4.01001,-15.2404785,-38.105774,0.23832911,-0.21467037,9.801403,0.0014420599,-0.0011740476,-0.00047683716,0.00010681152,1.5258789e-05,-6.1035156e-05
2019-07-01T20:22:03.146Z,0.010875783,-0.012223699,0.9938566,0.23808289,-0.21487427,9.801483,2.6290894,-15.550232,-38.186646,0.23824209,-0.21492544,9.801399,0.00010035932,-0.00045104325,-0.0004720688,-1.5258789e-05,7.6293945e-05,-0.00010681152
2019-07-01T20:22:03.350Z,0.010869484,-0.01221479,0.9938581,0.23928833,-0.21655273,9.800522,3.1845093,-15.808105,-37.582397,0.23809765,-0.21476823,9.801407,-0.00023190677,0.00035639107,0.0003156662,-7.6293945e-05,0.0001373291,-4.5776367e-05
2019-07-01T20:22:03.555Z,0.010882663,-0.012272638,0.9938556,0.23664856,-0.21606445,9.801239,1.9836426,-15.667725,-37.731934,0.23848173,-0.21586378,9.801373,0.0015358776,-0.0018901229,-0.00010871887,-1.5258789e-05,0.00019836426,-0.00016784668
2019-07-01T20:22:03.753Z,0.010838948,-0.0122382045,0.99386644,0.23857117,-0.2131958,9.799561,3.0166626,-15.814209,-38.105774,0.23753633,-0.21530826,9.801409,-0.0015988946,0.0006726682,0.00055217743,-1.5258789e-05,-4.5776367e-05,-0.00010681152
2019-07-01T20:22:03.955Z,0.010848446,-0.012233757,0.99386394,0.23880005,-0.21751404,9.800766,2.4246216,-14.761353,-37.867737,0.23771682,-0.21519572,9.801406,0.0003850162,0.00053316355,-0.0010643005,0.00010681152,1.5258789e-05,-0.00010681152
2019-07-01T20:22:04.157Z,0.010875152,-0.0122616915,0.9938574,0.2368927,-0.21534729,9.799561,4.060364,-15.965271,-38.102722,0.2383088,-0.21566999,9.801381,0.0012294501,-0.0011306852,-0.00022315979,-1.5258789e-05,0.0001373291,0.0001373291
2019-07-01T20:22:04.368Z,0.010836515,-0.012248698,0.9938673,0.23617554,-0.2163086,9.799332,3.2577515,-15.872192,-37.976074,0.23750958,-0.21551996,9.801404,-0.0010779798,0.00037688017,-0.00047779083,4.5776367e-05,7.6293945e-05,-0.00016784668
2019-07-01T20:22:04.567Z,0.010803613,-0.012263197,0.9938761,0.23545837,-0.21391296,9.800278,3.2745361,-15.582275,-37.617493,0.2368823,-0.21589196,9.801412,-0.0011620224,-0.001163885,-0.00048542023,4.5776367e-05,7.6293945e-05,-0.00010681152
2019-07-01T20:22:04.772Z,0.010784962,-0.012211959,0.9938801,0.23857117,-0.2115326,9.801239,3.5308838,-15.202332,-37.625122,0.2364028,-0.21494022,9.801443,-0.00019751489,0.0019462556,0.0003118515,-1.5258789e-05,7.6293945e-05,-4.5776367e-05
2019-07-01T20:22:04.964Z,0.010837427,-0.012166065,0.99386567,0.237854,-0.2131958,9.800995,2.1194458,-16.244507,-37.55188,0.23735543,-0.21390183,9.801443,0.0019583553,0.002346322,0.00037288666,-0.00019836426,0.0001373291,-0.00016784668
2019-07-01T20:22:05.172Z,0.01082115,-0.012164981,0.9938699,0.23808289,-0.21534729,9.801712,4.1625977,-15.449524,-37.927246,0.23702793,-0.21392444,9.801451,-0.000116452575,0.00046756864,0.0005636215,0.00010681152,1.5258789e-05,1.5258789e-05
2019-07-01T20:22:05.374Z,0.0108555015,-0.012187164,0.9938613,0.23808289,-0.21534729,9.799805,2.7542114,-16.267395,-38.48877,0.2377606,-0.21426573,9.801426,0.0012991875,-0.001095593,0.0002117157,-7.6293945e-05,1.5258789e-05,0.00016784668
2019-07-01T20:22:05.578Z,0.010845503,-0.012214244,0.99386436,0.23928833,-0.21368408,9.801956,2.859497,-15.59906,-39.189148,0.23761733,-0.21482213,9.801417,1.3843179e-05,-0.00078856945,-0.0004892349,-7.6293945e-05,-4.5776367e-05,0.0002746582
2019-07-01T20:22:05.782Z,0.010883754,-0.012200816,0.99385417,0.23857117,-0.21583557,9.8029175,2.4108887,-14.978027,-38.28888,0.23835361,-0.21445656,9.801408,0.00093872845,0.0010129958,0.0014305115,4.5776367e-05,1.5258789e-05,-1.5258789e-05
2019-07-01T20:22:05.988Z,0.010876139,-0.012215701,0.9938564,0.2368927,-0.21440125,9.800278,3.0044556,-16.183472,-37.878418,0.23823254,-0.21476813,9.801404,8.4728e-05,-0.00081449747,0.0011129379,-1.5258789e-05,1.5258789e-05,0.00010681152
2019-07-01T20:22:06.190Z,0.010862964,-0.012200853,0.9938596,0.23568726,-0.2131958,9.800278,3.0044556,-16.181946,-37.954712,0.23793828,-0.21451329,9.801416,-0.0007985532,0.00010943413,-0.0010194778,0.00016784668,-0.0002746582,-0.0001373291
2019-07-01T20:22:06.388Z,0.010834584,-0.012176511,0.99386656,0.23736572,-0.2141571,9.800049,3.9916992,-15.527344,-38.69171,0.23732042,-0.21411374,9.80144,-0.0018444955,0.0006579757,-0.0011548996,-7.6293945e-05,7.6293945e-05,0.0002746582
2019-07-01T20:22:06.598Z,0.010822879,-0.012177685,0.99386966,0.23664856,-0.21247864,9.799805,2.6245117,-15.698242,-37.98828,0.237089,-0.21416819,9.801444,-0.0001693815,-1.3202429e-05,-0.0007715225,-7.6293945e-05,-4.5776367e-05,0.0002746582
2019-07-01T20:22:06.793Z,0.010837072,-0.012156525,0.9938656,0.23904419,-0.21368408,9.7986145,2.8244019,-16.403198,-39.19983,0.2373284,-0.21371625,9.801448,0.00030906498,0.0014416724,-3.1471252e-05,4.5776367e-05,-0.00010681152,-0.00032043457
2019-07-01T20:22:06.996Z,0.01086517,-0.012165909,0.9938584,0.23617554,-0.21511841,9.800766,4.3441772,-16.290283,-40.67383,0.23790939,-0.2138241,9.801432,0.0007067323,-0.0003734082,-0.0014533997,4.5776367e-05,7.6293945e-05,-3.0517578e-05
2019-07-01T20:22:07.310Z,0.010830153,-0.01220687,0.99386823,0.23712158,-0.2163086,9.801712,2.3086548,-15.345764,-39.112854,0.23739274,-0.21403077,9.801439,-0.00071647763,-0.0008684695,0.0014162064,0.00016784668,1.5258789e-05,-0.0002593994
2019-07-01T20:22:07.515Z,0.01084739,-0.012164166,0.99386305,0.23760986,-0.21679688,9.801239,2.62146,-15.542603,-39.09149,0.23755048,-0.21383788,9.801439,0.00079394877,0.0015724748,4.386902e-05,-0.0001373291,7.6293945e-05,-0.00019836426
2019-07-01T20:22:07.720Z,0.010841739,-0.012218946,0.99386543,0.24023438,-0.21296692,9.801483,2.9312134,-15.814209,-38.783264,0.23755191,-0.21492419,9.801416,7.0631504e-05,-0.0018841624,0.00034618378,-1.5258789e-05,-3.0517578e-05,-7.6293945e-05
2019-07-01T20:22:07.925Z,0.0108801965,-0.012183243,0.99385476,0.23808289,-0.21440125,9.801483,2.1224976,-15.942383,-38.850403,0.23824583,-0.21412255,9.801417,0.001275599,0.001869008,0.0007123947,-0.00019836426,-4.5776367e-05,-7.6293945e-05
2019-07-01T20:22:08.013Z,0.010873406,-0.012216243,0.9938571,0.23736572,-0.21749878,9.803162,3.666687,-15.394592,-39.857483,0.23817904,-0.21478607,9.801404,-9.009242e-05,-0.00033780932,-0.00015926361,-0.0001373291,7.6293945e-05,-7.6293945e-05
2019-07-01T20:22:08.211Z,0.010857255,-0.012264629,0.9938621,0.23808289,-0.21440125,9.80101,1.9546509,-16.099548,-38.72528,0.23795728,-0.21577562,9.801388,-0.0003580004,-0.0019576997,0.0013380051,0.00022888184,-4.5776367e-05,-1.5258789e-05
2019-07-01T20:22:08.415Z,0.010853539,-0.012237915,0.9938626,0.2368927,-0.21487427,9.803635,2.9434204,-15.673828,-38.224792,0.23782729,-0.2152633,9.801402,-0.00022123754,0.00014835596,-0.0005493164,-1.5258789e-05,7.6293945e-05,-0.00019836426
2019-07-01T20:22:08.620Z,0.010848643,-0.012222263,0.99386364,0.23736572,-0.21607971,9.8029175,2.9281616,-15.887451,-38.720703,0.23769681,-0.21497047,9.801413,-0.00035332143,0.00083346665,0.0015497208,-1.5258789e-05,-0.00010681152,-7.6293945e-05
2019-07-01T20:22:08.817Z,0.010844712,-0.012228546,0.9938648,0.23736572,-0.21607971,9.801727,2.130127,-15.873718,-38.15918,0.23763135,-0.2151039,9.801411,-0.0002964288,-0.00023077428,0.0007095337,-7.6293945e-05,-4.5776367e-05,-0.0001373291
2019-07-01T20:22:09.020Z,0.010835544,-0.012265569,0.9938678,0.23617554,-0.21559143,9.802444,2.9693604,-15.164185,-37.669373,0.23752539,-0.21585247,9.801397,-0.00017733872,-0.0016455054,-0.001115799,0.00016784668,0.0001373291,4.5776367e-05
2019-07-01T20:22:09.234Z,0.010812535,-0.012221548,0.99387306,0.23808289,-0.21368408,9.8029175,3.5705566,-16.223145,-37.15515,0.23697376,-0.2150536,9.801427,-0.0008197427,0.00067190826,0.00035572052,0.00016784668,7.6293945e-05,-0.00021362305
2019-07-01T20:22:09.435Z,0.0108274305,-0.012204641,0.99386895,0.23449707,-0.21440125,9.801956,2.6153564,-15.916443,-37.882996,0.23723617,-0.214683,9.80143,0.0008223057,0.0007921308,0.00023555756,-1.5258789e-05,-4.5776367e-05,4.5776367e-05
2019-07-01T20:22:09.634Z,0.010793816,-0.01219199,0.9938775,0.23880005,-0.21655273,9.795975,2.633667,-15.55481,-37.431335,0.23653811,-0.21452601,9.80145,-0.0015861988,-8.764863e-05,-0.0004749298,0.00010681152,7.6293945e-05,-1.5258789e-05
2019-07-01T20:22:09.854Z,0.010812893,-0.012227513,0.9938731,0.23857117,-0.21511841,9.800522,2.6474,-15.263367,-37.449646,0.23699336,-0.21516931,9.801425,0.0018262714,-0.0014012158,-0.0032052994,-0.0001373291,0.0001373291,0.00015258789
2019-07-01T20:22:10.042Z,0.0108324,-0.012243366,0.99386823,0.23808289,-0.2163086,9.804825,2.659607,-15.046692,-36.95221,0.23741627,-0.2154268,9.80141,0.0009328574,0.00028835237,-0.0002193451,4.5776367e-05,-0.00010681152,3.0517578e-05
2019-07-01T20:22:10.237Z,0.010845882,-0.01224391,0.9938648,0.23425293,-0.21511841,9.801956,2.5802612,-14.898682,-37.750244,0.2376868,-0.21540114,9.801403,0.00016377866,-0.00066019595,0.002090454,0.00010681152,1.5258789e-05,-0.0002593994
2019-07-01T20:22:10.448Z,0.010800385,-0.012233016,0.99387646,0.237854,-0.21583557,9.8022,3.4759521,-16.217041,-38.81073,0.23675488,-0.21531051,9.801427,-0.002271697,-0.0002682805,0.00091552734,0.00010681152,-4.5776367e-05,-7.6293945e-05
2019-07-01T20:22:10.645Z,0.010821318,-0.012237144,0.99387103,0.23857117,-0.2163086,9.803635,3.2867432,-15.136719,-38.432312,0.23718183,-0.21533497,9.801417,0.001131326,-0.0002438575,-3.4332275e-05,-1.5258789e-05,7.6293945e-05,-0.00019836426
2019-07-01T20:22:10.847Z,0.010830507,-0.012238572,0.99386865,0.23664856,-0.21343994,9.800766,3.0975342,-15.80658,-38.409424,0.2373684,-0.21533816,9.801412,0.00045633316,1.7434359e-05,0.0012588501,4.5776367e-05,-4.5776367e-05,-0.0001373291
2019-07-01T20:22:11.057Z,0.010823987,-0.012222827,0.99387014,0.237854,-0.2182312,9.804596,3.0410767,-15.3793335,-37.641907,0.2372053,-0.21504784,9.801422,-0.00032266974,0.0006557405,-0.0015611649,-1.5258789e-05,7.6293945e-05,-0.00032043457
2019-07-01T20:22:11.261Z,0.0108244615,-0.012264211,0.9938707,0.23736572,-0.2131958,9.801727,3.4622192,-14.910889,-37.939453,0.23730107,-0.21585572,9.801402,0.0005181581,-0.0018555671,0.0019865036,0.000289917,0.0001373291,-0.00019836426
2019-07-01T20:22:11.461Z,0.010814718,-0.012210196,0.99387234,0.23474121,-0.2163086,9.800766,2.1484375,-15.510559,-37.857056,0.23699373,-0.21482581,9.801433,-0.00012637675,0.0009358376,-0.0007534027,0.00010681152,0.0001373291,-0.0001373291
2019-07-01T20:22:11.666Z,0.010760467,-0.012212781,0.99388653,0.23832703,-0.21343994,9.800522,3.0822754,-16.174316,-38.25836,0.23591502,-0.21502209,9.801454,-0.0016732663,-0.0010321885,-0.0011520386,0.00016784668,7.6293945e-05,-0.0002593994
2019-07-01T20:22:11.864Z,0.010797946,-0.01220004,0.9938765,0.23736572,-0.2131958,9.800766,3.050232,-15.084839,-37.957764,0.23663741,-0.2146723,9.801444,0.0016913265,0.00075779855,-0.0010957718,-0.00019836426,0.0001373291,-0.00032043457
2019-07-01T20:22:12.071Z,0.010816551,-0.012178247,0.99387133,0.2359314,-0.21368408,9.80101,1.7547607,-15.316772,-38.104248,0.23696373,-0.21419619,9.801447,0.00089891255,0.0012214631,-0.0005674362,-7.6293945e-05,1.5258789e-05,-0.00045776367
2019-07-01T20:22:12.276Z,0.010811964,-0.012168583,0.99387234,0.23808289,-0.21440125,9.800278,3.5873413,-15.551758,-38.68103,0.23685193,-0.21401958,9.801454,-0.00043031573,0.00082202256,0.000582695,-7.6293945e-05,1.5258789e-05,-0.00032043457
2019-07-01T20:22:12.477Z,0.010820586,-0.012173668,0.9938702,0.2359314,-0.21368408,9.800995,3.277588,-15.357971,-38.250732,0.23703483,-0.21409582,9.801448,0.0008393079,-7.946789e-05,-0.0015277863,-7.6293945e-05,7.6293945e-05,-0.00019836426
2019-07-01T20:22:12.678Z,0.010790912,-0.012167223,0.9938778,0.23664856,-0.21321106,9.801239,3.2989502,-15.072632,-37.286377,0.23642847,-0.21404956,9.801463,-0.0007067174,0.00059220195,0.0001001358,0.00022888184,7.6293945e-05,-0.00039672852
2019-07-01T20:22:12.878Z,0.010804515,-0.012143175,0.9938739,0.23880005,-0.21583557,9.8022,1.979065,-15.513611,-38.90686,0.23665012,-0.21354282,9.801469,0.00049738586,9.3236566e-05,0.0007009506,-1.5258789e-05,7.6293945e-05,-0.0002593994
2019-07-01T20:22:13.081Z,0.010838094,-0.012195466,0.99386597,0.24047852,-0.21559143,9.800522,1.9210815,-15.234375,-37.86621,0.23743011,-0.21447492,9.80143,0.0018584132,-0.0020780116,0.0007791519,-1.5258789e-05,-4.5776367e-05,-0.00019836426
2019-07-01T20:22:13.293Z,0.010886161,-0.012205667,0.99385357,0.23951721,-0.2141571,9.801712,3.6697388,-15.777588,-37.3703,0.23841181,-0.2145449,9.801404,0.0013527572,0.00014078617,-0.00027751923,-1.5258789e-05,-4.5776367e-05,-0.00019836426
2019-07-01T20:22:13.487Z,0.010901515,-0.01223014,0.99385,0.23760986,-0.21679688,9.802673,3.4194946,-16.0141,-37.182617,0.23876972,-0.214982,9.801385,0.0009907484,-0.00085277855,0.00029087067,0.00010681152,0.0001373291,-0.00032043457
2019-07-01T20:22:13.693Z,0.01086967,-0.012228592,0.9938583,0.23713684,-0.21440125,9.800766,2.809143,-15.252686,-37.228394,0.23813017,-0.2150376,9.8014,-0.0007675886,-0.00055098534,0.00019741058,4.5776367e-05,7.6293945e-05,-0.00019836426
2019-07-01T20:22:13.884Z,0.01089729,-0.01221133,0.99385077,0.23736572,-0.21463013,9.803162,2.8686523,-15.608215,-37.982178,0.23864602,-0.21462563,9.801396,0.0015746504,7.838011e-06,0.0007133484,4.5776367e-05,7.6293945e-05,4.5776367e-05
2019-07-01T20:22:14.083Z,0.010882826,-0.012205796,0.99385446,0.2400055,-0.21583557,9.803635,4.701233,-15.768433,-39.07013,0.23834544,-0.21455643,9.801405,-0.00052799284,-5.453825e-05,0.00063610077,4.5776367e-05,-0.00015258789,-0.0002593994
2019-07-01T20:22:14.293Z,0.010884149,-0.012247645,0.9938548,0.23904419,-0.21679688,9.802429,2.4215698,-14.457703,-39.616394,0.23845929,-0.21537112,9.801385,0.0003041774,-0.0013774633,0.0012197495,-7.6293945e-05,7.6293945e-05,4.5776367e-05
2019-07-01T20:22:14.504Z,0.010905668,-0.012274797,0.99384964,0.23951721,-0.21200562,9.800766,2.8961182,-14.94751,-38.15155,0.238946,-0.21584398,9.801362,0.0010221303,-0.00043086708,2.2888184e-05,-1.5258789e-05,1.5258789e-05,-0.0002593994
2019-07-01T20:22:14.705Z,0.01092008,-0.012188661,0.99384445,0.23808289,-0.21655273,9.800766,3.3859253,-14.92157,-37.33368,0.23905402,-0.21412091,9.801397,0.0002207458,0.0026004463,-0.0019044876,0.00016784668,0.0001373291,9.1552734e-05
2019-07-01T20:22:14.900Z,0.010897124,-0.012243732,0.99385136,0.2400055,-0.21655273,9.802429,2.5650024,-15.113831,-38.32245,0.23871037,-0.2152596,9.80138,-0.0001552552,-0.0022247285,0.00016117096,0.00010681152,0.0002593994,-0.0001373291
2019-07-01T20:22:15.105Z,0.010911829,-0.012260314,0.9938478,0.23951721,-0.21559143,9.804352,2.7755737,-15.829468,-38.09967,0.23903887,-0.2155442,9.801367,0.0011795461,-0.0012230277,-6.389618e-05,0.00016784668,7.6293945e-05,-0.00015258789
2019-07-01T20:22:15.312Z,0.010904178,-0.012243494,0.9938495,0.23904419,-0.2163086,9.801727,2.0599365,-15.734863,-37.973022,0.23885085,-0.21523596,9.801378,0.00040470064,0.0003912449,0.0013837814,4.5776367e-05,1.5258789e-05,-0.0001373291
2019-07-01T20:22:15.516Z,0.010901554,-0.012254381,0.99385035,0.23832703,-0.21536255,9.803162,3.2196045,-14.924622,-38.31024,0.23882115,-0.21545589,9.801374,-4.014373e-05,-0.0008355081,-0.0011453629,-7.6293945e-05,7.6293945e-05,-1.5258789e-05
2019-07-01T20:22:15.721Z,0.01087703,-0.0122370785,0.9938565,0.23641968,-0.21511841,9.804108,2.8701782,-15.686035,-37.31842,0.23829496,-0.21518369,9.801393,-0.0009635538,0.0008134395,0.0013036728,0.00010681152,-0.00010681152,-7.6293945e-05
2019-07-01T20:22:15.921Z,0.010862443,-0.012246193,0.9938605,0.23808289,-0.21391296,9.803162,2.645874,-15.261841,-37.600708,0.23802248,-0.2154012,9.801394,-0.00070156157,-0.00086684525,0.0008678436,0.00010681152,1.5258789e-05,0.00010681152
2019-07-01T20:22:16.128Z,0.010860249,-0.012184856,0.99386,0.23808289,-0.21343994,9.801239,3.1311035,-15.229797,-37.387085,0.23785064,-0.21420783,9.801425,-0.000282377,0.0015225261,-0.00022220612,0.00010681152,1.5258789e-05,-1.5258789e-05
2019-07-01T20:22:16.330Z,0.010870172,-0.0121941455,0.99385756,0.2368927,-0.21487427,9.803635,3.0303955,-15.675354,-37.322998,0.2380683,-0.21436273,9.801416,-1.566112e-05,-0.00048428774,-0.0009498596,4.5776367e-05,-4.5776367e-05,-0.00019836426
2019-07-01T20:22:16.530Z,0.010849523,-0.01219238,0.9938629,0.23976135,-0.21487427,9.801956,2.59552,-16.355896,-37.820435,0.23765203,-0.2143838,9.801426,-0.0005452931,9.715557e-06,5.722046e-06,-1.5258789e-05,1.5258789e-05,4.5776367e-05
2019-07-01T20:22:16.733Z,0.010876813,-0.012212996,0.99385613,0.23857117,-0.21511841,9.8033905,2.0431519,-16.023254,-38.409424,0.23824033,-0.2147134,9.801404,0.0012421161,-0.0008467138,0.0003271103,0.00016784668,-4.5776367e-05,-0.00019836426
2019-07-01T20:22:16.932Z,0.010889341,-0.012210356,0.99385285,0.2400055,-0.21583557,9.8022,4.1625977,-15.374756,-38.139343,0.23848516,-0.21462801,9.8014,0.00028902292,-0.0004670918,-0.00075149536,4.5776367e-05,7.6293945e-05,0.00010681152
2019-07-01T20:22:17.140Z,0.010920383,-0.012219591,0.99384487,0.23951721,-0.21655273,9.800995,3.2714844,-15.428162,-38.79242,0.2391247,-0.21472485,9.801382,0.0015736818,-0.00012759864,-0.00017738342,4.5776367e-05,7.6293945e-05,-0.0001373291
2019-07-01T20:22:17.342Z,0.010915365,-0.012246601,0.99384665,0.2400055,-0.21655273,9.8029175,3.2485962,-15.863037,-39.257812,0.23908088,-0.21526651,9.801372,-5.5849552e-05,-0.0012689829,-0.0004453659,4.5776367e-05,1.5258789e-05,-0.0001373291
2019-07-01T20:22:17.541Z,0.0109197125,-0.012265415,0.9938458,0.23808289,-0.21511841,9.801956,2.5238037,-16.062927,-38.51471,0.23920704,-0.21562263,9.80136,0.0005325675,-0.00091050565,0.00017738342,-7.6293945e-05,-0.00010681152,-0.00019836426
2019-07-01T20:22:17.747Z,0.010915366,-0.012260839,0.9938469,0.23808289,-0.21440125,9.800522,3.17688,-16.027832,-37.475586,0.23911065,-0.21554491,9.801365,-0.00080266595,0.00044366717,-0.00018978119,-7.6293945e-05,1.5258789e-05,-0.00019836426
2019-07-01T20:22:17.948Z,0.010898981,-0.0122524705,0.993851,0.23857117,-0.21440125,9.8022,2.4475098,-15.922546,-38.48114,0.23876573,-0.21542546,9.801375,-0.00044246018,0.0003104359,-0.0012369156,-1.5258789e-05,1.5258789e-05,-3.0517578e-05
2019-07-01T20:22:18.278Z,0.010895649,-0.01223925,0.99385166,0.23928833,-0.21702576,9.801956,3.7750244,-15.185547,-37.63275,0.23867156,-0.21517597,9.801384,-0.000111311674,0.00078457594,0.00061130524,4.5776367e-05,0.0001373291,4.5776367e-05
2019-07-01T20:22:18.483Z,0.010893022,-0.012239,0.9938524,0.23976135,-0.21463013,9.802444,2.697754,-15.380859,-40.420532,0.23861852,-0.21517816,9.801385,0.00041535497,-0.00089225173,-8.106232e-05,0.00016784668,0.00019836426,-7.6293945e-05
2019-07-01T20:22:18.594Z,0.010892158,-0.012229925,0.99385244,0.23641968,-0.21487427,9.80101,3.9215088,-15.161133,-39.596558,0.23858233,-0.21500304,9.80139,0.0006905347,0.00038686395,0.00041866302,4.5776367e-05,1.5258789e-05,-3.0517578e-05
2019-07-01T20:22:18.799Z,0.0108527765,-0.012207114,0.99386233,0.23713684,-0.21463013,9.804596,3.288269,-16.885376,-38.86261,0.2377478,-0.21466316,9.801418,-0.0015904754,0.0002783686,0.00027561188,0.00010681152,7.6293945e-05,0.00021362305
2019-07-01T20:22:19.005Z,0.010846397,-0.012222349,0.99386424,0.23976135,-0.2163086,9.803635,3.0822754,-16.098022,-38.693237,0.2376521,-0.21497817,9.801413,0.00016580522,-0.0010536164,0.001449585,4.5776367e-05,0.0001373291,4.5776367e-05
2019-07-01T20:22:19.210Z,0.010864507,-0.012219198,0.99385947,0.23545837,-0.21368408,9.8033905,4.15802,-15.370178,-38.816833,0.23800741,-0.21486783,9.801407,0.0012405068,3.0055642e-05,0.0003194809,-1.5258789e-05,0.0001373291,-0.0002746582
2019-07-01T20:22:19.414Z,0.010829302,-0.012214625,0.9938686,0.24143982,-0.21440125,9.804596,3.90625,-15.603638,-38.928223,0.23729436,-0.21487316,9.801423,-0.00092481077,0.0002746135,-0.0004196167,0.00010681152,1.5258789e-05,0.00010681152
2019-07-01T20:22:19.572Z,0.010888083,-0.0122106,0.99385315,0.2400055,-0.2141571,9.800522,3.251648,-15.866089,-38.72986,0.23846051,-0.21463618,9.8014,0.0024374723,3.901124e-05,0.0014667511,-1.5258789e-05,7.6293945e-05,-1.5258789e-05
2019-07-01T20:22:19.775Z,0.010918837,-0.012191704,0.9938448,0.24191284,-0.21392822,9.800766,2.3666382,-15.927124,-38.479614,0.23903553,-0.21418376,9.801396,0.0011660606,0.0005290508,-0.0017309189,4.5776367e-05,-0.00010681152,-0.0001373291
2019-07-01T20:22:19.979Z,0.010969165,-0.012203565,0.9938318,0.23832703,-0.2163086,9.8033905,2.973938,-15.093994,-37.504578,0.24006589,-0.21427976,9.801369,0.0018354058,0.00013294816,-0.0017910004,-1.5258789e-05,7.6293945e-05,-1.5258789e-05
2019-07-01T20:22:20.176Z,0.010940681,-0.012221919,0.9938396,0.24143982,-0.21440125,9.805069,2.3590088,-16.30249,-37.348938,0.23953518,-0.21471561,9.8013735,-0.00075922906,-0.00085422397,0.0010318756,-1.5258789e-05,0.0001373291,-0.00019836426
2019-07-01T20:22:20.381Z,0.010929291,-0.012234184,0.9938428,0.24072266,-0.2182312,9.803162,3.2196045,-15.003967,-37.57019,0.2393332,-0.21498615,9.801372,-0.000810802,-0.0008056313,-0.00045108795,-1.5258789e-05,-4.5776367e-05,-0.0001373291
2019-07-01T20:22:20.581Z,0.01094983,-0.012280207,0.9938382,0.23928833,-0.21751404,9.800278,1.8676758,-14.660645,-37.29706,0.23983984,-0.21583056,9.801341,0.0005929172,-0.0011540055,-0.0002937317,-7.6293945e-05,1.5258789e-05,0.00010681152
2019-07-01T20:22:20.781Z,0.010919904,-0.012318666,0.99384665,0.23832703,-0.21440125,9.805786,2.5482178,-15.4800415,-38.24463,0.23932214,-0.21666333,9.801335,-0.00077295303,-0.0015479475,-0.0019578934,4.5776367e-05,0.0002593994,-7.6293945e-05
2019-07-01T20:22:20.988Z,0.010901185,-0.012280455,0.9938509,0.23928833,-0.21511841,9.8029175,2.4475098,-15.99884,-38.119507,0.2388682,-0.21596669,9.801361,0.00012563169,0.0013820529,0.0023593903,-7.6293945e-05,0.0001373291,-0.00019836426
2019-07-01T20:22:21.196Z,0.010886545,-0.012248047,0.99385417,0.23857117,-0.2172699,9.801727,2.9312134,-15.814209,-38.783264,0.238508,-0.21537249,9.801383,-0.00046502054,0.00077840686,-0.00082302094,-1.5258789e-05,7.6293945e-05,-1.5258789e-05
2019-07-01T20:22:21.396Z,0.010898069,-0.012286171,0.9938518,0.24023438,-0.21200562,9.803879,2.4261475,-16.358948,-38.871765,0.23881789,-0.21608686,9.80136,0.0011459291,-0.0011453182,9.059906e-05,0.00022888184,1.5258789e-05,-0.00039672852
2019-07-01T20:22:21.598Z,0.010916608,-0.012206802,0.99384564,0.23880005,-0.21511841,9.804123,1.9882202,-15.522766,-37.701416,0.23902258,-0.21448499,9.801391,0.0004489571,0.0025203675,0.0003709793,-1.5258789e-05,0.0001373291,4.5776367e-05
2019-07-01T20:22:21.801Z,0.0109071005,-0.012208773,0.99384815,0.23832703,-0.21655273,9.8033905,3.3538818,-15.348816,-39.006042,0.2388367,-0.21454918,9.8013935,-7.95275e-05,-0.00053070486,-0.00023555756,0.00016784668,-0.00010681152,-7.6293945e-05
2019-07-01T20:22:22.005Z,0.010900878,-0.012246334,0.9938504,0.23832703,-0.21296692,9.797653,3.691101,-15.264893,-37.643433,0.23879084,-0.21530038,9.801378,-0.00026483834,-0.0016846508,0.00015830994,-1.5258789e-05,0.0001373291,4.5776367e-05
2019-07-01T20:22:22.209Z,0.010890423,-0.012198831,0.9938524,0.2368927,-0.2131958,9.802429,3.1280518,-15.074158,-38.7146,0.23848271,-0.21439974,9.801405,-0.00016278028,0.001927495,-0.0030822754,4.5776367e-05,0.0001373291,-7.6293945e-05
2019-07-01T20:22:22.411Z,0.010858033,-0.012170794,0.99386036,0.23880005,-0.21583557,9.798126,2.7191162,-15.325928,-38.07068,0.237777,-0.21393885,9.801433,-0.00089098513,0.00050494075,2.861023e-06,4.5776367e-05,0.0001373291,-0.00019836426
2019-07-01T20:22:22.610Z,0.0108638415,-0.012206059,0.9938594,0.23713684,-0.21846008,9.803162,2.6062012,-16.137695,-37.776184,0.23796669,-0.21461271,9.801414,0.0006222427,-0.0014830381,-0.0020666122,-1.5258789e-05,1.5258789e-05,0.00016784668
2019-07-01T20:22:22.819Z,0.010839033,-0.012256419,0.99386674,0.23880005,-0.21511841,9.805786,3.4500122,-15.127563,-38.36212,0.237576,-0.21566416,9.801399,-0.0002129376,-0.001847446,0.0016517639,-1.5258789e-05,0.00019836426,-7.6293945e-05
2019-07-01T20:22:23.011Z,0.010853109,-0.012256435,0.99386305,0.23857117,-0.21774292,9.800766,2.4658203,-15.560913,-38.02948,0.23785733,-0.21562658,9.8013935,0.0011513382,6.735325e-05,0.0026845932,-1.5258789e-05,1.5258789e-05,-0.00019836426
2019-07-01T20:22:23.227Z,0.010863265,-0.012302846,0.9938612,0.23953247,-0.2172699,9.801956,2.4551392,-15.853882,-37.864685,0.23815712,-0.21650667,9.801367,0.00014683604,-0.0019324273,-0.0010766983,0.00010681152,1.5258789e-05,-0.0002593994
2019-07-01T20:22:23.420Z,0.010884986,-0.012311658,0.99385566,0.237854,-0.2163086,9.801239,2.1392822,-15.652466,-38.415527,0.23860964,-0.21662046,9.801353,0.001144737,-0.0003989637,-0.0013628006,-7.6293945e-05,7.6293945e-05,4.5776367e-05
2019-07-01T20:22:23.624Z,0.010851093,-0.012301641,0.99386436,0.237854,-0.21487427,9.803635,2.319336,-15.202332,-38.479614,0.23791134,-0.2165159,9.801373,-0.0010510236,-7.390976e-06,0.0021190643,0.00010681152,7.6293945e-05,-0.00019836426
2019-07-01T20:22:23.830Z,0.01086197,-0.012250661,0.99386066,0.23808289,-0.21224976,9.80722,2.923584,-16.186523,-37.95166,0.23802236,-0.21548982,9.801393,0.00051134825,0.0020837933,0.00045490265,-1.5258789e-05,1.5258789e-05,-7.6293945e-05
2019-07-01T20:22:24.032Z,0.010853606,-0.012210571,0.9938622,0.23904419,-0.21487427,9.801239,3.1341553,-15.080261,-37.88452,0.23777157,-0.2147285,9.801415,3.9830804e-05,0.0015711933,0.00046253204,0.00010681152,0.0001373291,4.5776367e-05
2019-07-01T20:22:24.235Z,0.010878607,-0.012200993,0.9938555,0.23904419,-0.21440125,9.801239,3.1967163,-15.667725,-36.949158,0.23825113,-0.21447387,9.80141,0.0010001808,-0.0003670901,-0.00050258636,0.00010681152,7.6293945e-05,-0.0002593994
2019-07-01T20:22:24.435Z,0.010875321,-0.0122041255,0.99385643,0.23857117,-0.21559143,9.79837,2.191162,-16.381836,-37.809753,0.23819199,-0.21454397,9.801409,0.00035963953,-6.854534e-05,-0.0014476776,4.5776367e-05,7.6293945e-05,-1.5258789e-05
2019-07-01T20:22:24.635Z,0.010879719,-0.01222499,0.9938556,0.23880005,-0.21463013,9.798843,2.6138306,-15.991211,-37.6709,0.23832345,-0.21494009,9.801397,0.00025892258,-0.0011497438,-0.002565384,0.00022888184,1.5258789e-05,-1.5258789e-05
2019-07-01T20:22:24.849Z,0.010886032,-0.012202468,0.99385357,0.23857117,-0.21559143,9.801239,3.4591675,-14.985657,-37.878418,0.23840258,-0.21448271,9.801406,0.000665769,5.9723854e-05,-0.001080513,-1.5258789e-05,7.6293945e-05,-3.0517578e-05
2019-07-01T20:22:25.047Z,0.010890149,-0.012214018,0.9938527,0.23808289,-0.21511841,9.8029175,3.1738281,-15.797424,-38.938904,0.23850895,-0.21469745,9.801398,0.00029680133,-0.00018195808,0.0015096664,-0.0001373291,1.5258789e-05,-0.00019836426
2019-07-01T20:22:25.245Z,0.01087224,-0.012235944,0.99385774,0.23736572,-0.2141571,9.799576,3.741455,-15.762329,-38.65509,0.23819686,-0.21517439,9.801394,-0.001049012,-0.00042697787,-0.00042057037,-1.5258789e-05,-0.00010681152,-7.6293945e-05
2019-07-01T20:22:25.456Z,0.010883889,-0.012212939,0.9938543,0.23832703,-0.21487427,9.804825,2.1469116,-15.509033,-38.08441,0.23838161,-0.2146932,9.801401,0.00042712688,0.0007724017,0.00019550323,-1.5258789e-05,-4.5776367e-05,-1.5258789e-05
2019-07-01T20:22:25.652Z,0.010883671,-0.012215953,0.9938544,0.23641968,-0.21559143,9.801712,3.5140991,-15.567017,-37.773132,0.23838355,-0.21475272,9.801399,-0.0005437583,-0.000108748674,0.0018949509,-1.5258789e-05,-0.00010681152,-0.0001373291
2019-07-01T20:22:25.863Z,0.010861599,-0.012215205,0.9938602,0.23855591,-0.21511841,9.802444,3.501892,-15.859985,-37.605286,0.23794095,-0.21479757,9.80141,-0.0010677129,-5.9112906e-05,0.00046157837,-7.6293945e-05,1.5258789e-05,-0.00019836426
2019-07-01T20:22:26.058Z,0.010864512,-0.012237918,0.99385977,0.237854,-0.21583557,9.802673,2.8427124,-16.116333,-38.386536,0.23804656,-0.21523382,9.801397,2.0712614e-05,-0.00034351647,-0.00032806396,-7.6293945e-05,-4.5776367e-05,4.5776367e-05
2019-07-01T20:22:26.266Z,0.010872917,-0.012261732,0.993858,0.23880005,-0.21463013,9.8022,3.741455,-15.838623,-38.139343,0.23826425,-0.2156768,9.801383,0.00028011203,-0.0003786385,0.0009050369,4.5776367e-05,-0.00015258789,-0.0001373291
2019-07-01T20:22:26.468Z,0.010875753,-0.0122247115,0.9938566,0.23641968,-0.21511841,9.800766,2.4642944,-15.560913,-38.331604,0.23824365,-0.21494535,9.8014,-0.00065398216,0.0010506064,-0.00050354004,4.5776367e-05,-0.00010681152,4.5776367e-05
2019-07-01T20:22:26.669Z,0.010858575,-0.012238902,0.9938614,0.23783875,-0.21511841,9.801239,2.9754639,-16.838074,-38.087463,0.23723418,-0.21516356,9.801418,-0.001063332,-0.0004236102,-0.0006017685,0.00010681152,0.00021362305,-7.6293945e-05
2019-07-01T20:22:26.866Z,0.010822051,-0.012224795,0.9938707,0.23928833,-0.21463013,9.801712,2.7160645,-15.475464,-37.495422,0.23717071,-0.21509153,9.801422,0.00091804564,-0.00026108325,-0.0009012222,0.00010681152,0.0001373291,-7.6293945e-05
2019-07-01T20:22:27.128Z,0.010866035,-0.01221193,0.99385893,0.23736572,-0.21511841,9.803162,3.17688,-15.800476,-38.63678,0.23802276,-0.2147216,9.80141,0.0019897074,0.0005581826,-0.00012683868,-7.6293945e-05,1.5258789e-05,-7.6293945e-05
2019-07-01T20:22:27.325Z,0.010853155,-0.012216993,0.9938624,0.23880005,-0.21224976,9.801483,2.9556274,-15.380859,-38.015747,0.23777595,-0.21485527,9.801413,-0.00041764975,-1.2293458e-05,0.0011987686,-0.00019836426,-4.5776367e-05,-3.0517578e-05
2019-07-01T20:22:27.521Z,0.0108667165,-0.012195011,0.9938585,0.23736572,-0.21702576,9.804825,2.5344849,-15.617371,-39.556885,0.23800105,-0.21438895,9.801417,0.00054736435,0.0014425367,0.0012807846,-1.5258789e-05,7.6293945e-05,4.5776367e-05
2019-07-01T20:22:27.745Z,0.010839571,-0.012224233,0.9938661,0.23808289,-0.21511841,9.8033905,2.708435,-15.620422,-37.75177,0.23751964,-0.21503341,9.801415,-0.0004159361,-0.0010163039,0.00085163116,0.00016784668,1.5258789e-05,-0.0002593994
2019-07-01T20:22:27.939Z,0.01085193,-0.012218876,0.99386275,0.23832703,-0.21583557,9.799805,3.4317017,-15.5685425,-38.150024,0.2377554,-0.21489538,9.801412,0.000283435,-0.0004273504,0.0008802414,-7.6293945e-05,1.5258789e-05,-0.0002593994
2019-07-01T20:22:28.141Z,0.010866246,-0.012250883,0.9938595,0.23951721,-0.21702576,9.8029175,2.7526855,-16.340637,-38.352966,0.23810828,-0.21548264,9.801391,0.0004518032,-0.0013041943,-0.0027599335,0.00010681152,7.6293945e-05,-7.6293945e-05
2019-07-01T20:22:28.342Z,0.010883654,-0.012255751,0.99385506,0.23713684,-0.2131958,9.802673,2.6031494,-15.982056,-38.952637,0.23846628,-0.2155309,9.80138,0.0010308176,-0.00028647482,0.0007095337,-1.5258789e-05,-0.00021362305,0.00016784668
2019-07-01T20:22:28.546Z,0.010874105,-0.012224019,0.993857,0.23880005,-0.21583557,9.801239,2.4505615,-15.927124,-38.027954,0.23820926,-0.21493624,9.801401,-0.0013320297,0.0010372251,-0.00032520294,0.00016784668,-4.5776367e-05,9.1552734e-05
2019-07-01T20:22:28.750Z,0.010890933,-0.012221823,0.9938526,0.23808289,-0.21440125,9.8022,2.4047852,-15.203857,-37.579346,0.23854092,-0.21484795,9.801394,0.0007265061,-0.0002516359,0.00042057037,0.00010681152,1.5258789e-05,-3.0517578e-05
2019-07-01T20:22:28.952Z,0.010885933,-0.012222881,0.9938539,0.24119568,-0.21679688,9.8022,3.038025,-15.52887,-37.294006,0.23844323,-0.2148821,9.801395,-0.00037495792,-0.00022312999,-0.0005130768,4.5776367e-05,1.5258789e-05,-7.6293945e-05
2019-07-01T20:22:29.150Z,0.010927555,-0.012253707,0.99384356,0.23904419,-0.2163086,9.801727,2.9037476,-14.953613,-37.246704,0.23933934,-0.21537258,9.801364,0.001841113,-0.0014105886,-3.0517578e-05,0.00010681152,1.5258789e-05,-0.0001373291
2019-07-01T20:22:29.354Z,0.010917411,-0.012256787,0.99384624,0.23951721,-0.21511841,9.802673,3.427124,-15.716553,-38.02643,0.23914304,-0.21546017,9.801366,-0.00011384487,-0.0003619194,-2.3841858e-05,-7.6293945e-05,-0.00010681152,-0.00015258789
2019-07-01T20:22:29.562Z,0.010933065,-0.012253014,0.9938421,0.24023438,-0.21583557,9.8029175,2.720642,-15.25116,-38.206482,0.23944797,-0.21534415,9.801361,4.0724874e-05,2.2515655e-05,0.0011062622,4.5776367e-05,-0.00015258789,4.5776367e-05
2019-07-01T20:22:29.768Z,0.010947105,-0.0122718075,0.9938387,0.23951721,-0.21655273,9.804825,4.273987,-16.07666,-40.85388,0.2397678,-0.21567369,9.801346,0.00021161139,-0.00013844669,-0.0002117157,-7.6293945e-05,7.6293945e-05,-0.00032043457
2019-07-01T20:22:29.973Z,0.01095095,-0.012291127,0.9938381,0.24119568,-0.21679688,9.802444,2.5299072,-15.765381,-39.434814,0.23988505,-0.21604106,9.801335,7.83056e-05,-0.00071786344,0.0012950897,-1.5258789e-05,1.5258789e-05,0.00010681152
2019-07-01T20:22:30.288Z,0.010949235,-0.012312586,0.99383885,0.2400055,-0.21583557,9.802673,2.5894165,-16.349792,-38.648987,0.23989561,-0.21646525,9.801325,0.00054742396,-0.0007726252,-0.0005750656,0.00010681152,1.5258789e-05,-7.6293945e-05
2019-07-01T20:22:30.493Z,0.010956651,-0.012278845,0.99383634,0.23904419,-0.21559143,9.800995,2.4047852,-15.275574,-37.745667,0.23997329,-0.21578552,9.801339,0.00022265315,0.0009457916,0.00025367737,-1.5258789e-05,0.0001373291,-7.6293945e-05
2019-07-01T20:22:30.698Z,0.010936695,-0.012281908,0.99384165,0.23832703,-0.21702576,9.801727,3.7246704,-16.05072,-39.315796,0.23958091,-0.21589929,9.801346,-0.00031341612,-0.0001616627,-0.0014314651,-1.5258789e-05,0.00019836426,-0.00019836426
2019-07-01T20:22:30.905Z,0.010904921,-0.012297067,0.9938502,0.23832703,-0.21511841,9.803635,3.163147,-16.091919,-38.84735,0.2389776,-0.21628143,9.8013525,-0.00067718327,-0.00096438825,0.00047397614,-1.5258789e-05,1.5258789e-05,-1.5258789e-05
2019-07-01T20:22:30.984Z,0.010888147,-0.01226321,0.99385405,0.2400055,-0.21606445,9.801956,2.8411865,-16.267395,-37.739563,0.23857164,-0.21566464,9.801374,-0.00051666796,0.0012886226,0.00015163422,0.00022888184,-4.5776367e-05,-0.0002593994
2019-07-01T20:22:31.180Z,0.0109291,-0.0122678885,0.9938434,0.2400055,-0.2141571,9.803146,3.3843994,-16.511536,-38.867188,0.23939985,-0.21564569,9.801356,0.00080673397,-0.000637874,-4.9591064e-05,-1.5258789e-05,-0.00010681152,-7.6293945e-05
2019-07-01T20:22:31.382Z,0.010929351,-0.012230837,0.9938427,0.23713684,-0.21534729,9.802673,3.263855,-15.725708,-38.09662,0.2393274,-0.21492055,9.8013735,-7.3865056e-05,0.0007946938,0.00059223175,0.000289917,-4.5776367e-05,4.5776367e-05
2019-07-01T20:22:31.626Z,0.010895277,-0.012203309,0.9938512,0.23951721,-0.21463013,9.801712,3.1982422,-15.516663,-37.52289,0.23858905,-0.21447422,9.801401,-0.00031340122,-0.00012500584,0.0018014908,4.5776367e-05,-4.5776367e-05,-7.6293945e-05
2019-07-01T20:22:31.819Z,0.010917022,-0.0122101875,0.9938456,0.23880005,-0.21655273,9.803162,2.798462,-15.316772,-38.372803,0.23903792,-0.21455008,9.801389,0.00044806302,-5.2034855e-05,-0.0016736984,0.00022888184,-4.5776367e-05,-0.0002746582
2019-07-01T20:22:32.053Z,0.010917637,-0.012227916,0.99384576,0.23808289,-0.21702576,9.8033905,2.9434204,-15.750122,-37.786865,0.23908724,-0.21489505,9.80138,-8.444488e-05,-0.0016204715,0.0008020401,-7.6293945e-05,-4.5776367e-05,-0.0001373291
2019-07-01T20:22:32.248Z,0.01089053,-0.012272572,0.99385357,0.237854,-0.2141571,9.8033905,3.42865,-15.565491,-38.60016,0.23863883,-0.2158413,9.80137,-0.0010769367,-0.0016293526,0.000538826,-1.5258789e-05,-4.5776367e-05,-0.0002593994
2019-07-01T20:22:32.452Z,0.010868356,-0.012233065,0.9938587,0.237854,-0.21343994,9.801483,2.1194458,-16.015625,-38.790894,0.23811324,-0.21512859,9.801398,-0.0012602955,0.0014804304,-0.0006055832,0.00010681152,1.5258789e-05,-0.0001373291
2019-07-01T20:22:32.652Z,0.010881126,-0.012210825,0.993855,0.23808289,-0.21536255,9.803146,3.6758423,-15.55481,-37.928772,0.23832197,-0.21465933,9.801403,0.00044709444,0.0005301386,-0.00072193146,4.5776367e-05,-4.5776367e-05,-7.6293945e-05
2019-07-01T20:22:32.856Z,0.0108753,-0.012214153,0.99385655,0.23857117,-0.21583557,9.803635,2.3635864,-16.001892,-38.34381,0.23821253,-0.21474011,9.801405,-0.00016258657,-0.00034861267,0.00015735626,-1.5258789e-05,0.0001373291,4.5776367e-05
2019-07-01T20:22:33.056Z,0.010877454,-0.012229703,0.99385625,0.23808289,-0.21463013,9.801956,2.2705078,-16.452026,-37.599182,0.23828803,-0.21503834,9.801396,0.0004736632,-0.0007626265,0.00041675568,0.00016784668,1.5258789e-05,0.00010681152
2019-07-01T20:22:33.260Z,0.0108734025,-0.01222339,0.9938572,0.24023438,-0.21559143,9.801239,2.3895264,-15.644836,-37.216187,0.2381939,-0.21492583,9.801401,0.000101044774,-0.00016364455,-0.0005207062,0.00035095215,0.0001373291,0.0002746582
2019-07-01T20:22:33.463Z,0.010901534,-0.01219497,0.9938494,0.23760986,-0.21607971,9.804596,2.697754,-15.760803,-38.459778,0.23869665,-0.2142943,9.801402,0.001286447,-0.0003157109,-0.0008392334,0.00016784668,-0.00010681152,4.5776367e-05
2019-07-01T20:22:33.666Z,0.010881424,-0.012218691,0.99385506,0.23976135,-0.21702576,9.801956,2.4536133,-15.853882,-38.01422,0.23834436,-0.21481232,9.801399,-0.00125961,-0.0012342036,0.0011930466,0.00010681152,-4.5776367e-05,-0.0002593994
2019-07-01T20:22:33.872Z,0.0109104235,-0.01226906,0.9938483,0.24047852,-0.21511841,9.8029175,3.6941528,-15.1901245,-37.78076,0.23902905,-0.21571898,9.801363,0.0011712611,-0.0022373497,-0.00031471252,4.5776367e-05,-0.00010681152,-7.6293945e-05
2019-07-01T20:22:34.070Z,0.010941325,-0.012231287,0.99383956,0.23832703,-0.21583557,9.803879,2.380371,-15.635681,-38.27057,0.23956761,-0.214897,9.801368,0.0011255145,0.001239419,-0.00037670135,-7.6293945e-05,0.0001373291,-0.0002746582
2019-07-01T20:22:34.275Z,0.010909349,-0.012250361,0.99384826,0.23976135,-0.21536255,9.800766,2.1530151,-15.286255,-38.719177,0.2389685,-0.21535628,9.801373,-0.0006815344,-0.0009162426,0.00086402893,0.00010681152,0.00019836426,-0.00045776367
2019-07-01T20:22:34.479Z,0.010913158,-0.012263716,0.9938475,0.23857117,-0.21463013,9.8029175,2.999878,-16.255188,-38.04474,0.23907252,-0.2156071,9.801364,0.00043606758,-0.00045105815,-0.0013484955,-7.6293945e-05,7.6293945e-05,-0.0001373291
2019-07-01T20:22:34.680Z,0.010894322,-0.012240673,0.993852,0.237854,-0.2172699,9.8022,3.022766,-15.818787,-37.50305,0.23864798,-0.21520737,9.801383,-0.000102996826,0.00082974136,0.00021457672,-1.5258789e-05,0.0002593994,-0.0002593994
2019-07-01T20:22:34.876Z,0.010851065,-0.012253775,0.9938636,0.23736572,-0.21368408,9.801712,3.2028198,-15.216064,-38.671875,0.23781095,-0.2155801,9.801396,-0.0007018745,-0.00094747543,0.0001335144,0.00016784668,0.0001373291,-0.00019836426
2019-07-01T20:22:35.083Z,0.010845315,-0.012229626,0.99386466,0.23760986,-0.21679688,9.802444,2.3757935,-15.859985,-37.63733,0.23764567,-0.2151234,9.801411,0.00041627884,0.0004969835,-0.0005617142,-0.0001373291,-9.1552734e-05,-0.00019836426
2019-07-01T20:22:35.288Z,0.010847938,-0.012254458,0.99386436,0.2359314,-0.21368408,9.801956,3.9215088,-15.313721,-38.568115,0.23774987,-0.21560185,9.801396,-0.00040261447,-0.00021699071,-0.00020122528,4.5776367e-05,1.5258789e-05,-0.00032043457
2019-07-01T20:22:35.497Z,0.01083524,-0.012228523,0.9938673,0.2400055,-0.21440125,9.800049,2.9281616,-15.884399,-39.17389,0.23744202,-0.21512894,9.8014145,-0.0005696714,0.00074613094,0.00018978119,4.5776367e-05,1.5258789e-05,-7.6293945e-05
2019-07-01T20:22:35.696Z,0.010869925,-0.012226506,0.99385816,0.23736572,-0.21655273,9.800522,2.11792,-16.166687,-38.217163,0.23813091,-0.21499611,9.801401,0.0013873428,0.00012090802,-0.0017976761,4.5776367e-05,7.6293945e-05,-0.00039672852
2019-07-01T20:22:35.897Z,0.010850894,-0.01223825,0.99386334,0.237854,-0.21487427,9.804825,2.7740479,-15.827942,-38.40027,0.23777513,-0.21527699,9.801403,-0.0004210025,-0.00079220533,0.0010356903,0.00016784668,-4.5776367e-05,-1.5258789e-05
2019-07-01T20:22:36.100Z,0.0108526405,-0.012220017,0.99386257,0.23951721,-0.21463013,9.804108,2.4169922,-14.909363,-37.820435,0.23777197,-0.21491577,9.801411,-0.00018000603,5.7667494e-05,0.0005245209,4.5776367e-05,7.6293945e-05,-0.0002593994
2019-07-01T20:22:36.301Z,0.01088138,-0.012206513,0.9938549,0.23713684,-0.21583557,9.802429,2.960205,-15.232849,-38.438416,0.23831809,-0.21457435,9.801406,0.00093230605,0.00020727515,0.0016298294,0.00022888184,-4.5776367e-05,-0.00039672852
2019-07-01T20:22:36.498Z,0.01089685,-0.012221052,0.99385107,0.2400055,-0.21440125,9.804825,3.17688,-15.87677,-38.275146,0.23865753,-0.2148169,9.801392,0.00083364546,-0.00027808547,-0.0005054474,-7.6293945e-05,7.6293945e-05,-0.00019836426
2019-07-01T20:22:36.699Z,0.010904985,-0.012222401,0.9938489,0.23880005,-0.21702576,9.801712,3.3615112,-15.203857,-38.97705,0.2388229,-0.21482134,9.801388,0.00089105964,0.00023384392,0.0017366409,4.5776367e-05,0.0001373291,4.5776367e-05
2019-07-01T20:22:36.915Z,0.010885564,-0.012246764,0.9938544,0.23736572,-0.21559143,9.8022,3.4957886,-15.777588,-38.798523,0.23848572,-0.21535009,9.801385,5.8621168e-05,-0.001422584,-0.0017204285,0.00022888184,0.00019836426,-0.0001373291
2019-07-01T20:22:37.110Z,0.010865276,-0.012253272,0.9938598,0.23736572,-0.21487427,9.8033905,2.4642944,-15.632629,-38.04474,0.2380939,-0.215532,9.801391,-0.00074884295,-0.0012461841,-0.0005130768,4.5776367e-05,-4.5776367e-05,-0.00019836426
2019-07-01T20:22:37.311Z,0.010866147,-0.012229718,0.99385923,0.2400055,-0.21534729,9.800522,3.17688,-15.800476,-38.63678,0.2380621,-0.21506909,9.8014,-0.00023971498,0.0009405464,0.0009317398,-0.00019836426,-4.5776367e-05,4.5776367e-05
2019-07-01T20:22:37.518Z,0.010887399,-0.012250347,0.993854,0.23880005,-0.2182312,9.8022,2.3010254,-15.794373,-37.61902,0.23852985,-0.21541516,9.801381,0.0012093186,8.790195e-05,-0.0008096695,0.00016784668,7.6293945e-05,-0.00019836426
2019-07-01T20:22:37.716Z,0.010894383,-0.012291532,0.99385285,0.23976135,-0.2131958,9.8022,2.4765015,-15.339661,-38.363647,0.23875543,-0.21620162,9.801359,0.0007376224,-0.0022365898,9.441376e-05,0.00016784668,7.6293945e-05,-1.5258789e-05
2019-07-01T20:22:37.921Z,0.010897219,-0.012225623,0.993851,0.23736572,-0.21440125,9.8033905,2.6275635,-15.699768,-37.460327,0.23867446,-0.21490529,9.80139,-0.000119805336,0.0017243475,-0.00058460236,0.00010681152,1.5258789e-05,-0.00019836426
2019-07-01T20:22:38.120Z,0.010877794,-0.012222329,0.9938561,0.23928833,-0.21917725,9.8022,3.288269,-15.2908325,-37.557983,0.23827945,-0.21489327,9.8014,-0.00094647706,-0.00019559264,0.0013599396,-7.6293945e-05,-4.5776367e-05,-3.0517578e-05
2019-07-01T20:22:38.319Z,0.01089872,-0.01228658,0.99385166,0.23880005,-0.2141571,9.800522,2.6062012,-16.134644,-37.927246,0.23883173,-0.2160931,9.801359,0.0013772398,-0.0020998716,-0.0006904602,-1.5258789e-05,0.0001373291,-1.5258789e-05
2019-07-01T20:22:38.519Z,0.010893114,-0.012254219,0.99385256,0.24047852,-0.21607971,9.801712,2.6260376,-15.698242,-37.687683,0.23865214,-0.21547545,9.801377,-9.073317e-05,0.0013271421,-0.0012559891,0.00010681152,1.5258789e-05,-1.5258789e-05
2019-07-01T20:22:38.741Z,0.010913111,-0.012268081,0.99384755,0.23904419,-0.21774292,9.804596,2.5268555,-15.992737,-38.121033,0.23908071,-0.21569258,9.801362,0.0011418909,-0.0010937005,0.000111579895,0.00022888184,-0.00010681152,-3.0517578e-05
2019-07-01T20:22:38.935Z,0.010923144,-0.012259603,0.9938448,0.23904419,-0.21391296,9.801712,2.1209717,-15.940857,-38.92517,0.2392635,-0.21549973,9.801362,-7.4356794e-06,-0.00053565204,0.0016679764,0.00016784668,1.5258789e-05,-0.0001373291
2019-07-01T20:22:39.140Z,0.010913932,-0.012264958,0.9938473,0.23904419,-0.21702576,9.803162,2.6779175,-16.278076,-37.88452,0.2390906,-0.21562931,9.801364,-0.0003131032,-0.00065895915,-0.00080394745,4.5776367e-05,-4.5776367e-05,-0.0001373291
2019-07-01T20:22:39.342Z,0.010916013,-0.012256613,0.99384665,0.23880005,-0.21751404,9.800522,2.2888184,-15.936279,-38.175964,0.23911476,-0.21546054,9.801367,-0.00034809113,-0.000100791454,0.0008993149,-7.6293945e-05,-4.5776367e-05,9.1552734e-05
2019-07-01T20:22:39.547Z,0.010913784,-0.012300753,0.99384797,0.24047852,-0.21702576,9.800995,3.9047241,-15.829468,-37.91809,0.23916239,-0.21632959,9.801346,0.00011393428,-0.0014024675,-0.001789093,0.00010681152,1.5258789e-05,-0.00015258789
2019-07-01T20:22:39.750Z,0.010928683,-0.012323753,0.99384445,0.23951721,-0.21607971,9.800049,2.1392822,-15.652466,-38.264465,0.23950821,-0.21673909,9.801329,0.00048966706,-0.0012410879,-0.0004014969,4.5776367e-05,1.5258789e-05,-0.00019836426
2019-07-01T20:22:39.955Z,0.010934477,-0.012306258,0.9938426,0.23760986,-0.21536255,9.802673,2.1575928,-15.367126,-37.677002,0.23958747,-0.2163814,9.801335,0.00017938018,0.0007849932,-0.0010614395,-7.6293945e-05,7.6293945e-05,-7.6293945e-05
2019-07-01T20:22:40.159Z,0.010899008,-0.012280183,0.9938515,0.23808289,-0.21511841,9.800049,3.3050537,-14.775085,-38.13324,0.23882414,-0.21596724,9.801362,-0.0012188554,0.001097098,0.0008792877,4.5776367e-05,-0.00010681152,-0.00019836426
2019-07-01T20:22:40.358Z,0.01089336,-0.012253778,0.9938525,0.23641968,-0.21606445,9.799332,2.7664185,-15.821838,-39.305115,0.23865615,-0.2154662,9.801378,-0.0007959455,0.0008152127,-0.0008459091,4.5776367e-05,1.5258789e-05,-0.0002746582
2019-07-01T20:22:40.561Z,0.010855074,-0.012264777,0.9938627,0.23857117,-0.21343994,9.800522,2.6428223,-15.333557,-37.765503,0.23791401,-0.2157844,9.801389,-0.0012406409,-0.0007908344,-0.0015239716,-1.5258789e-05,7.6293945e-05,-7.6293945e-05
2019-07-01T20:22:40.763Z,0.010868941,-0.012231864,0.9938585,0.23832703,-0.2163086,9.799088,3.0517578,-15.086365,-38.035583,0.23812243,-0.21510352,9.801398,0.00046867132,0.0011572838,0.00041675568,-1.5258789e-05,7.6293945e-05,-0.00039672852
2019-07-01T20:22:40.962Z,0.010856385,-0.012239702,0.9938619,0.2409668,-0.21583557,9.801483,2.494812,-15.055847,-37.173462,0.23788789,-0.21529059,9.8014,4.4703484e-08,-8.739531e-05,-0.0011587143,-7.6293945e-05,1.5258789e-05,-0.0001373291
2019-07-01T20:22:41.257Z,0.010920286,-0.012258055,0.9938455,0.2400055,-0.21511841,9.804352,3.1326294,-16.519165,-40.367126,0.23920314,-0.21547718,9.801364,0.0024923086,-0.00059762597,0.00178051,0.00016784668,0.00019836426,-0.00019836426
2019-07-01T20:22:41.462Z,0.01091977,-0.012259604,0.9938457,0.23953247,-0.21463013,9.801712,4.5455933,-15.325928,-41.012573,0.23919609,-0.2155089,9.801364,0.001023367,-0.0003132373,0.0021333694,4.5776367e-05,-4.5776367e-05,-0.0001373291
2019-07-01T20:22:41.577Z,0.010924901,-0.012213513,0.9938436,0.23951721,-0.2141571,9.803162,2.8289795,-16.40625,-38.597107,0.23920229,-0.21459384,9.801384,-0.00017240644,0.0014108717,-1.335144e-05,0.00022888184,7.6293945e-05,-0.00019836426
2019-07-01T20:22:41.781Z,0.010924832,-0.0122184735,0.9938437,0.237854,-0.21583557,9.801239,2.885437,-15.092468,-38.708496,0.23921129,-0.21469103,9.801382,0.00028766692,-0.0008840114,0.00029945374,4.5776367e-05,7.6293945e-05,-0.00032043457
2019-07-01T20:22:41.983Z,0.010905417,-0.0122200325,0.9938488,0.2400055,-0.21655273,9.800278,3.0975342,-15.731812,-38.69629,0.23882659,-0.21477386,9.801389,-0.00074869394,-9.5918775e-05,-0.0010719299,-1.5258789e-05,-4.5776367e-05,-0.00019836426
2019-07-01T20:22:42.188Z,0.010914455,-0.012244271,0.99384683,0.23904419,-0.2172699,9.804108,2.8686523,-15.682983,-37.61902,0.23905784,-0.21522342,9.8013735,0.00047783554,-0.0015610904,-0.0007200241,0.00016784668,1.5258789e-05,-0.0001373291
2019-07-01T20:22:42.393Z,0.010919869,-0.012283751,0.99384606,0.24095154,-0.21272278,9.804825,2.2216797,-15.57312,-38.55133,0.23924848,-0.21598074,9.801352,0.0004903078,-0.0012687892,0.0020751953,-1.5258789e-05,0.0001373291,-0.0001373291
2019-07-01T20:22:42.589Z,0.010944854,-0.012223293,0.99383855,0.23904419,-0.2141571,9.800278,3.9001465,-15.826416,-38.44452,0.23962142,-0.21473119,9.801371,0.0010600239,0.0018012077,0.0015392303,0.00016784668,-0.00015258789,-0.0001373291
2019-07-01T20:22:42.792Z,0.010959092,-0.012227421,0.99383485,0.23760986,-0.21583557,9.805786,3.0532837,-15.086365,-37.73346,0.23991454,-0.21477343,9.801362,0.000526309,-0.0010284334,0.0012073517,-1.5258789e-05,-0.00010681152,-0.0002593994
2019-07-01T20:22:42.991Z,0.010919005,-0.012223243,0.9938453,0.24023438,-0.21487427,9.8029175,2.9434204,-15.673828,-38.224792,0.23910479,-0.21479997,9.801381,-0.0017879754,-0.0005033761,0.0009660721,4.5776367e-05,0.0001373291,0.00010681152
2019-07-01T20:22:43.193Z,0.010914295,-0.01224424,0.9938469,0.23713684,-0.21702576,9.8022,2.7175903,-15.248108,-38.734436,0.23905458,-0.21522325,9.8013735,0.00018261373,-0.00081041455,0.00016403198,-1.5258789e-05,-0.0002746582,-0.00015258789
2019-07-01T20:22:43.396Z,0.010893372,-0.012268855,0.99385273,0.23880005,-0.21583557,9.802673,3.4210205,-15.710449,-38.705444,0.23868787,-0.21576096,9.801371,-0.0011148602,-0.0007584393,-0.001156807,4.5776367e-05,0.0001373291,-0.00019836426
2019-07-01T20:22:43.597Z,0.010906375,-0.012264003,0.9938493,0.23904419,-0.21534729,9.8022,3.2241821,-14.854431,-38.069153,0.23893757,-0.21563101,9.801367,0.00054231286,-0.00017087162,1.9073486e-05,-1.5258789e-05,7.6293945e-05,-0.00019836426
2019-07-01T20:22:43.803Z,0.010895618,-0.012258251,0.99385196,0.237854,-0.21607971,9.803146,3.7857056,-14.813232,-38.386536,0.23871061,-0.21554756,9.801374,-0.0006571561,0.00022685528,-0.000626564,0.00016784668,-0.0002746582,-1.5258789e-05
2019-07-01T20:22:44.006Z,0.010898468,-0.012251301,0.9938511,0.23808289,-0.2172699,9.801956,3.0395508,-15.377808,-37.942505,0.23875307,-0.21540399,9.801377,-0.00047175586,-0.00039033592,0.0013418198,4.5776367e-05,0.0001373291,-1.5258789e-05
2019-07-01T20:22:44.211Z,0.010860185,-0.012282981,0.9938617,0.23951721,-0.21487427,9.801483,2.4505615,-15.85083,-38.391113,0.23805414,-0.21612658,9.801378,-0.00046409667,-0.0013542175,-0.0021448135,-1.5258789e-05,7.6293945e-05,-0.0002746582
2019-07-01T20:22:44.411Z,0.010897346,-0.012255088,0.9938515,0.23760986,-0.2131958,9.8022,2.1255493,-16.174316,-37.236023,0.23873854,-0.21548107,9.801375,0.0012449771,0.0010996759,0.000166893,4.5776367e-05,7.6293945e-05,-0.0001373291
2019-07-01T20:22:44.611Z,0.010889259,-0.01222006,0.99385303,0.23832703,-0.21678162,9.801727,3.4942627,-15.92865,-38.1485,0.23850378,-0.21481797,9.801395,5.0395727e-05,0.0011492074,-0.0003824234,0.00010681152,-4.5776367e-05,-0.0001373291
2019-07-01T20:22:44.816Z,0.010878723,-0.01223271,0.993856,0.23928833,-0.21368408,9.799805,2.5741577,-15.124512,-37.117004,0.23831965,-0.21509369,9.8013935,-0.0009679049,-0.00072927773,-0.0002412796,0.00010681152,1.5258789e-05,0.000289917
2019-07-01T20:22:45.014Z,0.010876227,-0.01221422,0.9938563,0.23904419,-0.2172699,9.80101,2.999878,-14.508057,-37.461853,0.2382312,-0.2147389,9.801404,0.00033965707,0.00033795834,-0.001124382,-7.6293945e-05,7.6293945e-05,-1.5258789e-05
2019-07-01T20:22:45.215Z,0.010903847,-0.012262354,0.99384993,0.23808289,-0.21846008,9.802444,2.987671,-14.72168,-38.183594,0.23888361,-0.21560559,9.801369,0.0015969723,-0.0016661733,-0.00027370453,0.00016784668,7.6293945e-05,4.5776367e-05
2019-07-01T20:22:45.422Z,0.010857811,-0.0123017365,0.99386257,0.23880005,-0.21702576,9.8022,1.7379761,-15.6814575,-38.102722,0.23804583,-0.21649967,9.80137,-0.0016237795,-0.002206698,-3.33786e-05,0.00010681152,1.5258789e-05,-0.00019836426
2019-07-01T20:22:45.629Z,0.010896426,-0.012308512,0.9938526,0.23808289,-0.21487427,9.802429,2.8182983,-14.877319,-38.2843,0.23883168,-0.2165281,9.80135,0.001639083,-0.00073474646,0.0007762909,-1.5258789e-05,7.6293945e-05,0.00010681152
2019-07-01T20:22:45.831Z,0.010869889,-0.012273136,0.99385893,0.2400055,-0.21583557,9.8033905,3.1967163,-15.513611,-37.825012,0.23822753,-0.21590796,9.801379,-0.0006387085,0.0015257746,0.0011463165,4.5776367e-05,-4.5776367e-05,0.00015258789
2019-07-01T20:22:46.032Z,0.010898101,-0.012263664,0.9938514,0.2368927,-0.2131958,9.802429,2.8564453,-15.901184,-37.81433,0.23877156,-0.21564671,9.801372,0.0007111877,0.00033056736,0.0010919571,4.5776367e-05,-4.5776367e-05,4.5776367e-05
2019-07-01T20:22:46.235Z,0.010880611,-0.012233158,0.9938555,0.2368927,-0.21655273,9.800522,2.6870728,-15.98053,-38.352966,0.23835835,-0.21509738,9.8013935,-0.001015991,0.0007172227,-0.00087070465,-1.5258789e-05,7.6293945e-05,-1.5258789e-05
2019-07-01T20:22:46.439Z,0.010841996,-0.012249806,0.99386585,0.23808289,-0.2163086,9.802673,2.29187,-16.166687,-36.634827,0.23762146,-0.2155269,9.801402,-0.0009812415,-0.0005452484,-0.0012235641,-1.5258789e-05,0.0001373291,-0.0001373291
2019-07-01T20:22:46.643Z,0.010852227,-0.012252696,0.9938632,0.23760986,-0.21606445,9.799561,2.645874,-15.185547,-38.113403,0.2378319,-0.21555585,9.801395,0.00071920455,-0.0005056858,0.0009393692,4.5776367e-05,-4.5776367e-05,-0.00019836426
2019-07-01T20:22:46.843Z,0.010837733,-0.012249433,0.993867,0.23760986,-0.21296692,9.804596,3.8528442,-15.332031,-36.83319,0.23753546,-0.2155311,9.801404,-0.0006237328,0.00016652048,-0.003209114,-7.6293945e-05,7.6293945e-05,0.00010681152
2019-07-01T20:22:47.051Z,0.010838223,-0.012225089,0.99386644,0.24047852,-0.21368408,9.800278,2.9464722,-15.675354,-37.8479,0.23749448,-0.21505377,9.801415,8.329749e-05,0.0013987273,0.004252434,-7.6293945e-05,7.6293945e-05,-0.0001373291
2019-07-01T20:22:47.253Z,0.01086793,-0.012218934,0.9938586,0.237854,-0.21463013,9.803162,2.0233154,-14.868164,-37.1933,0.23807524,-0.21485342,9.801405,0.0016658008,0.0007146448,-0.0010023117,0.00016784668,-0.00010681152,4.5776367e-05
2019-07-01T20:22:47.453Z,0.010881265,-0.012193629,0.9938547,0.23928833,-0.21583557,9.8022,3.3538818,-15.501404,-38.206482,0.23828888,-0.21432275,9.801413,1.8253922e-05,0.0001835376,-3.0517578e-05,4.5776367e-05,7.6293945e-05,-7.6293945e-05
2019-07-01T20:22:47.651Z,0.010889764,-0.012229462,0.99385303,0.23736572,-0.21679688,9.801239,2.885437,-15.318298,-37.547302,0.2385335,-0.21500045,9.801391,0.0007443726,-0.0012987107,-0.00082588196,4.5776367e-05,0.0001373291,-0.0001373291
2019-07-01T20:22:47.862Z,0.010861448,-0.012228298,0.9938604,0.23976135,-0.21511841,9.801239,2.9144287,-14.660645,-37.41455,0.23796526,-0.21505398,9.801403,-0.0003668815,-0.0007712096,7.915497e-05,0.00016784668,0.00019836426,-0.0001373291
2019-07-01T20:22:48.064Z,0.010881964,-0.012237211,0.99385524,0.23880005,-0.21846008,9.803146,2.6535034,-15.040588,-37.85553,0.23839384,-0.21517298,9.801391,0.0013626069,-0.0008870512,-0.0005970001,0.00035095215,1.5258789e-05,-0.0001373291
2019-07-01T20:22:48.267Z,0.010884319,-0.012269557,0.9938551,0.23664856,-0.21368408,9.799576,3.8864136,-16.117859,-38.65509,0.23850843,-0.21579911,9.801374,4.8533082e-05,-0.0021751076,0.0007162094,-7.6293945e-05,7.6293945e-05,-0.00019836426
2019-07-01T20:22:48.469Z,0.0108636785,-0.012243968,0.9938601,0.24072266,-0.2172699,9.801239,1.8997192,-15.74707,-37.591553,0.23804255,-0.21535438,9.801395,-0.00043287873,0.001441583,-0.0011100769,-7.6293945e-05,7.6293945e-05,9.1552734e-05
2019-07-01T20:22:48.667Z,0.010909356,-0.01226811,0.99384856,0.24023438,-0.21655273,9.8022,2.8549194,-16.052246,-37.2406,0.23900573,-0.21570328,9.801364,0.0017269552,-0.0008585155,-0.0009031296,0.00010681152,-0.00021362305,4.5776367e-05
2019-07-01T20:22:48.877Z,0.010937445,-0.012291305,0.9938416,0.23976135,-0.21702576,9.801712,2.56958,-15.270996,-37.071228,0.2396155,-0.216081,9.80134,0.0008544475,-0.0014253259,0.0014715195,0.00016784668,1.5258789e-05,-7.6293945e-05
2019-07-01T20:22:49.078Z,0.010934935,-0.012291334,0.99384224,0.23736572,-0.21391296,9.801483,3.0944824,-15.881348,-38.198853,0.2395654,-0.21608832,9.801341,-5.8978796e-05,-0.00045466423,0.00017356873,-1.5258789e-05,1.5258789e-05,-0.0002746582
2019-07-01T20:22:49.329Z,0.010892781,-0.012261495,0.9938528,0.24047852,-0.21391296,9.801727,2.481079,-15.345764,-37.609863,0.23866071,-0.21561864,9.801374,0.0006147325,-0.0002052635,0.00029563904,-0.0001373291,7.6293945e-05,-0.0002593994
2019-07-01T20:22:49.520Z,0.010915153,-0.012252117,0.9938468,0.23904419,-0.2172699,9.802444,2.2338867,-15.431213,-37.77008,0.23908815,-0.21537492,9.801369,0.0009019375,0.0007586777,0.00019931793,0.00010681152,7.6293945e-05,-1.5258789e-05
2019-07-01T20:22:49.721Z,0.010900327,-0.012254221,0.9938507,0.237854,-0.21583557,9.805542,2.3849487,-15.489197,-38.46588,0.23879632,-0.2154561,9.801375,-2.3007393e-05,-0.0005842298,0.00091838837,4.5776367e-05,0.0001373291,0.00010681152
2019-07-01T20:22:49.924Z,0.010876548,-0.012269761,0.99385715,0.23832703,-0.21774292,9.8022,3.3660889,-16.725159,-39.967346,0.23835355,-0.21582402,9.801377,-0.00031463802,-0.0009330362,0.0014104843,-7.6293945e-05,0.0001373291,3.0517578e-05
2019-07-01T20:22:50.119Z,0.010879904,-0.012299393,0.9938568,0.24047852,-0.21559143,9.805786,3.201294,-15.138245,-39.183044,0.23848248,-0.21639436,9.801362,0.00076936185,-0.001071319,-0.0006608963,4.5776367e-05,7.6293945e-05,-0.00019836426
2019-07-01T20:22:50.352Z,0.0108948415,-0.0122991055,0.99385285,0.23928833,-0.21702576,9.800278,2.6611328,-16.412354,-39.346313,0.23878042,-0.21634848,9.801356,0.00092050433,0.0003235191,0.001950264,-1.5258789e-05,1.5258789e-05,-7.6293945e-05
2019-07-01T20:22:50.549Z,0.010892007,-0.012291376,0.99385345,0.23928833,-0.21606445,9.802673,3.4561157,-14.904785,-38.8443,0.23870757,-0.21620494,9.801359,-0.00016406178,-7.8603625e-05,-0.002691269,4.5776367e-05,1.5258789e-05,-0.0001373291
2019-07-01T20:22:50.751Z,0.010928474,-0.012286289,0.99384385,0.23904419,-0.21463013,9.803162,3.2440186,-15.934753,-39.4989,0.2394258,-0.21600714,9.801348,0.0010212809,0.00019992888,0.00028324127,-1.5258789e-05,-4.5776367e-05,0.00016784668
2019-07-01T20:22:50.949Z,0.010920612,-0.012278354,0.99384576,0.2400055,-0.21751404,9.805313,2.8656006,-15.603638,-38.2843,0.23925208,-0.21587321,9.801354,-0.00025112927,0.0003207922,0.0009822845,0.00010681152,1.5258789e-05,4.5776367e-05
2019-07-01T20:22:51.159Z,0.010921828,-0.01229052,0.99384564,0.23857117,-0.2131958,9.8022,3.2348633,-16.2323,-38.95569,0.2393018,-0.2161078,9.801348,0.0004119128,-0.00064605474,0.00033569336,-1.5258789e-05,-4.5776367e-05,-7.6293945e-05
2019-07-01T20:22:51.355Z,0.010912126,-0.012251989,0.99384755,0.23976135,-0.21678162,9.806503,2.8640747,-15.756226,-37.78534,0.23902741,-0.21538061,9.801371,-0.0007442683,0.0015071929,-0.0002527237,0.00016784668,7.6293945e-05,4.5776367e-05
2019-07-01T20:22:51.577Z,0.010924279,-0.012260662,0.9938445,0.23736572,-0.21679688,9.801483,2.3345947,-16.581726,-38.989258,0.23928839,-0.2155174,9.801361,0.00064368546,-0.0009692013,0.0023794174,-1.5258789e-05,-4.5776367e-05,-7.6293945e-05
2019-07-01T20:22:51.761Z,0.010886801,-0.012269907,0.99385446,0.23951721,-0.21606445,9.8022,2.9678345,-15.011597,-38.619995,0.23855875,-0.21579923,9.801373,-0.0014675856,-0.00046807528,-0.0022382736,0.00010681152,1.5258789e-05,-0.0002593994
2019-07-01T20:22:51.965Z,0.010912944,-0.01227886,0.9938478,0.23808289,-0.21678162,9.8029175,3.35083,-15.649414,-37.85858,0.23909988,-0.2159038,9.801357,0.0011006445,-0.0006183684,-0.0010175705,-1.5258789e-05,1.5258789e-05,4.5776367e-05
2019-07-01T20:22:52.170Z,0.010887411,-0.012266182,0.9938543,0.24095154,-0.21487427,9.801483,1.6265869,-16.345215,-38.233948,0.23856318,-0.21572477,9.801374,-0.0012360215,0.00041235983,0.00043201447,-7.6293945e-05,9.1552734e-05,-0.0001373291
2019-07-01T20:22:52.368Z,0.010927474,-0.012286432,0.99384415,0.23880005,-0.21606445,9.804596,2.9510498,-15.376282,-38.694763,0.2394061,-0.21601264,9.801348,0.0020063668,-0.00027127564,-0.0009841919,-7.6293945e-05,0.0001373291,-1.5258789e-05
2019-07-01T20:22:52.572Z,0.010904718,-0.012275687,0.9938499,0.23880005,-0.21774292,9.801483,2.6123047,-15.838623,-38.62152,0.23892887,-0.21586394,9.801362,-0.00040204823,0.00031258166,0.0014152527,4.5776367e-05,-0.00010681152,-0.0001373291
2019-07-01T20:22:52.771Z,0.010908494,-0.012313325,0.9938495,0.23857117,-0.21846008,9.803879,3.4454346,-16.720581,-39.968872,0.23908295,-0.21658969,9.801343,-0.00031378865,-0.0013693869,-0.0011262894,-1.5258789e-05,-0.00021362305,-1.5258789e-05
2019-07-01T20:22:52.982Z,0.010902573,-0.012332152,0.99385136,0.23808289,-0.21655273,9.801956,4.1625977,-15.220642,-39.315796,0.23900393,-0.21697375,9.801336,-0.00096413493,-0.0009741783,0.001004219,4.5776367e-05,-0.00010681152,-0.0001373291
2019-07-01T20:22:53.267Z,0.010895538,-0.012320551,0.99385303,0.23760986,-0.2141571,9.8022,3.4469604,-15.2786255,-37.86316,0.2388391,-0.21676591,9.801345,-0.0003015399,0.00024366379,-0.00076675415,0.00016784668,-4.5776367e-05,-1.5258789e-05
2019-07-01T20:22:53.472Z,0.010876624,-0.0122908335,0.9938575,0.23760986,-0.21702576,9.802673,2.772522,-15.826416,-38.627625,0.23839904,-0.21623582,9.801367,-0.0010621548,0.00042639673,-0.00035190582,0.00010681152,-0.00010681152,-7.6293945e-05
2019-07-01T20:22:53.677Z,0.010879465,-0.012276619,0.9938565,0.23832703,-0.21463013,9.803879,3.7857056,-16.409302,-39.54315,0.2384262,-0.21595025,9.8013735,-0.00037106872,0.00038394332,-6.9618225e-05,0.00010681152,-0.00010681152,-0.0002746582
2019-07-01T20:22:53.882Z,0.010875485,-0.012237269,0.9938569,0.23832703,-0.21368408,9.8033905,2.2033691,-15.859985,-39.215088,0.23826446,-0.21519157,9.801393,-0.00044691563,0.0005943775,0.00074100494,4.5776367e-05,7.6293945e-05,-0.0001373291
2019-07-01T20:22:53.993Z,0.010885574,-0.012208502,0.9938538,0.23713684,-0.21343994,9.803635,1.9714355,-15.505981,-39.888,0.23810904,-0.21549878,9.801391,-0.00054112077,-0.001733169,-0.00019931793,4.5776367e-05,0.00019836426,-0.0002746582
2019-07-01T20:22:54.186Z,0.010844976,-0.012209623,0.9938644,0.23976135,-0.21391296,9.803162,4.0252686,-14.871216,-38.33313,0.23759714,-0.21473318,9.801419,-0.00027303398,0.0018038899,2.5749207e-05,-1.5258789e-05,0.0001373291,-0.0001373291
2019-07-01T20:22:54.408Z,0.010883938,-0.012205259,0.99385417,0.2400055,-0.2172699,9.800049,2.4795532,-15.26947,-38.04779,0.23836654,-0.21454293,9.801405,0.0020657033,0.00018331409,0.0003271103,-1.5258789e-05,-0.00010681152,-0.00019836426
2019-07-01T20:22:54.599Z,0.010906068,-0.012247816,0.9938491,0.23832703,-0.21391296,9.804352,3.4439087,-15.274048,-38.391113,0.23889764,-0.21531536,9.801375,0.000595212,-0.0014595687,-0.0018529892,-1.5258789e-05,1.5258789e-05,-0.00032043457
2019-07-01T20:22:54.799Z,0.0108986925,-0.012214896,0.99385047,0.23832703,-0.21463013,9.8022,4.309082,-15.805054,-37.854004,0.23868151,-0.21469158,9.801394,-0.0003847927,0.0010347664,0.0005226135,0.00010681152,1.5258789e-05,-7.6293945e-05
2019-07-01T20:22:55.000Z,0.010909675,-0.012220258,0.99384767,0.24119568,-0.21678162,9.80101,3.4042358,-16.149902,-38.568115,0.23891214,-0.21476679,9.801387,-0.00013896823,-0.00032745302,-0.00028896332,-1.5258789e-05,-0.0002746582,-7.6293945e-05
2019-07-01T20:22:55.206Z,0.010936046,-0.012246834,0.99384123,0.23712158,-0.21607971,9.804108,2.0645142,-15.739441,-37.295532,0.2394946,-0.21521525,9.801362,0.0007225275,-0.00083370507,-0.00082969666,4.5776367e-05,0.0001373291,-0.0001373291
2019-07-01T20:22:55.411Z,0.010912358,-0.012270274,0.9938478,0.24047852,-0.21463013,9.803879,2.6916504,-15.908813,-38.11035,0.23907025,-0.2157375,9.801362,-0.00053295493,-0.0010287911,0.0013570786,-7.6293945e-05,0.0001373291,4.5776367e-05
2019-07-01T20:22:55.621Z,0.010909122,-0.012243266,0.9938482,0.23880005,-0.21296692,9.798126,2.4398804,-16.447449,-36.698914,0.23894918,-0.21521816,9.801376,0.0003002584,0.00062306225,0.00041866302,0.00022888184,0.0001373291,-1.5258789e-05
2019-07-01T20:22:55.819Z,0.010920574,-0.01219204,0.9938444,0.2400055,-0.21440125,9.803162,1.979065,-15.661621,-38.41095,0.23907094,-0.21418564,9.801395,0.0009313077,0.0017099082,-0.0029144287,4.5776367e-05,0.0001373291,-0.00039672852
2019-07-01T20:22:56.072Z,0.010912947,-0.01221058,0.99384665,0.23760986,-0.21511841,9.804596,2.7328491,-15.184021,-37.13684,0.23895732,-0.21456873,9.801391,0.0003103763,-0.0010041595,0.0013980865,4.5776367e-05,-0.00010681152,-1.5258789e-05
2019-07-01T20:22:56.270Z,0.010896181,-0.01220147,0.9938509,0.2400055,-0.21366882,9.799561,1.7578125,-15.319824,-37.576294,0.23860328,-0.21443585,9.801402,-0.0012711287,6.479025e-05,0.0010976791,-1.5258789e-05,7.6293945e-05,-7.6293945e-05
2019-07-01T20:22:56.473Z,0.010916467,-0.012188585,0.9938454,0.24143982,-0.21774292,9.803162,2.3849487,-15.565491,-38.02948,0.23898168,-0.21412918,9.801399,0.0012392551,0.00070127845,-0.0016727448,-1.5258789e-05,0.0001373291,-0.00019836426
2019-07-01T20:22:56.675Z,0.010959042,-0.012276617,0.9938357,0.24023438,-0.2141571,9.805069,3.37677,-14.990234,-37.95166,0.24001643,-0.2157355,9.801339,0.002590552,-0.003436312,0.0006389618,-1.5258789e-05,7.6293945e-05,-0.0002593994
2019-07-01T20:22:56.872Z,0.010942942,-0.012218579,0.99383897,0.23760986,-0.21272278,9.806274,4.2297363,-15.885925,-37.339783,0.23957336,-0.21464418,9.8013735,-0.0008122921,0.0024293363,0.0013837814,4.5776367e-05,-4.5776367e-05,-0.00032043457
2019-07-01T20:22:57.081Z,0.010926795,-0.012217974,0.9938432,0.23832703,-0.21774292,9.799088,2.6290894,-15.550232,-38.035583,0.23924945,-0.21467593,9.80138,-0.00045083463,-0.00019705296,-0.003068924,-1.5258789e-05,1.5258789e-05,-0.0002593994
2019-07-01T20:22:57.306Z,0.010913609,-0.012234859,0.9938469,0.23976135,-0.21321106,9.799805,1.6479492,-14.616394,-35.162354,0.23902126,-0.21504168,9.801378,-0.000978902,-0.000757426,0.0032186508,-1.5258789e-05,-0.00010681152,-7.6293945e-05
2019-07-01T20:22:57.497Z,0.010906586,-0.012210199,0.9938483,0.2416687,-0.21559143,9.803635,3.0319214,-15.673828,-37.397766,0.2388294,-0.21457843,9.801393,-0.0003130734,0.00047059357,0.0011968613,4.5776367e-05,0.00019836426,-1.5258789e-05
2019-07-01T20:22:57.691Z,0.010947988,-0.012226242,0.9938378,0.24263,-0.21487427,9.804108,3.1814575,-15.72876,-38.546753,0.2396902,-0.21478036,9.801367,0.002436474,-6.67572e-05,-0.002084732,0.00010681152,1.5258789e-05,-0.0001373291
2019-07-01T20:22:57.892Z,0.010977303,-0.0122121805,0.99382985,0.23736572,-0.21296692,9.8022,2.633667,-15.400696,-38.383484,0.24024652,-0.21442622,9.801361,0.0013928264,5.120039e-05,-0.00011539459,-1.5258789e-05,0.00019836426,-7.6293945e-05
2019-07-01T20:22:58.097Z,0.010953344,-0.0121963555,0.99383587,0.23928833,-0.21559143,9.801712,2.8579712,-15.901184,-37.66327,0.23973474,-0.21418157,9.80138,-0.00048413873,0.0005311817,0.0007123947,4.5776367e-05,-4.5776367e-05,-0.0001373291
2019-07-01T20:22:58.302Z,0.010932402,-0.012206282,0.9938415,0.237854,-0.21440125,9.8033905,3.1677246,-14.274597,-38.09967,0.23933703,-0.21443217,9.801383,-0.0010279864,-0.0004259795,-0.0015983582,-1.5258789e-05,0.0001373291,4.5776367e-05
2019-07-01T20:22:58.503Z,0.010907122,-0.0122266,0.99384844,0.237854,-0.21870422,9.802673,3.0654907,-14.866638,-37.68921,0.23887439,-0.21489769,9.801385,-0.00034320354,-0.0009019077,0.0017995834,-7.6293945e-05,1.5258789e-05,-1.5258789e-05
2019-07-01T20:22:58.705Z,0.010882756,-0.012280631,0.9938557,0.2400055,-0.2163086,9.803162,4.0283203,-15.104675,-36.567688,0.2385003,-0.21601982,9.80137,-0.0011700541,-0.0021792352,-0.00038337708,0.00016784668,-4.5776367e-05,-0.00019836426
2019-07-01T20:22:58.925Z,0.01089995,-0.012261777,0.9938509,0.23808289,-0.21678162,9.801239,2.130127,-15.950012,-37.794495,0.23880452,-0.21560481,9.801371,-0.0005155653,4.775822e-05,-1.6212463e-05,0.00010681152,7.6293945e-05,-0.0002593994
2019-07-01T20:22:59.119Z,0.010877297,-0.012247029,0.9938566,0.24168396,-0.21534729,9.801956,2.2125244,-15.869141,-37.93335,0.23832105,-0.2153775,9.801387,-0.000731349,4.8428774e-05,-0.0014505386,-7.6293945e-05,1.5258789e-05,-0.00019836426
2019-07-01T20:22:59.604Z,0.010947771,-0.012284696,0.9938388,0.24191284,-0.21917725,9.8029175,1.9226074,-15.237427,-37.416077,0.2398081,-0.2159239,9.80134,0.0027948916,-0.00036036968,0.00047397614,-0.0001373291,7.6293945e-05,-1.5258789e-05
2019-07-01T20:22:59.770Z,0.010931536,-0.01226286,0.99384266,0.237854,-0.21511841,9.801483,3.4179688,-15.936279,-37.84485,0.23943797,-0.21554077,9.801356,-0.0013902336,0.0018883348,0.00036525726,0.00022888184,1.5258789e-05,-1.5258789e-05
2019-07-01T20:23:00.360Z,0.01089692,-0.0122558875,0.9938516,0.23857117,-0.21702576,9.803635,1.7211914,-16.122437,-37.738037,0.23873171,-0.21549785,9.801375,-0.0011479706,-0.0005582869,-0.0007200241,4.5776367e-05,-4.5776367e-05,-0.00021362305
2019-07-01T20:23:00.363Z,0.010891476,-0.012260205,0.9938531,0.23928833,-0.2141571,9.80101,3.024292,-15.821838,-37.12616,0.23863192,-0.21559694,9.801375,-0.0003503114,4.6551228e-05,0.0015993118,-7.6293945e-05,1.5258789e-05,-0.00015258789
2019-07-01T20:23:00.378Z,0.010904577,-0.012243738,0.9938494,0.23760986,-0.21536255,9.799332,2.2521973,-15.220642,-36.595154,0.23885931,-0.21523963,9.801377,0.00042304397,0.00012660027,-0.0032520294,0.00016784668,1.5258789e-05,0.00016784668
2019-07-01T20:23:00.987Z,0.01088315,-0.0122402245,0.99385494,0.23857117,-0.21798706,9.800766,2.7069092,-15.6188965,-37.902832,0.23842381,-0.2152287,9.801389,-0.00081270933,0.00010916591,-0.0005712509,4.5776367e-05,1.5258789e-05,-0.0001373291
2019-07-01T20:23:00.990Z,0.010880554,-0.012279713,0.99385625,0.23951721,-0.21438599,9.800278,3.074646,-16.242981,-38.80005,0.23845439,-0.21600778,9.801371,0.00011834502,-0.0017365366,-6.771088e-05,-7.6293945e-05,-0.00010681152,4.5776367e-05
2019-07-01T20:23:00.997Z,0.010917,-0.012250336,0.9938463,0.23808289,-0.21511841,9.801483,2.7328491,-15.109253,-37.498474,0.23912136,-0.21533515,9.80137,0.0011268407,0.0016538501,-0.0009975433,-7.6293945e-05,0.0001373291,-0.00019836426
2019-07-01T20:23:01.185Z,0.010885937,-0.012263591,0.9938546,0.23928833,-0.21751404,9.803162,2.0065308,-15.385437,-36.465454,0.23852828,-0.21567807,9.801375,-0.0009060055,-0.00041286647,0.00012874603,4.5776367e-05,-0.00015258789,4.5776367e-05
2019-07-01T20:23:01.404Z,0.010907649,-0.012298057,0.9938495,0.2359314,-0.21534729,9.797653,2.4642944,-15.557861,-38.482666,0.23903418,-0.21629344,9.801351,0.00024357438,-0.0014398992,0.0018510818,-1.5258789e-05,-0.00015258789,0.00021362305
2019-07-01T20:23:01.614Z,0.010863797,-0.012262609,0.99386036,0.237854,-0.21606445,9.801483,1.826477,-15.608215,-37.335205,0.2380838,-0.21571851,9.801386,-0.0021266341,0.0010650307,-0.002916336,4.5776367e-05,7.6293945e-05,0.00033569336
2019-07-01T20:23:01.928Z,0.010856856,-0.012276906,0.99386245,0.23928833,-0.21463013,9.801239,2.2125244,-15.869141,-37.93335,0.23797491,-0.21601675,9.801382,-0.000110432506,-0.0005455017,0.001250267,-7.6293945e-05,-0.00010681152,9.1552734e-05
2019-07-01T20:23:02.001Z,0.010886045,-0.012263042,0.9938546,0.23808289,-0.21606445,9.800278,3.2745361,-15.583801,-37.5412,0.2385293,-0.21566702,9.801375,0.0005288571,0.0007801205,-0.00028038025,-1.5258789e-05,-0.00015258789,0.00010681152
2019-07-01T20:23:02.240Z,0.010904436,-0.01227816,0.99385,0.23857117,-0.2182312,9.800995,2.09198,-14.926147,-38.414,0.23892839,-0.21591306,9.801361,0.00061263144,-0.00017292798,-0.0008239746,-1.5258789e-05,-0.00010681152,4.5776367e-05
2019-07-01T20:23:02.449Z,0.010882549,-0.01230348,0.99385613,0.23664856,-0.2141571,9.799332,2.7282715,-15.182495,-37.66327,0.23854387,-0.21646714,9.801359,-0.0011632591,-0.0010604113,0.0007362366,-1.5258789e-05,1.5258789e-05,-1.5258789e-05
2019-07-01T20:23:02.657Z,0.010855494,-0.012257859,0.99386245,0.23736572,-0.21368408,9.799561,2.7282715,-15.107727,-38.02643,0.23790796,-0.215648,9.801392,-0.0012361854,0.0014698505,-0.0006303787,-7.6293945e-05,7.6293945e-05,4.5776367e-05
2019-07-01T20:23:02.811Z,0.010849742,-0.01222564,0.99386346,0.24023438,-0.21487427,9.8022,2.9769897,-15.020752,-37.33673,0.2377258,-0.21503353,9.80141,-0.0005543679,0.0013181716,-0.00089645386,0.00016784668,-0.00010681152,0.00016784668
2019-07-01T20:23:03.076Z,0.010890716,-0.01221713,0.9938526,0.23951721,-0.21511841,9.8022,2.053833,-14.215088,-36.683655,0.23852678,-0.21475676,9.801396,0.0017180443,-0.00012689829,0.001950264,-1.5258789e-05,-0.00010681152,4.5776367e-05
2019-07-01T20:23:03.217Z,0.010916942,-0.012215403,0.9938457,0.23880005,-0.2141571,9.801483,2.8198242,-14.880371,-38.05847,0.2390472,-0.21465226,9.801386,0.0004723519,0.0004930347,0.00066661835,4.5776367e-05,-0.00010681152,-1.5258789e-05
2019-07-01T20:23:03.493Z,0.010917687,-0.012224585,0.99384564,0.23736572,-0.21846008,9.800049,3.1845093,-15.655518,-38.607788,0.23908126,-0.21482977,9.801381,-0.00075142086,-0.0002911538,-2.670288e-05,4.5776367e-05,-0.00033569336,0.00010681152
2019-07-01T20:23:03.670Z,0.0109028015,-0.012269855,0.9938503,0.23808289,-0.21583557,9.8029175,3.0151367,-15.887451,-38.197327,0.23887841,-0.21575509,9.801367,-0.0010100156,-0.0020008385,-0.00097084045,-1.5258789e-05,7.6293945e-05,-7.6293945e-05
2019-07-01T20:23:03.911Z,0.010875764,-0.012266624,0.9938573,0.237854,-0.21559143,9.797653,2.1896362,-16.305542,-38.47351,0.23833135,-0.21576479,9.801379,-0.00095021725,0.00015939772,0.0012111664,-1.5258789e-05,7.6293945e-05,0.00010681152
2019-07-01T20:23:04.030Z,0.010868389,-0.012264887,0.99385923,0.23928833,-0.21391296,9.801483,3.2852173,-15.136719,-38.583374,0.23818032,-0.2157507,9.801383,0.00018520653,0.00036852062,-0.0019006729,-1.5258789e-05,7.6293945e-05,-1.5258789e-05
2019-07-01T20:23:04.329Z,0.010892955,-0.012238616,0.9938524,0.23857117,-0.21440125,9.79837,4.5562744,-15.184021,-40.608215,0.23861638,-0.21517083,9.801385,0.00070858,0.0012248307,0.00016880035,-7.6293945e-05,-0.00015258789,9.1552734e-05
2019-07-01T20:23:04.460Z,0.010903735,-0.012232302,0.99384946,0.23857117,-0.21463013,9.802444,2.709961,-15.6188965,-37.602234,0.2388186,-0.21501829,9.801383,1.0997057e-05,0.0005904287,0.00059604645,-7.6293945e-05,-0.00010681152,4.5776367e-05
2019-07-01T20:23:04.757Z,0.010906798,-0.01222718,0.99384856,0.23880005,-0.21583557,9.800995,3.4301758,-15.565491,-38.29956,0.2388691,-0.21490988,9.801384,-0.00028283894,-0.00022211671,0.0011911392,0.00010681152,1.5258789e-05,0.00010681152
2019-07-01T20:23:05.060Z,0.010896094,-0.012234675,0.9938515,0.23951721,-0.21678162,9.800522,3.5552979,-14.538574,-38.54828,0.2386709,-0.21508531,9.801386,-0.00032871962,-4.6759844e-05,2.861023e-06,-1.5258789e-05,-0.00021362305,4.5776367e-05
2019-07-01T20:23:05.269Z,0.0109240925,-0.0122733535,0.9938448,0.23736572,-0.21702576,9.8033905,3.5247803,-15.193176,-38.830566,0.23931119,-0.21576606,9.801355,0.00046873093,-0.0012764484,-0.00031661987,-0.0001373291,-4.5776367e-05,4.5776367e-05
2019-07-01T20:23:05.478Z,0.010902261,-0.01230837,0.99385107,0.23664856,-0.21534729,9.799088,3.6056519,-15.264893,-38.24463,0.23894803,-0.21650961,9.801348,-0.0008675158,-0.0010022819,0.0017166138,-1.5258789e-05,-0.00015258789,4.5776367e-05
2019-07-01T20:23:05.487Z,0.010860002,-0.012260495,0.9938613,0.23904419,-0.21583557,9.800766,2.6763916,-16.27655,-38.035583,0.23800357,-0.21568742,9.80139,-0.0025254637,0.0012682825,-0.0017328262,4.5776367e-05,7.6293945e-05,1.5258789e-05
2019-07-01T20:23:05.687Z,0.010887517,-0.012267677,0.9938543,0.24119568,-0.21511841,9.802673,3.42865,-15.718079,-37.8006,0.2385684,-0.2157537,9.8013735,0.0019199997,-0.0003196895,0.00076007843,0.00016784668,7.6293945e-05,0.00018310547
2019-07-01T20:23:05.896Z,0.010910422,-0.012260842,0.99384815,0.2368927,-0.21583557,9.803146,2.0721436,-15.365601,-38.50403,0.23901184,-0.2155583,9.801367,0.000989452,-2.9325485e-05,0.0011339188,-1.5258789e-05,-9.1552734e-05,6.1035156e-05
2019-07-01T20:23:06.104Z,0.010885828,-0.012258446,0.9938545,0.2400055,-0.21534729,9.801239,2.2750854,-16.305542,-37.872314,0.23851538,-0.21557775,9.801378,-0.001160711,0.00024043024,0.0005970001,-1.5258789e-05,7.6293945e-05,-0.000289917
2019-07-01T20:23:06.313Z,0.010905105,-0.012266076,0.99384964,0.23760986,-0.21894836,9.800522,2.3101807,-15.423584,-38.298035,0.23891656,-0.215675,9.801368,0.00083629787,-0.00015290082,-0.00023269653,0.00010681152,1.5258789e-05,-0.00010681152
2019-07-01T20:23:06.461Z,0.01087933,-0.012299447,0.9938569,0.23857117,-0.2163086,9.801483,1.8554688,-15.02533,-37.068176,0.23847112,-0.21639697,9.801362,-0.0008585006,-0.0023097396,-0.00095558167,0.00016784668,1.5258789e-05,1.5258789e-05
2019-07-01T20:23:06.664Z,0.010887768,-0.012299861,0.9938547,0.2416687,-0.21536255,9.8029175,3.5995483,-15.336609,-38.259888,0.23864059,-0.2163823,9.801357,0.0004004538,-0.00016760826,0.00047016144,-7.6293945e-05,-9.1552734e-05,-0.00010681152
2019-07-01T20:23:06.865Z,0.010951168,-0.012275172,0.9938377,0.23951721,-0.21559143,9.803635,1.4953613,-15.77301,-37.957764,0.23985603,-0.21572849,9.801342,0.0022837967,0.0013426691,0.00111866,4.5776367e-05,1.5258789e-05,0.00012207031
2019-07-01T20:23:07.071Z,0.01092848,-0.012274281,0.9938437,0.2400055,-0.21583557,9.800049,1.7333984,-15.904236,-37.391663,0.23940079,-0.21577233,9.8013525,-0.0008496642,-0.00027406216,0.00025558472,0.00016784668,-4.5776367e-05,-0.00022888184
2019-07-01T20:23:07.358Z,0.010933975,-0.012272952,0.9938422,0.23712158,-0.21606445,9.802673,2.7145386,-15.397644,-38.008118,0.23950781,-0.21573152,9.801351,7.301569e-07,-0.00032512844,-0.0009393692,4.5776367e-05,0.00019836426,-0.00022888184
2019-07-01T20:23:07.483Z,0.010899,-0.012258132,0.9938511,0.23880005,-0.21391296,9.8022,2.407837,-14.9002075,-38.952637,0.23877795,-0.21553612,9.8013735,-0.00093622506,-4.4226646e-05,0.00032234192,0.00022888184,1.5258789e-05,0.00012207031
2019-07-01T20:23:07.776Z,0.010901666,-0.012219069,0.99384975,0.24191284,-0.21511841,9.802429,2.571106,-15.045166,-37.779236,0.23874965,-0.21476516,9.801392,2.6136637e-05,0.0008740276,0.0010032654,0.00010681152,1.5258789e-05,-0.00016784668
2019-07-01T20:23:07.984Z,0.010949339,-0.012220136,0.9938373,0.23736572,-0.21583557,9.800278,3.4225464,-15.863037,-37.680054,0.23970445,-0.21465737,9.801371,0.0019447207,-0.0006724149,-0.00045681,0.00010681152,0.0001373291,-0.00018310547
2019-07-01T20:23:08.088Z,0.01089667,-0.012229763,0.99385124,0.23928833,-0.21368408,9.8022,2.8457642,-15.966797,-38.734436,0.23867212,-0.21498771,9.801388,-0.0013179928,-0.00059327483,-0.00062561035,-7.6293945e-05,7.6293945e-05,1.5258789e-05
2019-07-01T20:23:08.298Z,0.010895063,-0.012219901,0.9938515,0.23640442,-0.2131958,9.801727,2.1331787,-15.800476,-38.293457,0.23861945,-0.21479923,9.8013935,-5.8546662e-05,0.0008955151,-8.869171e-05,-0.0001373291,-0.00015258789,-4.5776367e-05
2019-07-01T20:23:08.507Z,0.010890115,-0.012201193,0.9938525,0.23641968,-0.2131958,9.800522,3.1799316,-15.803528,-38.261414,0.23848148,-0.21444675,9.801404,-0.00063470006,0.00076918304,-0.00021839142,-1.5258789e-05,0.00019836426,0.00018310547
2019-07-01T20:23:08.716Z,0.010834156,-0.01217005,0.9938666,0.23713684,-0.21440125,9.803879,2.1575928,-15.367126,-37.677002,0.23729838,-0.21398857,9.801443,-0.0015927106,0.0012629479,-0.000790596,4.5776367e-05,0.00019836426,0.0001373291
2019-07-01T20:23:08.925Z,0.0108278915,-0.012184457,0.99386847,0.23951721,-0.21487427,9.802673,2.5634766,-15.264893,-37.672424,0.23720326,-0.2142871,9.801438,0.00038698316,-0.0008135736,0.0018577576,4.5776367e-05,1.5258789e-05,-4.5776367e-05
2019-07-01T20:23:09.133Z,0.010862678,-0.012171588,0.9938592,0.23832703,-0.21655273,9.800278,2.5009155,-14.981079,-37.234497,0.23787147,-0.21394184,9.80143,0.0016261339,0.00027540326,-3.8146973e-05,4.5776367e-05,-4.5776367e-05,-0.00010681152
2019-07-01T20:23:09.342Z,0.010864769,-0.012209268,0.99385923,0.23617554,-0.21296692,9.802673,3.453064,-15.054321,-38.346863,0.2379919,-0.21467295,9.801411,-0.00038816035,-0.0016300976,-0.0011415482,0.00010681152,-0.00015258789,-4.5776367e-05
2019-07-01T20:23:09.552Z,0.010863603,-0.012184959,0.9938592,0.24095154,-0.21655273,9.802673,2.7038574,-15.768433,-37.478638,0.23791786,-0.21420078,9.801423,-0.0003181845,0.0005258918,0.0003566742,-1.5258789e-05,-4.5776367e-05,-0.00016784668
2019-07-01T20:23:09.716Z,0.010896525,-0.012225766,0.99385124,0.24143982,-0.21391296,9.804596,2.4917603,-15.129089,-37.41455,0.2386609,-0.21490994,9.80139,0.001324892,-0.0013809055,0.00071811676,-1.5258789e-05,0.0001373291,0.00012207031
2019-07-01T20:23:09.904Z,0.0109244585,-0.012228601,0.993844,0.23880005,-0.21296692,9.800766,3.1982422,-15.364075,-38.32245,0.2391427,-0.21394844,9.801399,0.001686886,5.1394105e-05,0.0015935898,-1.5258789e-05,-9.1552734e-05,-0.00035095215
2019-07-01T20:23:10.118Z,0.010933134,-0.012194325,0.9938411,0.2400055,-0.21583557,9.801239,2.5253296,-14.247131,-37.763977,0.23932667,-0.21419643,9.801389,0.0008947104,-0.00043733418,-0.00019359589,-7.6293945e-05,-4.5776367e-05,-4.5776367e-05
2019-07-01T20:23:10.387Z,0.010931972,-0.01222656,0.99384195,0.2359314,-0.21440125,9.800766,4.3151855,-15.582275,-38.412476,0.23937084,-0.21482983,9.8013735,-9.806454e-05,-0.0009917915,0.00018978119,0.00016784668,7.6293945e-05,-0.000289917
2019-07-01T20:23:10.596Z,0.010876107,-0.012208964,0.99385625,0.24047852,-0.21511841,9.800049,2.6443481,-15.182495,-38.26294,0.23821783,-0.21463647,9.801407,-0.0018163323,-0.0007234365,-0.0010051727,0.00010681152,1.5258789e-05,-0.00010681152
2019-07-01T20:23:10.805Z,0.010913793,-0.012207213,0.9938464,0.23904419,-0.21655273,9.800049,2.432251,-14.5401,-38.349915,0.23896718,-0.21450062,9.801392,0.0015200526,0.00033569336,-0.0009851456,-0.00019836426,0.00019836426,-0.00010681152
2019-07-01T20:23:11.013Z,0.010901763,-0.012257905,0.99385035,0.23857117,-0.2131958,9.799805,4.588318,-14.987183,-37.39624,0.23883268,-0.21552421,9.801372,-1.4334917e-05,-0.001289174,-0.0008163452,0.00016784668,-9.1552734e-05,-0.00035095215
2019-07-01T20:23:11.122Z,0.010901162,-0.012211561,0.99384975,0.24143982,-0.21679688,9.801239,3.1936646,-15.513611,-38.050842,0.2387239,-0.21461973,9.801395,-0.00012941658,0.000914678,-0.00038909912,0.00010681152,7.6293945e-05,-0.00016784668
2019-07-01T20:23:11.327Z,0.01094252,-0.012234093,0.9938393,0.23904419,-0.2141571,9.799332,2.5634766,-15.1901245,-38.03711,0.23959734,-0.21494865,9.801366,0.0018410385,-0.0011297464,0.0019655228,0.00010681152,7.6293945e-05,-0.00022888184
2019-07-01T20:23:11.536Z,0.010940841,-0.01221969,0.9938395,0.2416687,-0.21511841,9.801956,3.9215088,-15.313721,-38.56964,0.2395337,-0.21467157,9.8013735,0.00028030574,0.00022314489,-0.0044345856,-1.5258789e-05,7.6293945e-05,1.5258789e-05
2019-07-01T20:23:11.745Z,0.010965491,-0.012230492,0.99383324,0.23880005,-0.21583557,9.799561,3.0166626,-15.812683,-38.33313,0.24004883,-0.2148162,9.801358,0.0011612326,-7.094443e-05,0.0031080246,-1.5258789e-05,1.5258789e-05,-0.00010681152
2019-07-01T20:23:11.953Z,0.010941379,-0.012253494,0.9938399,0.23951721,-0.21583557,9.803879,3.8467407,-15.249634,-38.250732,0.23961508,-0.21533106,9.801356,-0.0005624145,-0.0009851605,0.00047302246,-1.5258789e-05,0.0001373291,-0.00010681152
2019-07-01T20:23:12.163Z,0.010921004,-0.012267684,0.9938455,0.23976135,-0.21678162,9.801956,3.6026,-15.338135,-38.034058,0.23923762,-0.21566352,9.801359,-0.0004426241,-0.0006405115,0.0011072159,-1.5258789e-05,1.5258789e-05,-0.000289917
2019-07-01T20:23:12.372Z,0.0109527325,-0.012267445,0.9938372,0.23951721,-0.21559143,9.800522,2.7297974,-15.180969,-37.513733,0.23987116,-0.2155732,9.801346,0.0010736287,-0.00025629997,0.00010585785,4.5776367e-05,1.5258789e-05,0.00018310547
2019-07-01T20:23:12.581Z,0.010927511,-0.012257639,0.9938436,0.237854,-0.21440125,9.801483,3.1860352,-15.655518,-38.380432,0.23934665,-0.21544957,9.801361,-0.0007709861,9.8243356e-05,-0.0008993149,0.000289917,1.5258789e-05,-0.00010681152
2019-07-01T20:23:12.789Z,0.0109116305,-0.012234557,0.9938474,0.23976135,-0.2163086,9.800766,2.8060913,-15.249634,-37.605286,0.2389811,-0.2150411,9.801379,-0.00089770555,0.00016637146,0.00035381317,-1.5258789e-05,1.5258789e-05,1.5258789e-05
2019-07-01T20:23:12.951Z,0.010914038,-0.012253765,0.9938471,0.24072266,-0.2141571,9.803635,2.3284912,-14.982605,-38.66272,0.23906933,-0.21541017,9.801369,0.00069898367,-0.0006605536,-0.0005617142,-7.6293945e-05,-0.00015258789,0.00012207031
2019-07-01T20:23:13.207Z,0.010963053,-0.012243387,0.9938341,0.24095154,-0.21343994,9.802444,3.1188965,-15.371704,-37.869263,0.2400271,-0.21507493,9.801353,0.0011486113,0.00044743717,0.0021839142,4.5776367e-05,1.5258789e-05,0.00012207031
2019-07-01T20:23:13.416Z,0.010960359,-0.012216048,0.9938344,0.23880005,-0.2141571,9.799805,2.6290894,-15.397644,-38.835144,0.23991607,-0.21454763,9.801367,7.151067e-05,0.0011237264,-0.00014305115,4.5776367e-05,7.6293945e-05,-0.00010681152
2019-07-01T20:23:13.625Z,0.010951266,-0.012201057,0.99383646,0.2368927,-0.2172699,9.801956,3.1814575,-15.805054,-38.034058,0.23970303,-0.2142791,9.801378,-0.00041756034,0.00012457371,-0.0012178421,0.00022888184,1.5258789e-05,-0.00048828125
2019-07-01T20:23:13.834Z,0.010888829,-0.012231806,0.99385333,0.23664856,-0.21296692,9.801727,2.140808,-15.80658,-37.38861,0.23851974,-0.21504882,9.801391,-0.002102673,-0.0022187084,-1.5258789e-05,4.5776367e-05,0.0001373291,-4.5776367e-05
2019-07-01T20:23:14.043Z,0.010853236,-0.012187816,0.9938619,0.23641968,-0.21440125,9.801483,3.2608032,-15.873718,-37.675476,0.23771666,-0.21428457,9.801426,-0.0010756254,0.0015685558,0.0004644394,0.00010681152,7.6293945e-05,-0.000289917
2019-07-01T20:23:14.171Z,0.01084402,-0.01217699,0.9938641,0.23976135,-0.2141571,9.802429,3.263855,-15.725708,-38.17444,0.23750995,-0.2140977,9.801435,-0.000378415,-5.4612756e-05,-0.00017166138,0.00010681152,7.6293945e-05,1.5258789e-05
2019-07-01T20:23:14.461Z,0.010871958,-0.012178841,0.99385685,0.23928833,-0.21678162,9.801483,3.6972046,-15.04364,-37.976074,0.23807201,-0.21405865,9.801422,0.0016771704,-0.0008046627,0.0005054474,0.0004119873,7.6293945e-05,7.6293945e-05
2019-07-01T20:23:14.670Z,0.010878986,-0.012182953,0.9938551,0.23857117,-0.21368408,9.801483,2.6855469,-14.38446,-37.574768,0.23822102,-0.21412012,9.801417,0.0005739629,-0.0014667511,-0.0006313324,-7.6293945e-05,7.6293945e-05,-0.00016784668
2019-07-01T20:23:14.879Z,0.010888491,-0.012201502,0.9938529,0.23951721,-0.21559143,9.800522,3.5171509,-15.567017,-37.39624,0.2384497,-0.2144572,9.801405,0.00034046173,-0.00016401708,0.00038814545,0.00010681152,-4.5776367e-05,-4.5776367e-05
2019-07-01T20:23:14.982Z,0.01090563,-0.012208833,0.99384856,0.23928833,-0.21463013,9.800522,2.7633667,-16.197205,-37.947083,0.23880747,-0.21455432,9.801394,0.00096178055,-0.0010442138,-0.0015096664,0.00016784668,0.00019836426,-0.00035095215
2019-07-01T20:23:15.192Z,0.010914853,-0.012195694,0.99384594,0.24287415,-0.21392822,9.803635,2.0706177,-15.364075,-38.65509,0.23896427,-0.21427254,9.801396,0.0010475665,0.00010974705,0.000102996826,-1.5258789e-05,7.6293945e-05,-0.00010681152
2019-07-01T20:23:15.403Z,0.01096452,-0.0122134015,0.99383324,0.24072266,-0.2182312,9.800995,2.4932861,-14.976501,-38.064575,0.23999366,-0.21448463,9.801366,0.0023965687,-0.00015100837,0.0013504028,-1.5258789e-05,7.6293945e-05,1.5258789e-05
2019-07-01T20:23:15.819Z,0.010966059,-0.012265936,0.99383366,0.23928833,-0.21391296,9.804825,3.1738281,-15.950012,-38.139343,0.24013428,-0.21550766,9.80134,0.00057560205,-0.0019949079,9.441376e-05,0.00016784668,0.0001373291,-0.00010681152
2019-07-01T20:23:16.027Z,0.010926382,-0.012225229,0.9938434,0.23545837,-0.21511841,9.801483,3.9642334,-16.033936,-39.54773,0.23925637,-0.21481891,9.801377,-0.0012038499,0.00044491887,0.0014867783,-1.5258789e-05,0.0001373291,-4.5776367e-05
2019-07-01T20:23:16.047Z,0.010863172,-0.012213847,0.9938597,0.24047852,-0.21511841,9.8029175,2.445984,-15.768433,-39.733887,0.23796955,-0.21476679,9.80141,-0.002064243,0.00016021729,-0.00028419495,4.5776367e-05,0.0001373291,-6.1035156e-05
2019-07-01T20:23:16.341Z,0.010897044,-0.012241828,0.99385136,0.23617554,-0.21583557,9.800766,2.7404785,-14.660645,-38.99231,0.23870482,-0.21522261,9.801382,0.0017548949,-0.0010690242,-0.0006713867,-7.6293945e-05,7.6293945e-05,-0.00010681152
2019-07-01T20:23:16.550Z,0.010855075,-0.01223083,0.99386215,0.23736572,-0.21463013,9.801239,2.697754,-15.760803,-38.459778,0.23784322,-0.21512067,9.801406,-0.0012093782,0.0007327497,-0.00028514862,-1.5258789e-05,0.0001373291,0.0
2019-07-01T20:23:16.712Z,0.010815261,-0.012225454,0.99387246,0.24047852,-0.21247864,9.801712,2.6000977,-15.98053,-39.32953,0.2370364,-0.21512267,9.801425,0.0003309101,-0.00071433187,-0.00083732605,-1.5258789e-05,0.0002593994,-0.00022888184
2019-07-01T20:23:16.862Z,0.010847902,-0.012189324,0.99386334,0.237854,-0.2172699,9.801956,3.0166626,-15.737915,-38.771057,0.23761325,-0.21432841,9.801428,0.0021448135,0.0018527508,0.00039196014,0.00010681152,0.0001373291,1.5258789e-05
2019-07-01T20:23:17.063Z,0.010852353,-0.012249151,0.99386317,0.24047852,-0.2163086,9.802673,0.60272217,-15.59906,-39.69879,0.23782703,-0.2154862,9.801397,0.00073482096,-0.0027365685,0.00041866302,-1.5258789e-05,0.0001373291,-0.00022888184
2019-07-01T20:23:17.266Z,0.010875633,-0.012250681,0.9938571,0.23904419,-0.21224976,9.799332,2.7175903,-15.324402,-38.220215,0.23829545,-0.21545343,9.801387,0.0014566481,0.00011450052,-4.005432e-05,4.5776367e-05,3.0517578e-05,-4.5776367e-05
2019-07-01T20:23:17.490Z,0.010884515,-0.0121986335,0.9938539,0.23999023,-0.2163086,9.800995,2.8747559,-15.461731,-37.95166,0.23836425,-0.21441182,9.801408,0.0004428923,0.0021556914,-0.0013113022,-7.6293945e-05,0.0001373291,-0.00010681152
2019-07-01T20:23:17.699Z,0.010912607,-0.012223825,0.99384695,0.23904419,-0.21487427,9.801239,2.293396,-15.635681,-39.398193,0.23897819,-0.21482863,9.801384,0.0017518401,-0.0010135621,-8.678436e-05,0.000289917,0.00019836426,-0.00010681152
2019-07-01T20:23:17.908Z,0.010904905,-0.01222842,0.9938491,0.2416687,-0.21511841,9.805786,2.708435,-15.467834,-38.475037,0.23883389,-0.21493925,9.801385,0.00046031177,-0.00065746903,9.536743e-05,-0.0002593994,7.6293945e-05,-0.00010681152
2019-07-01T20:23:18.073Z,0.010941087,-0.012235327,0.99383974,0.23808289,-0.21391296,9.799561,2.9937744,-16.323853,-38.51013,0.23957132,-0.21497665,9.801367,0.0018361509,0.00037553906,0.0030965805,4.5776367e-05,7.6293945e-05,-0.00016784668
2019-07-01T20:23:18.325Z,0.010916753,-0.012195209,0.9938454,0.23928833,-0.21368408,9.801239,3.2592773,-15.72113,-38.85193,0.23900121,-0.21425793,9.801395,-0.001151517,0.0012948662,-0.002240181,-7.6293945e-05,1.5258789e-05,-0.000289917
2019-07-01T20:23:18.534Z,0.010925924,-0.012215185,0.9938434,0.23808289,-0.21463013,9.802673,2.2155762,-15.94696,-37.269592,0.23922625,-0.21462376,9.801383,0.00027547777,-0.00048075616,0.0009012222,-1.5258789e-05,-4.5776367e-05,-0.00016784668
2019-07-01T20:23:18.743Z,0.010912971,-0.012186202,0.99384624,0.23880005,-0.21247864,9.798599,3.3569336,-15.504456,-37.678528,0.23890685,-0.21409203,9.801402,-0.0008326471,0.0006598681,-0.0005197525,0.00022888184,-9.1552734e-05,-0.00024414062
2019-07-01T20:23:18.952Z,0.010913852,-0.012168855,0.99384576,0.23808289,-0.21343994,9.8029175,3.112793,-15.364075,-38.923645,0.23888819,-0.21375047,9.80141,-6.723404e-05,0.00029180944,-0.0024251938,-1.5258789e-05,0.00019836426,-0.00010681152
2019-07-01T20:23:19.089Z,0.010892177,-0.012160478,0.99385124,0.24023438,-0.2141571,9.801712,3.4378052,-15.422058,-38.119507,0.23843764,-0.21364515,9.801423,-0.00011254847,0.00020694733,0.0018873215,4.5776367e-05,0.00019836426,-0.00036621094
2019-07-01T20:23:19.370Z,0.0109080095,-0.012171566,0.9938473,0.23760986,-0.21583557,9.8029175,3.0303955,-15.748596,-37.26349,0.23877715,-0.21381924,9.801412,0.00097233057,-0.00080028176,0.0007753372,-1.5258789e-05,-9.1552734e-05,-4.5776367e-05
2019-07-01T20:23:19.579Z,0.010896066,-0.012200795,0.99385095,0.23928833,-0.21487427,9.803162,3.4179688,-15.859985,-38.208008,0.23859957,-0.21442296,9.801402,-0.00052912533,-0.00091317296,4.2915344e-05,4.5776367e-05,-4.5776367e-05,1.5258789e-05
2019-07-01T20:23:19.788Z,0.010901634,-0.012201326,0.99384946,0.23880005,-0.21606445,9.801483,2.7359009,-14.959717,-37.919617,0.2387119,-0.21441829,9.801398,6.3583255e-05,-0.0004339069,0.0009832382,0.00016784668,1.5258789e-05,-4.5776367e-05
2019-07-01T20:23:19.996Z,0.010885612,-0.012212407,0.99385387,0.23568726,-0.21343994,9.800522,1.9958496,-15.377808,-37.672424,0.23841494,-0.21467817,9.801401,-0.0003414005,-0.0011489838,-0.0012636185,0.00016784668,7.6293945e-05,-0.00012207031
2019-07-01T20:23:20.105Z,0.0108639775,-0.012169672,0.9938588,0.23808289,-0.21296692,9.8029175,3.3706665,-15.136719,-38.13324,0.23789343,-0.2139009,9.801431,-0.000999257,0.0009326488,-0.00084781647,-1.5258789e-05,-4.5776367e-05,-0.00010681152
2019-07-01T20:23:20.310Z,0.010853533,-0.012168573,0.9938615,0.23904419,-0.21391296,9.802673,2.5772095,-14.971924,-37.84027,0.23768248,-0.21390755,9.801436,-9.1299415e-05,0.00024028122,0.0016727448,-1.5258789e-05,0.00019836426,0.00012207031
2019-07-01T20:23:20.519Z,0.010871686,-0.012163832,0.99385667,0.23832703,-0.21487427,9.799561,2.8930664,-15.325928,-36.566162,0.23803525,-0.21376593,9.80143,0.0009920746,0.00034113228,-0.00016880035,-1.5258789e-05,7.6293945e-05,-0.00012207031
2019-07-01T20:23:20.728Z,0.010872661,-0.012196595,0.99385697,0.23760986,-0.21343994,9.800522,1.5487671,-16.275024,-38.43994,0.23812313,-0.2144039,9.801414,0.00044567883,-0.0011854172,-0.0012331009,-1.5258789e-05,7.6293945e-05,7.6293945e-05
2019-07-01T20:23:20.937Z,0.010868306,-0.01215687,0.99385744,0.23832703,-0.2141571,9.79837,3.3157349,-16.455078,-37.721252,0.23795317,-0.21363892,9.8014345,-8.536875e-05,0.0011478662,-0.0013055801,-1.5258789e-05,1.5258789e-05,-0.00016784668
2019-07-01T20:23:21.146Z,0.010847108,-0.012188528,0.9938635,0.23857117,-0.21702576,9.799561,3.2791138,-15.283203,-38.612366,0.23759572,-0.21431497,9.801428,-0.00045192242,-0.0008234829,-0.00070667267,-1.5258789e-05,-4.5776367e-05,-0.00016784668
2019-07-01T20:23:21.355Z,0.010869049,-0.012276189,0.99385923,0.2359314,-0.2131958,9.798843,2.3864746,-15.567017,-37.878418,0.23821712,-0.21596992,9.801378,-0.00010891259,-0.002040103,0.00043010712,-7.6293945e-05,0.0001373291,-4.5776367e-05
2019-07-01T20:23:21.563Z,0.010813783,-0.012211049,0.9938726,0.23760986,-0.21224976,9.801956,2.5604248,-15.261841,-37.973022,0.2369768,-0.21484499,9.801432,-0.0017280728,0.0025639534,-0.00067329407,4.5776367e-05,0.0002593994,-4.5776367e-05
2019-07-01T20:23:21.877Z,0.010829777,-0.012186167,0.993868,0.23640442,-0.21391296,9.800293,2.6260376,-15.54718,-38.563538,0.23724453,-0.21431546,9.801437,0.0008571595,0.0006143898,0.0012960434,4.5776367e-05,-4.5776367e-05,7.6293945e-05
2019-07-01T20:23:21.979Z,0.010815563,-0.012183159,0.9938717,0.24047852,-0.2131958,9.801239,2.8579712,-15.750122,-38.61389,0.2369542,-0.21429487,9.801444,-0.0005258769,0.00011613965,-0.00040721893,-7.6293945e-05,-4.5776367e-05,-0.00016784668
2019-07-01T20:23:22.190Z,0.010882899,-0.012152927,0.99385357,0.23880005,-0.21272278,9.803635,2.6519775,-15.1901245,-37.208557,0.2382365,-0.21352251,9.801431,0.00223805,0.00152044,0.0022850037,0.00010681152,-4.5776367e-05,-0.00016784668
2019-07-01T20:23:22.486Z,0.010884408,-0.012140396,0.993853,0.2368927,-0.21440125,9.803879,3.201294,-15.367126,-37.945557,0.23824047,-0.21327342,9.801435,7.775426e-05,0.0003143847,0.00040245056,-7.6293945e-05,-9.1552734e-05,-4.5776367e-05
2019-07-01T20:23:22.583Z,0.010866727,-0.012157125,0.99385786,0.23736572,-0.21440125,9.8022,3.869629,-14.738464,-38.1485,0.23792216,-0.21364817,9.801435,-0.00080506504,-0.000491187,0.0009126663,-7.6293945e-05,0.0002593994,-0.0004119873
2019-07-01T20:23:22.787Z,0.010838915,-0.012178503,0.9938655,0.23641968,-0.21679688,9.801956,3.5079956,-15.634155,-38.615417,0.23741111,-0.21414104,9.801437,-6.28978e-05,-0.00096157193,-0.00020313263,-1.5258789e-05,7.6293945e-05,-0.00035095215
2019-07-01T20:23:23.026Z,0.0108194845,-0.012221376,0.9938713,0.24047852,-0.21464539,9.800049,2.3986816,-15.350342,-37.683105,0.23711228,-0.2150316,9.801425,-0.00095666945,-0.0019761026,0.00018119812,0.00016784668,-0.00021362305,-0.00024414062
2019-07-01T20:23:23.199Z,0.010879465,-0.012219476,0.9938556,0.23736572,-0.21057129,9.803879,2.9403687,-15.74707,-38.24005,0.23830687,-0.21483295,9.8014,0.0021612495,0.00044108927,-0.00083351135,-1.5258789e-05,7.6293945e-05,-4.5776367e-05
2019-07-01T20:23:23.393Z,0.0108822705,-0.012147677,0.9938536,0.23880005,-0.21678162,9.801712,3.6697388,-15.777588,-37.3703,0.23821297,-0.21342152,9.801433,0.0001013428,0.0026327372,0.00024414062,-1.5258789e-05,0.0001373291,-0.000289917
2019-07-01T20:23:23.652Z,0.0108583355,-0.012189483,0.9938606,0.23855591,-0.21296692,9.800049,2.5177002,-16.059875,-39.11743,0.23782206,-0.21430343,9.801423,-0.00023885071,-0.001981154,0.0011129379,4.5776367e-05,1.5258789e-05,-4.5776367e-05
2019-07-01T20:23:23.802Z,0.010873115,-0.012166714,0.9938564,0.2368927,-0.21511841,9.800522,2.1606445,-15.293884,-37.66327,0.2380698,-0.21381845,9.801428,0.0002604425,0.00084863603,-0.0024518967,0.00022888184,1.5258789e-05,-4.5776367e-05
2019-07-01T20:23:24.069Z,0.010865045,-0.012168483,0.9938585,0.23832703,-0.21536255,9.8029175,1.7486572,-15.310669,-38.78174,0.23791227,-0.21387477,9.801431,-0.00029303133,-0.0010079294,-0.0005226135,-1.5258789e-05,-9.1552734e-05,-0.00035095215
2019-07-01T20:23:24.209Z,0.010874371,-0.0122114215,0.9938568,0.23713684,-0.21534729,9.801956,2.0629883,-15.737915,-37.521362,0.23818827,-0.2146892,9.801406,0.0003785938,-0.0013866276,0.0010900497,-1.5258789e-05,0.00019836426,-0.000289917
2019-07-01T20:23:24.488Z,0.010851644,-0.012216137,0.9938628,0.23951721,-0.21559143,9.8029175,3.2073975,-15.220642,-37.991333,0.23774397,-0.2148426,9.801414,-0.0006123334,-0.00027109683,8.392334e-05,4.5776367e-05,7.6293945e-05,-0.00010681152
2019-07-01T20:23:24.615Z,0.010867935,-0.012219195,0.9938586,0.23951721,-0.2172699,9.801483,3.2363892,-16.079712,-39.67743,0.2380759,-0.21485855,9.801406,0.0011943877,-0.00071661174,0.0010137558,0.00016784668,-4.5776367e-05,-0.00022888184
2019-07-01T20:23:24.907Z,0.01089982,-0.012248916,0.9938507,0.23760986,-0.21487427,9.803146,2.947998,-15.524292,-38.42163,0.23877507,-0.21535368,9.801376,0.0014420301,-0.00118348,-0.0001296997,4.5776367e-05,1.5258789e-05,-0.00048828125
2019-07-01T20:23:25.018Z,0.010859962,-0.012243033,0.9938611,0.2400055,-0.21655273,9.807465,2.5527954,-15.408325,-38.08136,0.2379663,-0.21534608,9.801396,-0.0015759766,-0.00046293437,0.0010290146,0.00010681152,0.00019836426,-0.00016784668
2019-07-01T20:23:25.323Z,0.010894314,-0.012250831,0.9938522,0.23832703,-0.21798706,9.8033905,3.2699585,-15.577698,-38.067627,0.23866905,-0.215406,9.801378,0.0019898862,-0.00084508955,0.002752304,0.00010681152,1.5258789e-05,-0.00016784668
2019-07-01T20:23:25.426Z,0.010862708,-0.012294625,0.9938612,0.23808289,-0.21463013,9.800278,2.380371,-15.634155,-38.42163,0.23812884,-0.21634743,9.801371,-0.00081813335,-0.001589641,-0.00071811676,-7.6293945e-05,0.0001373291,-4.5776367e-05
2019-07-01T20:23:25.741Z,0.010887339,-0.012274062,0.9938544,0.23880005,-0.21391296,9.799332,2.4841309,-15.348816,-37.158203,0.23857817,-0.21587904,9.801371,0.0009071827,0.0010335892,-0.0019130707,-1.5258789e-05,-9.1552734e-05,-0.00016784668
2019-07-01T20:23:25.873Z,0.010913288,-0.012198103,0.99384636,0.23760986,-0.21678162,9.800049,1.9882202,-15.522766,-37.701416,0.23893803,-0.21432385,9.801395,0.0010607988,0.0006457269,4.386902e-05,4.5776367e-05,1.5258789e-05,-0.00016784668
2019-07-01T20:23:26.081Z,0.0108763715,-0.01222383,0.99385643,0.23712158,-0.21559143,9.800766,2.7832031,-15.837097,-37.11853,0.23825411,-0.2149264,9.801398,-0.0013548285,-0.001143992,-0.0010795593,-1.5258789e-05,7.6293945e-05,-0.00048828125
2019-07-01T20:23:26.368Z,0.010866133,-0.012255255,0.99385965,0.23976135,-0.21487427,9.804108,2.848816,-15.893555,-38.87024,0.23811513,-0.21556845,9.801389,-0.00049203634,-0.0012404025,-0.00056552887,4.5776367e-05,1.5258789e-05,-0.00010681152
2019-07-01T20:23:26.577Z,0.010867769,-0.012218736,0.99385864,0.23808289,-0.21536255,9.8033905,3.781128,-15.0390625,-37.677002,0.23807159,-0.21485,9.801405,0.00048273802,0.0014252365,0.002497673,-0.0001373291,7.6293945e-05,-0.00010681152
2019-07-01T20:23:26.785Z,0.010898613,-0.0122482255,0.99385107,0.24047852,-0.21511841,9.801727,3.2165527,-15.077209,-37.73651,0.23874953,-0.21534346,9.801378,0.0009916127,-0.00047390163,0.0002374649,-1.5258789e-05,-4.5776367e-05,-0.00016784668
2019-07-01T20:23:26.959Z,0.010905599,-0.012254141,0.99384934,0.23736572,-0.21655273,9.803879,3.138733,-15.159607,-36.769104,0.2389015,-0.21544029,9.801373,0.00059330463,-0.00061923265,0.00015354156,0.00022888184,0.0001373291,-0.00016784668
2019-07-01T20:23:27.241Z,0.0108862175,-0.012253416,0.99385434,0.23760986,-0.21559143,9.801727,3.1326294,-16.749573,-39.05487,0.23851267,-0.21547838,9.801381,-0.0004707724,-0.0005490631,0.0015306473,-7.6293945e-05,-4.5776367e-05,-0.00036621094
2019-07-01T20:23:27.516Z,0.010871096,-0.012249795,0.9938583,0.23928833,-0.21391296,9.800995,5.406189,-16.001892,-40.507507,0.2382029,-0.2154483,9.801389,-0.0003748983,0.0001245141,-0.0012197495,4.5776367e-05,0.0001373291,-0.000289917
2019-07-01T20:23:27.537Z,0.010880627,-0.012213564,0.9938552,0.23976135,-0.21559143,9.800278,2.8457642,-15.966797,-38.885498,0.23831773,-0.21471421,9.801402,0.00023958087,0.00128676,-0.0009775162,4.5776367e-05,-4.5776367e-05,-0.00016784668
2019-07-01T20:23:27.830Z,0.0109104,-0.012238486,0.9938478,0.23928833,-0.21607971,9.79837,2.3788452,-15.707397,-38.5849,0.23896474,-0.21512124,9.801378,0.0015245825,-0.0011970848,-0.0020914078,0.00010681152,7.6293945e-05,-0.000289917
2019-07-01T20:23:28.038Z,0.010915028,-0.012244338,0.9938467,0.24072266,-0.21391296,9.803879,3.1982422,-15.364075,-38.32245,0.2390694,-0.21522318,9.801373,-5.3197145e-06,-0.0003861487,-0.0007534027,-1.5258789e-05,-4.5776367e-05,-0.00016784668
2019-07-01T20:23:28.248Z,0.010927659,-0.012219395,0.99384296,0.2368927,-0.21247864,9.800278,2.4215698,-14.611816,-38.667297,0.23926969,-0.21470137,9.801379,0.0007288307,0.0012676865,0.002213478,-1.5258789e-05,0.0001373291,-0.00010681152
2019-07-01T20:23:28.457Z,0.010898709,-0.012186909,0.99385,0.23904419,-0.21176147,9.801239,2.7786255,-15.679932,-38.74817,0.23862338,-0.21414432,9.801408,-0.0007837564,0.00094772875,-0.0006055832,4.5776367e-05,1.5258789e-05,-0.00010681152
2019-07-01T20:23:28.527Z,0.010893409,-0.012142581,0.99385065,0.23474121,-0.21487427,9.800995,3.7643433,-15.25116,-38.6261,0.23842485,-0.21329187,9.801431,-0.0003414154,0.001758799,7.43866e-05,0.00016784668,7.6293945e-05,7.6293945e-05
2019-07-01T20:23:28.770Z,0.010842991,-0.012147956,0.99386394,0.24023438,-0.21343994,9.801712,1.9683838,-16.033936,-37.65564,0.2374288,-0.21353278,9.80145,-0.001731664,-0.0015945137,-0.0007638931,0.00010681152,0.0001373291,-0.000289917
2019-07-01T20:23:28.979Z,0.010869844,-0.012142656,0.9938568,0.23857117,-0.21655273,9.797409,2.4765015,-15.419006,-37.47406,0.23795421,-0.21335685,9.80144,0.0015689433,-8.842349e-05,0.00028705597,0.00016784668,0.00019836426,-0.000289917
2019-07-01T20:23:29.121Z,0.010873818,-0.0121794725,0.9938564,0.23808289,-0.21296692,9.799088,2.4612427,-15.708923,-37.983704,0.23811048,-0.214066,9.801421,0.0009754598,-0.0015629679,-0.0030107498,-7.6293945e-05,0.0001373291,-0.00012207031
2019-07-01T20:23:29.397Z,0.010851934,-0.012191666,0.99386233,0.237854,-0.21774292,9.801727,1.9134521,-15.153503,-39.13269,0.23769869,-0.21436337,9.801425,-0.00029198825,0.00016929209,6.9618225e-05,-7.6293945e-05,0.00019836426,-0.000289917
2019-07-01T20:23:29.605Z,0.010849578,-0.012233557,0.9938636,0.2400055,-0.21511841,9.800766,3.0899048,-16.027832,-38.22937,0.23773904,-0.21518877,9.801406,0.0006161928,-0.0021066666,0.000995636,4.5776367e-05,1.5258789e-05,-0.00016784668
2019-07-01T20:23:29.815Z,0.010878644,-0.012233079,0.993856,0.23664856,-0.21440125,9.803635,3.3676147,-14.982605,-39.157104,0.23831888,-0.21510115,9.801394,0.0014623553,0.00020897388,0.00066185,-1.5258789e-05,-4.5776367e-05,-0.00012207031
2019-07-01T20:23:30.023Z,0.010849859,-0.012233587,0.9938635,0.23880005,-0.21583557,9.801956,3.768921,-15.332031,-37.434387,0.23774472,-0.2151886,9.801406,-0.0013198256,6.54459e-05,0.0012388229,-0.00019836426,7.6293945e-05,-4.5776367e-05
2019-07-01T20:23:30.233Z,0.010856987,-0.012241737,0.9938618,0.23832703,-0.21511841,9.802444,2.4337769,-16.21399,-38.842773,0.23790419,-0.21532878,9.8014,0.0006542802,0.00022186339,0.0014677048,0.00010681152,0.00019836426,-0.00010681152
2019-07-01T20:23:30.413Z,0.010859706,-0.012234903,0.99386096,0.23904419,-0.21440125,9.801483,3.0944824,-15.881348,-38.198853,0.23794422,-0.21518779,9.8014,0.00083866715,-0.00038811564,0.00033664703,4.5776367e-05,-4.5776367e-05,-0.00016784668
2019-07-01T20:23:30.650Z,0.010885376,-0.012225849,0.9938541,0.23832703,-0.21487427,9.802673,2.4002075,-15.275574,-37.895203,0.23843828,-0.21494162,9.801394,0.0005995482,0.0007902384,-0.00088977814,-0.0001373291,1.5258789e-05,-4.5776367e-05
2019-07-01T20:23:30.750Z,0.010883038,-0.012216772,0.9938546,0.24023438,-0.21511841,9.801239,2.558899,-15.338135,-37.913513,0.23837262,-0.21477047,9.8014,-6.0081482e-05,0.0003822595,0.00067806244,-1.5258789e-05,0.0001373291,-0.00016784668
2019-07-01T20:23:31.172Z,0.010893281,-0.012278658,0.9938529,0.23951721,-0.21655273,9.803146,2.7069092,-15.617371,-37.9776,0.23870651,-0.21595289,9.801366,-0.00039048493,-0.0013070554,-0.000333786,-1.5258789e-05,-9.1552734e-05,-0.00010681152
2019-07-01T20:23:31.201Z,0.0109049175,-0.012286469,0.99385005,0.23904419,-0.21702576,9.800522,2.1438599,-15.658569,-37.73651,0.2389554,-0.21607423,9.801357,0.00031481683,-0.00021797419,0.00057315826,4.5776367e-05,7.6293945e-05,-0.00022888184
2019-07-01T20:23:31.486Z,0.010901198,-0.012291119,0.99385107,0.24024963,-0.2163086,9.805069,2.0706177,-15.440369,-38.0661,0.23889075,-0.21617517,9.801356,0.00014217198,-0.00061151385,-0.000579834,4.5776367e-05,0.0001373291,-0.00010681152