timestamp,rotationVector_x,rotationVector_y,rotationVector_z,accelerometer_x,accelerometer_y,accelerometer_z,magneticField_x,magneticField_y,magneticField_z,gravity_x,gravity_y,gravity_z,linearAcceleration_x,linearAcceleration_y,linearAcceleration_z,gyroscope_x,gyroscope_y,gyroscope_z
2019-07-01T19:04:22.558Z,-0.0019053186,-0.0065328437,0.48983398,0.093322754,-0.088531494,9.8033905,11.346436,8.728027,-47.5708,0.093398005,-0.09534114,9.805742,-0.0007930249,0.0001116544,0.00022411346,0.00010681152,0.00016784668,-0.00022888184
2019-07-01T19:04:22.751Z,-0.0019026689,-0.006543759,0.4898554,0.093322754,-0.095718384,9.791428,12.658691,9.09729,-46.418762,0.09360774,-0.09540299,9.805739,-4.5984983e-05,-0.0007831678,0.0009422302,0.00016784668,-0.00012207031,-0.00015258789
2019-07-01T19:04:22.961Z,-0.0019132646,-0.006521893,0.4898193,0.093322754,-0.088531494,9.8033905,12.187195,9.359741,-46.421814,0.093136035,-0.095370226,9.805744,-5.9477985e-05,-0.00034605712,-0.00064754486,0.00010681152,0.00022888184,-4.5776367e-05
2019-07-01T19:04:23.159Z,-0.0019213913,-0.006521226,0.4898282,0.090927124,-0.102890015,9.817749,10.824585,9.487915,-46.64154,0.09304557,-0.095503725,9.805743,0.000276424,-0.0006868988,-0.00028133392,0.00010681152,0.00012207031,-0.000289917
2019-07-01T19:04:23.367Z,-0.0019432463,-0.006515976,0.48984438,0.102890015,-0.095718384,9.812973,11.872864,9.635925,-47.105408,0.09274407,-0.095828705,9.805743,-0.00014062226,-0.00060462207,0.00028896332,-1.5258789e-05,0.00012207031,-0.000289917
2019-07-01T19:04:23.556Z,-0.0019161263,-0.0065373713,0.48985818,0.090927124,-0.098098755,9.800995,11.575317,8.451843,-47.488403,0.093368925,-0.095572025,9.80574,0.002351597,0.00033973902,-0.0009202957,4.5776367e-05,0.000289917,-0.00016784668
2019-07-01T19:04:23.778Z,-0.0019362575,-0.0065581044,0.4899313,0.100494385,-0.098098755,9.800995,12.477112,8.955383,-48.251343,0.09352193,-0.09612327,9.805734,5.3025782e-05,-0.0010377243,-0.0012540817,-1.5258789e-05,-6.1035156e-05,-0.00016784668
2019-07-01T19:04:23.977Z,-0.0019169503,-0.0065382356,0.48986122,0.093322754,-0.095718384,9.810577,11.099243,8.563232,-47.14508,0.093375444,-0.095594734,9.805739,-0.0002930537,0.0020392314,0.000916481,-0.0002593994,0.0,-0.00022888184
2019-07-01T19:04:24.177Z,-0.0019019386,-0.0065390943,0.48984385,0.090927124,-0.093322754,9.808182,11.575317,8.375549,-47.050476,0.09353626,-0.09534445,9.80574,0.00076083094,0.0003299415,-0.0019445419,4.5776367e-05,0.00012207031,-0.00035095215
2019-07-01T19:04:24.377Z,-0.0019166304,-0.0065354854,0.48985454,0.088531494,-0.095718384,9.800995,12.882996,8.9782715,-47.73712,0.09333223,-0.09556213,9.80574,0.0004728213,-0.0003946349,0.0007762909,-1.5258789e-05,0.00022888184,-0.000289917
2019-07-01T19:04:24.578Z,-0.0019648205,-0.0065305354,0.48990527,0.098098755,-0.098098755,9.810577,11.967468,9.93042,-46.90094,0.09277898,-0.09634394,9.8057375,-0.0008815229,-0.00057400763,4.196167e-05,-0.0002593994,6.1035156e-05,-0.000289917
2019-07-01T19:04:24.783Z,-0.0019496017,-0.006529023,0.48988226,0.100494385,-0.095718384,9.800995,12.333679,9.156799,-47.14966,0.0929019,-0.09606675,9.805739,0.0006663501,0.0005911067,0.0016241074,-1.5258789e-05,0.00010681152,-0.00016784668
2019-07-01T19:04:24.982Z,-0.0019398442,-0.006518847,0.48984653,0.093322754,-0.090927124,9.8033905,12.57782,9.014893,-45.977783,0.0928256,-0.09579834,9.805743,0.0009656474,0.00057291985,0.0012426376,-1.5258789e-05,0.000289917,-0.000289917
2019-07-01T19:04:25.189Z,-0.0019252117,-0.0065108985,0.4898096,0.090927124,-0.100494385,9.7986145,12.481689,8.950806,-47.573853,0.09283433,-0.09546786,9.805746,0.00048223883,0.0004730001,0.00034809113,4.5776367e-05,0.00012207031,-0.00022888184
2019-07-01T19:04:25.387Z,-0.001951085,-0.006517101,0.48985702,0.088531494,-0.093322754,9.8033905,11.456299,9.237671,-46.417236,0.09268659,-0.095974885,9.805742,-0.000794895,-0.001181215,-0.002005577,4.5776367e-05,-0.00012207031,-0.000289917
2019-07-01T19:04:25.595Z,-0.00194714,-0.006477097,0.48976088,0.095718384,-0.093322754,9.812973,12.394714,8.647156,-46.95282,0.09205107,-0.09551294,9.805753,-0.00039870292,0.0009916201,-0.0010137558,-1.5258789e-05,0.00022888184,-3.0517578e-05
2019-07-01T19:04:25.799Z,-0.0019026463,-0.0065143653,0.48978847,0.08375549,-0.102890015,9.808182,12.5,9.085083,-46.188354,0.0931127,-0.09511306,9.805747,0.0023615062,0.000829041,0.0017137527,-1.5258789e-05,6.1035156e-05,-0.00035095215
2019-07-01T19:04:25.998Z,-0.0019274191,-0.006501438,0.48979092,0.095718384,-0.114852905,9.824936,12.028503,9.649658,-47.639465,0.092653416,-0.09541273,9.805748,-0.00028987974,-0.0012538359,-0.00045871735,0.00016784668,0.00016784668,-0.00035095215
2019-07-01T19:04:26.207Z,-0.0017861904,-0.0066260654,0.4898929,-0.01675415,-0.0382843,9.918243,14.971924,8.517456,-45.724487,0.09613003,-0.09420628,9.805726,-0.005967878,0.00045736134,0.010258675,0.00047302246,-0.0033721924,-0.0009613037
2019-07-01T19:04:26.407Z,-0.005356138,0.0022855604,0.49439374,-8.035095,0.38763428,6.9272156,42.308044,9.121704,-20.896912,-0.09090161,-0.06915037,9.8059845,0.2559289,0.09845917,0.02890873,-0.012649536,0.16278076,0.017852783
2019-07-01T19:04:26.607Z,-0.2853877,0.33647266,0.46635953,-17.003403,0.08375549,-8.111664,33.477783,7.0129395,34.1568,-7.6701975,-1.2139304,5.988725,2.34616,0.23138356,1.9370608,-0.59620667,4.663315,-0.19998169
2019-07-01T19:04:26.814Z,-0.53927726,0.6787779,0.304185,-5.517853,-1.6055908,-7.668991,18.759155,9.09729,43.4906,-8.47413,-0.12676932,-4.9339094,-1.5811205,-1.1122265,6.6092706,-0.7921753,6.226593,0.6802826
2019-07-01T19:04:27.019Z,-0.58076525,0.7633151,0.1105505,-1.7826538,0.5886383,-9.994827,-5.5526733,9.854126,47.813416,-5.158658,-1.3117832,-8.236375,-0.975574,-0.42213702,0.32037163,0.73402405,2.5129242,-0.067733765
2019-07-01T19:04:27.222Z,-0.580337,0.80805475,0.026139524,0.78245544,2.622528,-0.6197357,-16.131592,9.465027,44.769287,-1.8482026,-0.69940346,-9.605487,-0.16536617,-0.20109123,-0.31215858,-0.24679565,1.9187317,0.2711792
2019-07-01T19:04:27.428Z,-0.5647763,0.82395047,0.032326177,0.3254242,0.29910278,-9.997208,-14.590454,7.888794,45.36743,-1.1610526,0.14184819,-9.736644,0.6489978,-0.5143894,2.4182072,-0.4293213,0.4995575,0.27624512
2019-07-01T19:04:27.626Z,-0.5584573,0.827611,0.037231427,0.12921143,0.1483612,-9.820145,-15.019226,7.3547363,44.52057,-1.0963411,0.13973387,-9.744172,1.1055785,-0.03512737,-0.48253727,-7.6293945e-05,0.00090026855,-0.00022888184
2019-07-01T19:04:27.820Z,-0.55609083,0.8294062,0.035462305,0.023925781,0.13639832,-9.772293,-15.220642,8.062744,45.65277,-1.0355916,0.1418711,-9.750786,1.0543697,0.02933906,-0.43444157,-0.00044250488,0.0005340576,-0.00035095215
2019-07-01T19:04:28.026Z,-0.55453444,0.83063084,0.033636544,0.071777344,0.110076904,-9.7986145,-14.932251,7.5057983,44.699097,-0.9781417,0.13920988,-9.756754,1.0051594,-0.038209245,-0.41924763,0.00010681152,0.00035095215,-0.0005950928
2019-07-01T19:04:28.226Z,-0.5526863,0.83202344,0.032093335,0.08135986,0.1483612,-9.82254,-14.692688,7.446289,44.82727,-0.9236584,0.14125925,-9.762033,0.9501871,0.028022677,-0.39980507,-0.00044250488,0.00048828125,-0.00047302246
2019-07-01T19:04:28.430Z,-0.5438615,0.83861583,0.0217044,0.033493042,0.095718384,-9.8033905,-15.98053,7.357788,45.239258,-0.5869957,0.12645972,-9.788249,0.6346164,-0.023959838,-0.26632404,0.0004119873,0.00036621094,-0.0007171631
2019-07-01T19:04:28.637Z,-0.53154874,0.8467944,0.015858868,0.095718384,0.17706299,-9.812973,-14.260864,7.9803467,45.599365,-0.36443132,0.13841474,-9.798899,0.42590776,0.023318857,-0.18023396,-0.00062561035,0.0005493164,-0.00047302246
2019-07-01T19:04:28.840Z,-0.5272022,0.84964013,0.011449912,0.047851562,0.07896423,-9.796219,-15.194702,7.2021484,44.044495,-0.22163141,0.12674533,-9.803326,0.27670097,-0.01973246,-0.11502075,0.00047302246,0.0004272461,-0.000289917
2019-07-01T19:04:29.043Z,-0.51949304,0.8544229,0.0092407325,0.055038452,0.19142151,-9.829712,-14.041138,7.637024,44.914246,-0.12349118,0.13701929,-9.804915,0.19098216,0.0190887,-0.0825758,-0.00062561035,0.0005340576,-0.0005340576
2019-07-01T19:04:29.245Z,0.5155258,-0.8568433,-0.0072275843,0.062210083,0.06700134,-9.7986145,-14.204407,7.626343,44.692993,-0.06176812,0.12826878,-9.805616,0.12151024,-0.014666036,-0.0508976,0.0005340576,0.00018310547,-0.00035095215
2019-07-01T19:04:29.439Z,0.5068607,-0.86199933,-0.006476167,0.057434082,0.20100403,-9.82254,-13.980103,8.876038,45.542908,-0.01831473,0.1365775,-9.805681,0.083821096,0.014143333,-0.0356884,-0.00074768066,0.0006713867,-0.0005340576
2019-07-01T19:04:29.661Z,0.5027986,-0.8643785,-0.0054546273,0.057434082,0.06460571,-9.793823,-14.389038,8.5494995,46.324158,0.008642716,0.12879097,-9.8058,0.052625,-0.01341176,-0.02218628,0.00047302246,0.00030517578,-0.00076293945
2019-07-01T19:04:29.858Z,0.5003268,-0.8658081,-0.005285834,0.06460571,0.1986084,-9.810577,-15.058899,8.224487,44.999695,0.026817298,0.13523197,-9.805681,0.033994507,0.010671243,-0.016399384,-0.00062561035,0.00061035156,-0.0005950928
2019-07-01T19:04:30.051Z,0.49709868,-0.86766654,-0.0047692438,0.059814453,0.062210083,-9.793823,-13.4552,8.111572,44.836426,0.03845655,0.12983428,-9.805716,0.022600263,-0.00863114,-0.0075769424,0.0005340576,0.00018310547,-0.0005340576
2019-07-01T19:04:30.258Z,0.49572086,-0.8684516,-0.004726849,0.071777344,0.19142151,-9.820145,-14.982605,8.232117,44.395447,0.04778506,0.13402276,-9.805618,0.016132772,0.006516516,-0.006649971,-0.00050354004,0.0006713867,-0.00076293945
2019-07-01T19:04:30.458Z,0.4966895,-0.8678989,-0.004402962,0.052642822,0.07417297,-9.808182,-14.839172,7.727051,45.118713,0.052976437,0.12981357,-9.805648,0.009022761,-0.0062953383,-0.0053930283,0.0005340576,0.00036621094,-0.0005340576
2019-07-01T19:04:30.665Z,0.49544692,-0.8686071,-0.0044297646,0.071777344,0.19142151,-9.810577,-13.407898,7.3883057,44.763184,0.056910727,0.1324809,-9.805591,0.0057949238,0.0025000274,-0.004090309,-0.00074768066,0.0005493164,-0.0004119873
2019-07-01T19:04:30.870Z,0.49419686,-0.86931914,-0.004266628,0.055038452,0.07417297,-9.808182,-14.970398,8.526611,44.229126,0.060179684,0.13046852,-9.805598,0.005619947,-0.0017220229,-0.0012845993,0.0005950928,0.00024414062,-0.000289917
2019-07-01T19:04:31.072Z,0.49397618,-0.86944383,-0.004278123,0.07896423,0.17706299,-9.812973,-15.493774,7.4661255,44.940186,0.061852053,0.13164386,-9.805572,0.00084131956,0.0011427552,-0.0027799606,-0.00032043457,0.00065612793,-0.000289917
2019-07-01T19:04:31.272Z,0.49397093,-0.8694469,-0.0042008013,0.06700134,0.086135864,-9.791428,-13.993835,8.586121,45.10498,0.06339091,0.13077317,-9.805573,0.002167061,-0.00061909854,-0.001209259,0.000289917,0.00024414062,-0.0004119873
2019-07-01T19:04:31.473Z,0.4937797,-0.8695548,-0.0041760947,0.071777344,0.16989136,-9.796219,-14.569092,8.403015,44.792175,0.06550859,0.13138817,-9.805551,0.0022031218,0.0002052486,0.00078201294,-0.0002593994,0.0005340576,-0.0005950928
2019-07-01T19:04:31.674Z,0.49378505,-0.8695518,-0.004194292,0.052642822,0.098098755,-9.808182,-14.265442,7.9086304,45.507812,0.06511112,0.13157377,-9.805552,-0.0021867752,0.0009887516,0.001162529,0.00016784668,0.00036621094,-0.0005340576
2019-07-01T19:04:31.882Z,0.4938241,-0.8695298,-0.004162691,0.059814453,0.16989136,-9.820145,-15.098572,8.943176,45.829773,0.06538647,0.13102366,-9.805557,-0.001753442,-0.0030252188,-0.0025959015,-0.00050354004,0.00061035156,-0.00064086914
2019-07-01T19:04:32.099Z,0.49370113,-0.8695991,-0.0042202086,0.062210083,0.090927124,-9.808182,-14.430237,7.749939,45.635986,0.06533072,0.13226944,-9.805541,-0.0012099445,0.0024262965,-0.00013637543,-1.5258789e-05,0.000289917,-0.00035095215
2019-07-01T19:04:32.289Z,0.49386922,-0.86950433,-0.004125941,0.07417297,0.1603241,-9.812973,-14.291382,7.3242188,45.31555,0.06570942,0.13038543,-9.805563,-0.001115799,-0.004066661,-9.6321106e-05,-7.6293945e-05,0.00048828125,-0.00016784668
2019-07-01T19:04:32.493Z,0.49353436,-0.86969316,-0.0042462484,0.050247192,0.105285645,-9.808182,-14.34021,8.128357,44.80133,0.06625895,0.13335647,-9.805519,1.039356e-05,0.0063536614,-0.0006952286,0.00010681152,0.000289917,-0.00045776367
2019-07-01T19:04:32.695Z,0.49380645,-0.8695397,-0.004212599,0.06700134,0.1531372,-9.812973,-14.546204,8.914185,44.818115,0.06457413,0.13168515,-9.805553,-0.0033226833,-0.0039337426,0.0004901886,-0.00015258789,-1.5258789e-05,0.0001373291
2019-07-01T19:04:32.899Z,0.49366662,-0.86961854,-0.004294851,0.057434082,0.117248535,-9.820145,-14.927673,7.5790405,44.789124,0.06418604,0.13329743,-9.805534,-0.00055063516,0.004028216,0.001124382,0.00021362305,-6.1035156e-05,1.5258789e-05
2019-07-01T19:04:33.102Z,0.4938271,-0.86952806,-0.0042049205,0.06939697,0.14596558,-9.805786,-14.321899,8.644104,44.14978,0.064545244,0.13149887,-9.805556,0.0014888793,-0.0037338287,0.00091362,-3.0517578e-05,-0.00019836426,-0.00022888184
2019-07-01T19:04:33.305Z,0.49374995,-0.8695715,-0.004296729,0.062210083,0.117248535,-9.800995,-13.760376,8.529663,44.78302,0.06343456,0.1329265,-9.805544,-0.0017009303,0.0022592098,0.00076007843,-0.00015258789,-0.0001373291,7.6293945e-05
2019-07-01T19:04:33.496Z,0.49401382,-0.8694227,-0.004176468,0.06460571,0.14117432,-9.796219,-15.003967,7.6446533,44.955444,0.06349291,0.13028902,-9.805579,0.00063510984,-0.0051460117,-0.00044727325,3.0517578e-05,-0.0001373291,0.0002593994
2019-07-01T19:04:33.706Z,0.49389842,-0.86948776,-0.004219223,0.062210083,0.13877869,-9.815353,-15.254211,7.408142,45.144653,0.06365702,0.13132836,-9.805564,0.00019363314,0.00586088,0.0006608963,0.00015258789,-7.6293945e-05,0.0001373291
2019-07-01T19:04:33.900Z,0.49358317,-0.86966556,-0.0043071914,0.062210083,0.13400269,-9.812973,-13.621521,7.876587,45.62683,0.0646639,0.13383351,-9.805524,0.0018404201,0.0044540614,-0.002049446,-9.1552734e-05,-1.5258789e-05,1.5258789e-05
2019-07-01T19:04:34.101Z,0.49392867,-0.8694707,-0.004213721,0.06460571,0.124420166,-9.8033905,-15.449524,8.262634,46.157837,0.06350397,0.13112213,-9.805568,-0.0020232722,-0.005048707,-0.001200676,9.1552734e-05,-7.6293945e-05,0.0001373291
2019-07-01T19:04:34.312Z,0.49382275,-0.86953044,-0.004242452,0.06460571,0.13639832,-9.800995,-14.122009,7.5546265,45.204163,0.06385775,0.13195425,-9.805554,0.0012264326,0.0015398711,0.0007867813,-3.0517578e-05,-0.0001373291,0.0001373291
2019-07-01T19:04:34.522Z,0.49392927,-0.86947036,-0.0042114025,0.059814453,0.12921143,-9.796219,-14.936829,7.2052,45.768738,0.063543625,0.13109244,-9.805568,0.00034417957,-0.0016383976,0.0027647018,3.0517578e-05,-0.0002593994,0.00019836426
2019-07-01T19:04:34.717Z,0.49385056,-0.86951476,-0.0042582816,0.057434082,0.1268158,-9.784256,-15.852356,7.926941,48.068237,0.06331362,0.13200669,-9.805557,-0.00062194467,0.0012648851,-0.0018320084,-0.00015258789,4.5776367e-05,-4.5776367e-05
2019-07-01T19:04:34.923Z,0.49379975,-0.86954343,-0.0042431573,0.06700134,0.13160706,-9.824936,-14.204407,7.6293945,44.465637,0.06404171,0.13207096,-9.805552,0.001276128,-0.00023014843,0.00053691864,-9.1552734e-05,4.5776367e-05,1.5258789e-05
2019-07-01T19:04:35.123Z,0.49381697,-0.8695337,-0.004239068,0.06460571,0.12921143,-9.810577,-14.039612,7.637024,44.763184,0.06397268,0.13194227,-9.805553,0.00015093386,0.00011909008,-0.0012369156,9.1552734e-05,-7.6293945e-05,0.0002593994
2019-07-01T19:04:35.328Z,0.4938621,-0.86950827,-0.004250354,0.052642822,0.13877869,-9.812973,-14.176941,7.9071045,46.409607,0.06336757,0.13186036,-9.805558,-0.0013948902,-0.00051517785,0.0001296997,-9.1552734e-05,4.5776367e-05,0.0001373291
2019-07-01T19:04:35.526Z,0.49385804,-0.86951053,-0.004256944,0.06700134,0.13639832,-9.815353,-14.657593,8.099365,45.487976,0.06327503,0.13195582,-9.805559,0.00012506545,0.0003362298,-0.0021400452,3.0517578e-05,-7.6293945e-05,-4.5776367e-05
2019-07-01T19:04:35.735Z,0.49384856,-0.8695159,-0.00427238,0.062210083,0.13400269,-9.805786,-15.298462,8.280945,44.947815,0.06305846,0.13217945,-9.805557,-0.00037749112,-0.00036473572,-0.00063705444,-0.00021362305,-1.5258789e-05,0.0001373291
2019-07-01T19:04:35.936Z,0.49379492,-0.8695461,-0.004270824,0.06460571,0.13639832,-9.8033905,-14.350891,7.9086304,44.75708,0.06354867,0.1324142,-9.80555,0.0015121251,0.00058978796,-0.0001077652,3.0517578e-05,-0.0001373291,1.5258789e-05
2019-07-01T19:04:36.140Z,0.49381316,-0.86953586,-0.004286376,0.06700134,0.13639832,-9.812973,-14.183044,8.062744,44.856262,0.063091986,0.13250853,-9.805552,-0.0006470606,4.030764e-05,0.0026445389,-3.0517578e-05,-7.6293945e-05,0.00019836426
2019-07-01T19:04:36.343Z,0.49378172,-0.8695535,-0.0043329443,0.057434082,0.1268158,-9.812973,-14.369202,7.394409,45.106506,0.062462427,0.13319635,-9.805547,-0.00049198046,0.0015005618,-0.00047302246,3.0517578e-05,-0.00019836426,1.5258789e-05
2019-07-01T19:04:36.573Z,0.4938946,-0.8694899,-0.0042675557,0.071777344,0.12921143,-9.808182,-15.3289795,7.548523,45.176697,0.06275639,0.13190636,-9.805562,0.00016323477,-0.002237931,0.00096702576,9.1552734e-05,0.00010681152,0.0001373291
2019-07-01T19:04:36.749Z,0.49396712,-0.86944896,-0.004242233,0.057434082,0.14117432,-9.755539,-13.551331,7.6644897,45.3537,0.062623255,0.131271,-9.805572,-0.00042834878,-0.00088594854,-0.0023851395,9.1552734e-05,4.5776367e-05,1.5258789e-05
2019-07-01T19:04:36.949Z,0.4938299,-0.8695264,-0.004301846,0.071777344,0.119644165,-9.812973,-14.741516,7.9452515,45.988464,0.062649384,0.13260877,-9.805553,0.0005097836,0.0023141056,0.0009622574,-9.1552734e-05,-0.00012207031,0.0001373291
2019-07-01T19:04:37.153Z,0.49388638,-0.8694945,-0.004256944,0.062210083,0.12921143,-9.834503,-15.757751,7.0114136,44.857788,0.06303181,0.13182215,-9.805561,0.0008393526,-0.0009686202,-0.0015935898,0.00015258789,-1.5258789e-05,-0.00010681152
2019-07-01T19:04:37.357Z,0.49386945,-0.8695041,-0.004259402,0.059814453,0.12921143,-9.808182,-14.176941,8.139038,44.94629,0.06312965,0.13193047,-9.805559,0.00026453286,0.0003491342,-0.0012140274,3.0517578e-05,-1.5258789e-05,-4.5776367e-05
2019-07-01T19:04:37.555Z,0.49387854,-0.86949897,-0.004256091,0.06939697,0.13160706,-9.805786,-15.132141,8.363342,44.958496,0.06311565,0.13184929,-9.80556,-0.00020876527,-0.0002847761,0.00029850006,-3.0517578e-05,4.5776367e-05,1.5258789e-05
2019-07-01T19:04:37.756Z,0.4938671,-0.86950547,-0.0042201495,0.062210083,0.13639832,-9.805786,-14.501953,7.963562,45.603943,0.06390792,0.13148679,-9.80556,0.00092770904,-0.0008703023,0.0019569397,-3.0517578e-05,0.00016784668,-4.5776367e-05
2019-07-01T19:04:37.962Z,0.49390092,-0.86948633,-0.0042271465,0.059814453,0.1268158,-9.810577,-14.198303,7.5439453,45.80841,0.063482545,0.13140838,-9.805564,-0.001037702,-0.0002937764,0.0014562607,-3.0517578e-05,4.5776367e-05,1.5258789e-05
2019-07-01T19:04:38.174Z,0.4938012,-0.8695426,-0.004270147,0.059814453,0.13400269,-9.8033905,-14.060974,7.1243286,44.961548,0.063507795,0.13237673,-9.805551,0.00012204796,0.0018397421,-0.001572609,-3.0517578e-05,-1.5258789e-05,-4.5776367e-05
2019-07-01T19:04:38.373Z,0.49375686,-0.8695676,-0.004288197,0.06460571,0.13877869,-9.805786,-15.136719,8.139038,45.591736,0.0635398,0.13279493,-9.805545,0.0005831495,0.0006991178,0.0015058517,-3.0517578e-05,-0.0001373291,1.5258789e-05
2019-07-01T19:04:38.575Z,0.49381155,-0.86953676,-0.0042795474,0.06460571,0.13160706,-9.805786,-15.036011,8.659363,45.39032,0.06323767,0.13243699,-9.805552,-0.00031735748,-0.0008444637,0.00084114075,-3.0517578e-05,-7.6293945e-05,1.5258789e-05
2019-07-01T19:04:38.777Z,0.49379143,-0.8695481,-0.004277807,0.062210083,0.124420166,-9.812973,-13.989258,8.580017,45.86029,0.063443765,0.13251159,-9.80555,0.0009263754,-0.00043024123,8.106232e-05,-0.00015258789,-0.0001373291,0.00019836426
2019-07-01T19:04:38.974Z,0.49384162,-0.8695198,-0.0041991915,0.059814453,0.13160706,-9.812973,-14.781189,7.220459,45.239258,0.06453147,0.13136415,-9.805557,0.0024633035,-0.0028832704,5.2452087e-05,-0.00015258789,-7.6293945e-05,0.0001373291
2019-07-01T19:04:39.183Z,0.49377894,-0.8695552,-0.0042311954,0.06700134,0.13400269,-9.812973,-14.903259,7.9345703,45.993042,0.06445114,0.13203035,-9.805551,-9.920448e-05,0.0009912848,-0.00092220306,-9.1552734e-05,-1.5258789e-05,7.6293945e-05
2019-07-01T19:04:39.383Z,0.49375328,-0.86956966,-0.004244858,0.057434082,0.13160706,-9.796219,-15.461731,8.045959,45.6604,0.06440735,0.1323095,-9.805546,0.00043135136,-0.00025232136,-0.0004644394,-0.00021362305,-0.0001373291,0.0002593994
2019-07-01T19:04:39.589Z,0.49379763,-0.8695446,-0.004239211,0.071777344,0.13400269,-9.8033905,-14.427185,7.901001,45.211792,0.06413592,0.1320351,-9.805552,-0.0007266924,-0.0011581928,0.0014467239,-0.00015258789,4.5776367e-05,-4.5776367e-05
2019-07-01T19:04:39.789Z,0.49370024,-0.8695996,-0.004292229,0.06460571,0.13400269,-9.810577,-14.627075,8.755493,45.848083,0.06394803,0.13310859,-9.805538,-0.00031463057,0.0018172115,-0.0014276505,-9.1552734e-05,-1.5258789e-05,0.0001373291
2019-07-01T19:04:39.992Z,0.49374643,-0.86957353,-0.0042697038,0.06460571,0.13160706,-9.808182,-14.419556,8.042908,45.54138,0.063986465,0.1326298,-9.805545,0.00060305744,-0.000812158,-0.0015907288,3.0517578e-05,-0.0001373291,0.0002593994
2019-07-01T19:04:40.194Z,0.49373472,-0.8695801,-0.0042731087,0.059814453,0.12921143,-9.812973,-14.674377,7.810974,45.051575,0.06402134,0.13272451,-9.805543,0.0005735755,-0.00017853081,0.0016546249,-9.1552734e-05,-0.0001373291,0.0002593994
2019-07-01T19:04:40.401Z,0.49373725,-0.8695787,-0.0042591384,0.057434082,0.13877869,-9.8033905,-15.257263,7.6400757,43.455505,0.06426925,0.1325506,-9.805544,-0.00014641136,-2.5480986e-06,0.00029945374,9.1552734e-05,0.00016784668,-4.5776367e-05
2019-07-01T19:04:40.599Z,0.49364537,-0.8696305,-0.0042866794,0.062210083,0.13400269,-9.815353,-13.94043,8.157349,44.337463,0.06452606,0.13330273,-9.8055315,0.0007863492,0.00067833066,-0.00034236908,9.1552734e-05,-7.6293945e-05,-4.5776367e-05
2019-07-01T19:04:40.803Z,0.49363688,-0.8696353,-0.0042985505,0.06460571,0.1268158,-9.805786,-14.660645,8.180237,44.59839,0.06436979,0.13348038,-9.805531,-1.9937754e-05,9.700656e-06,-0.00039196014,-9.1552734e-05,-7.6293945e-05,7.6293945e-05
2019-07-01T19:04:41.000Z,0.49371386,-0.86959183,-0.004298652,0.071777344,0.13160706,-9.808182,-14.399719,8.480835,45.555115,0.06370708,0.13311882,-9.805539,-0.0015098751,-0.0010656565,-0.000415802,-9.1552734e-05,4.5776367e-05,0.00019836426
2019-07-01T19:04:41.208Z,0.4937489,-0.8695721,-0.004264804,0.059814453,0.13639832,-9.805786,-14.201355,7.626343,44.918823,0.064059794,0.13256133,-9.805546,0.0010045841,-0.001228109,-0.00043964386,-3.0517578e-05,-7.6293945e-05,-4.5776367e-05
2019-07-01T19:04:41.408Z,0.49365148,-0.86962706,-0.0043166135,0.06460571,0.12921143,-9.808182,-14.375305,7.322693,44.789124,0.0638957,0.13362098,-9.8055315,-0.00026716292,0.0015387088,-0.00045871735,-0.00015258789,-1.5258789e-05,1.5258789e-05
2019-07-01T19:04:41.614Z,0.49374455,-0.86957455,-0.0043055313,0.06460571,0.14356995,-9.810577,-14.277649,7.6919556,45.162964,0.06331093,0.13305396,-9.805543,-0.00063023716,-0.001011014,-0.00061893463,3.0517578e-05,-0.0001373291,-0.00010681152
2019-07-01T19:04:41.815Z,0.4936005,-0.8696558,-0.0043442007,0.06700134,0.12921143,-9.8033905,-14.537048,7.3883057,44.432068,0.06380082,0.13418108,-9.805526,0.0010282323,0.0016852021,-0.00089359283,-0.00015258789,-1.5258789e-05,0.00032043457
2019-07-01T19:04:42.020Z,0.49371785,-0.8695896,-0.0042872913,0.059814453,0.1268158,-9.810577,-13.780212,8.015442,45.133972,0.063892186,0.13296834,-9.80554,0.0002277121,-0.0025780946,0.0024347305,-3.0517578e-05,-1.5258789e-05,-4.5776367e-05
2019-07-01T19:04:42.224Z,0.49366185,-0.86962116,-0.0043301685,0.06700134,0.14117432,-9.805786,-14.556885,8.692932,45.00122,0.06354517,0.13372935,-9.805532,-0.00039108843,0.0004810542,-0.0014123917,-0.0002746582,-7.6293945e-05,1.5258789e-05
2019-07-01T19:04:42.427Z,0.49368083,-0.8696105,-0.004300419,0.06700134,0.13877869,-9.815353,-14.439392,7.6812744,45.092773,0.063956425,0.13329494,-9.805536,0.00087864697,-0.0005284995,0.0008096695,9.1552734e-05,-1.5258789e-05,-4.5776367e-05
2019-07-01T19:04:42.629Z,0.4936712,-0.8696159,-0.004319422,0.06700134,0.13160706,-9.8033905,-14.424133,7.897949,45.588684,0.063672304,0.13356066,-9.805533,-4.0866435e-05,0.0001706928,0.000538826,-9.1552734e-05,-0.0001373291,-4.5776367e-05
2019-07-01T19:04:42.830Z,0.49370545,-0.8695966,-0.0042934753,0.059814453,0.13400269,-9.800995,-14.41803,8.041382,45.69397,0.063879095,0.13309838,-9.805538,0.0004843697,-0.0010461509,-0.00011920929,-3.0517578e-05,-1.5258789e-05,-0.00021362305
2019-07-01T19:04:43.029Z,0.4937424,-0.8695758,-0.004274135,0.06700134,0.14117432,-9.817749,-14.76593,7.510376,45.448303,0.063935585,0.13270019,-9.805544,0.00065184385,-0.0006580651,-0.0015115738,3.0517578e-05,-0.0001373291,1.5258789e-05
2019-07-01T19:04:43.236Z,0.49376625,-0.8695623,-0.004261577,0.062210083,0.13160706,-9.800995,-14.978027,8.380127,44.27643,0.063973315,0.1324422,-9.805547,0.00014147907,-0.0013452172,0.0001077652,-0.00021362305,-1.5258789e-05,-0.00015258789
2019-07-01T19:04:43.437Z,0.49373716,-0.8695787,-0.0042772563,0.059814453,0.14356995,-9.793823,-14.186096,8.065796,44.47937,0.06392018,0.132761,-9.805543,-4.5120716e-05,0.0004965067,0.0013532639,-3.0517578e-05,-1.5258789e-05,-0.00021362305
2019-07-01T19:04:43.641Z,0.49366894,-0.8696172,-0.0042680367,0.06460571,0.1268158,-9.815353,-14.021301,8.076477,44.776917,0.06468368,0.13297558,-9.805535,0.0011051744,-0.00042168796,0.0020065308,-0.00021362305,0.00010681152,-4.5776367e-05
2019-07-01T19:04:43.846Z,0.4936584,-0.8696232,-0.004287883,0.06460571,0.13639832,-9.815353,-13.938904,7.850647,46.313477,0.064390995,0.13325532,-9.805533,-0.00051659346,0.00047394633,-0.00217247,-3.0517578e-05,-1.5258789e-05,7.6293945e-05
2019-07-01T19:04:44.050Z,0.4937091,-0.8695946,-0.004283639,0.06700134,0.13400269,-9.808182,-14.237976,8.56781,45.265198,0.06403784,0.13296726,-9.80554,-0.0004106313,-0.0006787628,-0.0009698868,-3.0517578e-05,-7.6293945e-05,7.6293945e-05
2019-07-01T19:04:44.247Z,0.49362203,-0.8696437,-0.004301253,0.071777344,0.13877869,-9.796219,-14.49585,8.18634,45.121765,0.064445056,0.13358164,-9.805528,0.00038843602,0.0013484359,0.00030899048,3.0517578e-05,0.00010681152,0.00019836426
2019-07-01T19:04:44.449Z,0.49368504,-0.86960816,-0.004259418,0.06939697,0.13400269,-9.791428,-15.377808,8.047485,46.261597,0.0647119,0.13279982,-9.805537,0.00035271794,-0.0012217462,0.00068569183,9.1552734e-05,4.5776367e-05,1.5258789e-05
2019-07-01T19:04:44.659Z,0.49362516,-0.8696419,-0.0042723995,0.062210083,0.122039795,-9.812973,-13.7664795,8.155823,45.991516,0.06497504,0.13323228,-9.80553,0.00033620745,0.00050242245,0.00078105927,-9.1552734e-05,4.5776367e-05,0.0001373291
2019-07-01T19:04:44.857Z,0.4936999,-0.8695998,-0.0042387284,0.062210083,0.13160706,-9.805786,-13.737488,8.815002,45.973206,0.064983815,0.13248996,-9.805539,-0.0003900826,-0.0006631911,-0.00011730194,0.00021362305,0.00010681152,-4.5776367e-05
2019-07-01T19:04:45.054Z,0.49377617,-0.8695567,-0.00425352,0.06700134,0.13400269,-9.812973,-14.756775,7.7316284,45.343018,0.06404381,0.1323021,-9.805549,-0.0011296123,-0.0002489686,-0.00039196014,3.0517578e-05,-0.00019836426,0.00019836426
2019-07-01T19:04:45.257Z,0.4937946,-0.86954635,-0.0042240596,0.062210083,0.14117432,-9.784256,-14.880371,8.5998535,45.069885,0.06445459,0.13187386,-9.805552,0.00063225627,-0.0009985715,0.0018129349,-3.0517578e-05,4.5776367e-05,1.5258789e-05
2019-07-01T19:04:45.471Z,0.49375415,-0.8695692,-0.004211193,0.06700134,0.13400269,-9.796219,-15.1397705,8.145142,45.06378,0.065050006,0.13191527,-9.805547,0.000991568,0.00016792119,0.0026426315,3.0517578e-05,4.5776367e-05,7.6293945e-05
2019-07-01T19:04:45.669Z,0.49376953,-0.86956054,-0.0041969256,0.062210083,0.13400269,-9.810577,-13.822937,7.142639,44.42749,0.06519364,0.13167752,-9.80555,0.0005980283,-0.0012844652,-0.001750946,-0.00021362305,-7.6293945e-05,-4.5776367e-05
2019-07-01T19:04:45.868Z,0.4938096,-0.86953795,-0.0041865124,0.062210083,0.14117432,-9.8033905,-15.496826,7.4676514,44.71588,0.06505075,0.13136797,-9.805554,1.99005e-05,-2.1368265e-05,-0.0011644363,0.00015258789,-7.6293945e-05,-0.00010681152
2019-07-01T19:04:46.070Z,0.49382657,-0.86952835,-0.0042164363,0.06939697,0.13639832,-9.810577,-14.685059,7.6705933,44.343567,0.064327486,0.13163486,-9.805556,-0.00069149584,-0.00051805377,-0.00013828278,-0.0002746582,-0.00019836426,0.00019836426
2019-07-01T19:04:46.279Z,0.49371055,-0.8695938,-0.0042398367,0.062210083,0.13160706,-9.810577,-15.757751,8.833313,44.926453,0.06487117,0.13245273,-9.805541,0.00091636926,0.0010446161,5.722046e-05,-0.00015258789,4.5776367e-05,-0.00010681152
2019-07-01T19:04:46.486Z,0.49366516,-0.86961937,-0.0042615924,0.06460571,0.13160706,-9.808182,-14.349365,7.6782227,46.144104,0.0648405,0.13291866,-9.805535,0.00047252327,0.000819698,-0.00043964386,-3.0517578e-05,-0.0001373291,-3.0517578e-05
2019-07-01T19:04:46.701Z,0.4937168,-0.8695902,-0.0042765103,0.06460571,0.13160706,-9.817749,-14.379883,7.1762085,45.062256,0.0641093,0.1328483,-9.805541,-0.0014153495,-4.4941902e-05,0.0016202927,3.0517578e-05,-1.5258789e-05,1.5258789e-05
2019-07-01T19:04:46.877Z,0.49378216,-0.8695534,-0.004228085,0.062210083,0.13639832,-9.8033905,-15.837097,8.293152,47.99347,0.06448355,0.1319791,-9.80555,-0.00012708455,-0.000382483,0.0007829666,3.0517578e-05,-1.5258789e-05,0.00038146973
2019-07-01T19:04:47.077Z,0.49367657,-0.86961293,-0.0042738323,0.059814453,0.13400269,-9.8033905,-14.974976,8.076477,46.10138,0.064506344,0.13300683,-9.805535,0.00033738464,0.0019445419,-0.00028133392,-3.0517578e-05,-7.6293945e-05,0.0001373291
2019-07-01T19:04:47.290Z,0.49378094,-0.86955404,-0.0042307293,0.06939697,0.13400269,-9.808182,-14.649963,8.242798,45.744324,0.06444282,0.13201542,-9.80555,0.0004009381,-0.0025723428,-2.5749207e-05,-0.00015258789,-0.0001373291,7.6293945e-05
2019-07-01T19:04:47.491Z,0.49385,-0.8695151,-0.0042224755,0.06460571,0.12921143,-9.8033905,-13.63678,7.662964,45.056152,0.064009875,0.13159443,-9.805558,-0.00012268871,-0.0019127727,0.001414299,-0.0002746582,-0.00019836426,0.00019836426
2019-07-01T19:04:47.708Z,0.49385104,-0.8695145,-0.004225404,0.06700134,0.124420166,-9.808182,-14.004517,8.441162,44.851685,0.06394435,0.13162343,-9.805558,0.00018017739,-3.3184886e-05,-0.0020885468,-3.0517578e-05,-7.6293945e-05,-4.5776367e-05
2019-07-01T19:04:47.900Z,0.49387318,-0.869502,-0.0042093466,0.06460571,0.13160706,-9.817749,-13.848877,8.305359,44.892883,0.06406447,0.13133301,-9.805561,0.0010067597,-0.00070263445,0.00020599365,-3.0517578e-05,-0.00019836426,-4.5776367e-05
2019-07-01T19:04:48.108Z,0.4937681,-0.8695613,-0.004259891,0.059814453,0.12921143,-9.800995,-13.626099,7.8811646,45.02411,0.06399001,0.13241395,-9.805548,0.00013712794,0.0013331026,0.0006122589,-0.00021362305,-7.6293945e-05,7.6293945e-05
2019-07-01T19:04:48.309Z,0.49372715,-0.8695844,-0.004264129,0.06939697,0.13877869,-9.808182,-14.256287,8.050537,45.913696,0.06425973,0.13265611,-9.805542,0.0013009086,0.0003720969,-0.00023174286,-3.0517578e-05,-0.00019836426,7.6293945e-05
2019-07-01T19:04:48.509Z,0.49370092,-0.86959916,-0.0042874925,0.062210083,0.13639832,-9.815353,-13.366699,8.18634,45.45288,0.06403362,0.13305046,-9.805538,-0.00015611202,0.0009292811,-0.0014247894,3.0517578e-05,-7.6293945e-05,0.0001373291
2019-07-01T19:04:48.711Z,0.49372897,-0.86958337,-0.0042379843,0.062210083,0.12921143,-9.808182,-15.25116,7.4050903,45.370483,0.06474878,0.13234442,-9.805543,0.0012711734,-0.0010225773,-0.002708435,9.1552734e-05,4.5776367e-05,1.5258789e-05
2019-07-01T19:04:48.911Z,0.49252042,-0.87026405,-0.003921494,0.07417297,0.3134613,-9.824936,-15.005493,7.5698853,45.32013,0.08120483,0.13433112,-9.805394,-0.008491121,-0.001086846,-2.0980835e-05,-0.0013122559,0.0107421875,-4.5776367e-05
2019-07-01T19:04:49.116Z,0.4928367,-0.8700789,-0.0029308482,0.18185425,0.06939697,-10.669601,-15.229797,8.071899,44.447327,0.110372536,0.12858024,-9.805186,-0.014011152,-0.0066268295,-0.0074090958,0.0011901855,0.018798828,0.0054626465
2019-07-01T19:04:49.322Z,0.5069219,-0.8548189,0.051122196,4.0821533,-0.62213135,-7.4081726,-20.256042,7.6812744,42.082214,2.1596382,0.12217877,-9.565114,-1.2813718,0.030355826,-0.75052166,0.007369995,1.1079865,-0.026794434
2019-07-01T19:04:49.522Z,0.5240729,-0.7997159,0.15732668,6.106491,0.18902588,-8.669189,-34.831238,7.1487427,32.9834,5.4926577,0.072046466,-8.123787,-1.5539188,-0.009521797,-0.9206381,0.14389038,1.9388275,-0.25300598
2019-07-01T19:04:49.723Z,0.48065725,-0.6903343,0.30531314,9.121445,0.15553284,-2.2253265,-48.391724,6.4971924,10.299683,8.921165,0.07361133,-4.0715814,-1.9080477,0.116587095,-1.9465723,0.06594849,2.8562927,-0.06454468
2019-07-01T19:04:49.929Z,0.4121435,-0.57478726,0.40541595,9.635895,0.18185425,0.8446655,-47.984314,5.241394,-12.399292,9.806022,0.1109735,-0.004759286,-0.39652824,0.00874231,-0.6683604,-0.002960205,2.2011414,-0.021850586
2019-07-01T19:04:50.128Z,0.38291916,-0.53056926,0.43626317,9.769897,0.07896423,0.95951843,-45.12787,4.193115,-22.019958,9.704309,0.099210836,1.4095919,0.015273094,0.04672564,0.43605876,-0.007293701,0.7247925,0.0066833496
2019-07-01T19:04:50.328Z,0.4104661,-0.57262176,0.40623057,9.848862,0.13877869,1.3160553,-47.099304,5.912781,-16.151428,9.805632,0.12220258,0.07103739,-0.04267311,0.030334935,0.9077299,0.014266968,-0.7217407,-0.009994507
2019-07-01T19:04:50.532Z,0.41200954,-0.57732415,0.40263268,9.76033,0.1603241,0.17228699,-46.70868,5.9524536,-17.893982,9.805771,0.11686267,-0.059919108,0.07326698,0.044209607,0.20680861,0.0035095215,-0.0736084,0.0039367676
2019-07-01T19:04:50.736Z,0.39860898,-0.5594219,0.41440204,9.765106,0.23449707,-0.6699829,-45.43152,6.126404,-19.874573,9.790344,0.12063487,0.55227196,0.062041283,0.020799197,0.19747788,-0.008148193,0.31489563,-0.0016326904
2019-07-01T19:04:51.033Z,0.39862093,-0.563282,0.4108429,9.834503,0.21534729,0.83509827,-44.958496,6.0928345,-21.035767,9.794791,0.119505286,0.46708575,0.03310585,0.022073038,0.099922955,-0.0008239746,-0.112213135,0.0001373291
2019-07-01T19:04:51.149Z,0.39643306,-0.5613723,0.41171867,9.757935,0.12921143,0.01914978,-45.620728,5.4595947,-20.152283,9.790849,0.12029985,0.54332733,0.04281044,0.05186777,0.2769271,-0.0022277832,0.032180786,0.00088500977
2019-07-01T19:04:51.343Z,0.39518237,-0.55878574,0.41350377,9.762711,0.22253418,0.7393799,-45.90912,5.937195,-18.533325,9.786292,0.12254894,0.61957234,0.057561874,0.015848458,0.04901111,-0.0005187988,0.03805542,-0.00077819824
2019-07-01T19:04:51.551Z,0.39545766,-0.56227076,0.41018054,9.827316,0.119644165,0.18902588,-46.144104,6.1447144,-18.934631,9.791043,0.12520733,0.53867567,0.02927208,0.03326738,0.58940935,0.0005340576,-0.05784607,-0.00045776367
2019-07-01T19:04:51.754Z,0.39601055,-0.56592524,0.40696678,9.879959,0.15553284,0.26560974,-46.385193,5.973816,-17.903137,9.795552,0.12542722,0.44922787,0.049139023,0.0152952075,0.13724771,0.0007019043,-0.05015564,0.00032043457
2019-07-01T19:04:51.962Z,0.39584675,-0.56826544,0.4046411,9.820145,0.14117432,0.5431671,-46.725464,5.5862427,-17.967224,9.797683,0.1266102,0.39971432,0.045381546,0.025571078,0.08987108,0.0016174316,-0.02810669,0.0001373291
2019-07-01T19:04:52.159Z,0.39374736,-0.5663656,0.40561926,9.789032,0.1986084,0.39482117,-46.47522,5.6747437,-17.581177,9.794357,0.12572208,0.47450593,0.041894913,0.024023727,0.3041362,0.00015258789,0.030838013,0.0011138916
2019-07-01T19:04:52.359Z,0.39074415,-0.5640912,0.40652913,9.791428,0.1531372,0.45942688,-45.803833,6.5307617,-18.719482,9.789205,0.12510559,0.57114106,0.045476913,0.025077112,0.1151284,-0.0009460449,0.046783447,0.00093078613
2019-07-01T19:04:52.569Z,0.3853079,-0.56367695,0.40390453,9.815353,0.14596558,1.105484,-44.799805,5.7281494,-19.528198,9.78327,0.13559058,0.6630487,0.024386406,0.010550067,0.12608635,-0.001739502,0.0154418945,-0.0029144287
2019-07-01T19:04:52.775Z,0.3870405,-0.5662707,0.40234205,9.832108,0.14596558,0.31106567,-46.11969,4.9835205,-19.40155,9.788603,0.13428737,0.5793209,0.013933182,0.015900388,0.41454744,0.0012664795,-0.054748535,0.0011749268
2019-07-01T19:04:52.971Z,0.39012697,-0.5658238,0.4042503,9.841675,0.114852905,0.9308014,-45.47882,6.4697266,-17.689514,9.790765,0.13163842,0.54219806,0.02474308,0.015911058,-0.05755639,0.002105713,-0.017654419,0.0019226074
2019-07-01T19:04:53.180Z,0.3850725,-0.5633852,0.40417004,9.812973,0.17468262,0.7776642,-45.70465,5.380249,-20.089722,9.782609,0.13399102,0.67305636,0.028765678,0.014967218,0.06308037,-0.002166748,0.06626892,-0.0009613037
2019-07-01T19:04:53.386Z,0.38684952,-0.56298256,0.40533653,9.793823,0.14356995,0.6053772,-46.21277,6.4300537,-18.875122,9.783833,0.13391404,0.655046,0.019440651,0.01573892,0.17671502,0.00064086914,-0.014175415,0.00050354004
2019-07-01T19:04:53.627Z,0.3868281,-0.567039,0.4016844,9.824936,0.1651001,0.50727844,-46.20056,6.5704346,-18.167114,9.789446,0.13190098,0.56546617,0.02073574,0.013657212,0.19785684,0.0011291504,-0.051986694,0.0014801025
2019-07-01T19:04:53.780Z,0.38422304,-0.56701016,0.400422,9.846466,0.13877869,0.80877686,-47.35565,5.606079,-16.427612,9.78702,0.13413742,0.60550404,0.02335167,0.009249434,0.005028069,-0.000579834,0.020889282,-0.0009613037
2019-07-01T19:04:53.982Z,0.37977168,-0.5673711,0.39761475,9.839294,0.112457275,0.8159485,-45.968628,6.2942505,-17.85431,9.783113,0.14129454,0.6641749,0.011351585,0.016067162,0.099048495,3.0517578e-05,0.005065918,0.00038146973
2019-07-01T19:04:54.185Z,0.3771387,-0.56645423,0.39736238,9.800995,0.16749573,0.83270264,-46.12732,4.91333,-19.866943,9.778925,0.13905743,0.7236526,0.011526108,-0.0013977587,0.0057473183,-9.1552734e-05,0.029556274,0.00074768066
2019-07-01T19:04:54.386Z,0.37783855,-0.56353736,0.39991212,9.779465,0.18664551,0.55752563,-46.51642,5.177307,-19.647217,9.774649,0.14647953,0.7779356,0.0031385422,0.005918488,0.08276224,-0.0018615723,0.0068969727,-0.0024871826
2019-07-01T19:04:54.595Z,0.38035977,-0.56591964,0.39911544,9.810577,0.15074158,0.1986084,-46.43097,5.102539,-18.833923,9.781465,0.14304051,0.6876696,0.003909111,0.0023746341,0.07706398,0.0027770996,-0.06695557,0.0025787354
2019-07-01T19:04:54.795Z,0.38303617,-0.56425184,0.40211502,9.810577,0.17706299,0.6699829,-44.8761,5.6427,-18.484497,9.781734,0.13935424,0.6845657,0.004763603,-0.00015489757,-0.05790335,0.0011901855,0.0134887695,0.0019683838
2019-07-01T19:04:54.999Z,0.38211417,-0.5617561,0.4035866,9.774673,0.1531372,0.92362976,-45.169067,6.427002,-19.068909,9.776567,0.14604753,0.7535211,0.003970146,0.006512359,-0.033629835,-0.0018005371,0.044647217,-0.0019378662
2019-07-01T19:04:55.203Z,0.38039416,-0.56094414,0.40324524,9.748352,0.21774292,1.0911255,-45.846558,5.654907,-19.122314,9.773037,0.15074101,0.79712206,0.0019254684,-0.0015352964,-0.03261715,-0.001739502,0.031082153,-0.0029754639
2019-07-01T19:04:55.402Z,0.37953094,-0.5617465,0.4018981,9.774673,0.15553284,0.9906311,-45.394897,4.9560547,-19.358826,9.773378,0.1539094,0.792322,-0.004301071,0.006756231,0.05641842,0.00045776367,-0.017105103,0.0001373291
2019-07-01T19:04:55.610Z,0.38152844,-0.561931,0.4027993,9.82254,0.1531372,0.87098694,-46.080017,5.630493,-17.835999,9.7761,0.15170352,0.75843793,-0.0009870529,0.0027503222,0.029365003,0.0008239746,-0.025238037,0.0019226074
2019-07-01T19:04:55.813Z,0.3794259,-0.5619864,0.4020227,9.856033,0.15074158,0.75852966,-46.02356,5.1254272,-18.165588,9.773776,0.14762309,0.78859705,0.0019598007,-0.005397722,0.039563775,-0.00015258789,0.005493164,0.0006866455
2019-07-01T19:04:56.012Z,0.38206375,-0.5616912,0.403638,9.836899,0.12921143,0.77526855,-46.05713,6.2194824,-18.321228,9.7764015,0.14581567,0.7557048,0.004629135,0.003614664,-0.101953864,9.1552734e-05,0.009277344,0.0019073486
2019-07-01T19:04:56.211Z,0.37777475,-0.560478,0.40275934,9.805786,0.17468262,0.68434143,-46.014404,5.4992676,-19.299316,9.768976,0.14562418,0.846327,-0.0015497208,-0.0045727342,0.0471853,-0.0013122559,0.035110474,-0.0012054443
2019-07-01T19:04:56.412Z,0.3780489,-0.5582156,0.40489334,9.84407,0.088531494,1.1916199,-45.50934,5.8151245,-17.970276,9.7649,0.14705363,0.8919025,0.004429817,0.005240664,-0.053112686,-0.000579834,0.037506104,0.0005645752
2019-07-01T19:04:56.619Z,0.37647876,-0.56020427,0.4023301,9.829712,0.18902588,0.830307,-45.54901,6.8359375,-18.515015,9.766747,0.14655262,0.8715148,-0.005249977,-0.0069206804,0.036849976,-0.0005187988,-0.020217896,-0.0015716553
2019-07-01T19:04:56.819Z,0.37242842,-0.5621997,0.398346,9.784256,0.112457275,0.8039856,-46.081543,5.784607,-18.859863,9.765309,0.1490641,0.88708127,0.000790596,0.0065472573,0.037295043,9.1552734e-05,-0.0014648438,0.00038146973
2019-07-01T19:04:57.026Z,0.37258238,-0.560371,0.40052095,9.82254,0.19381714,0.96191406,-45.79315,6.5948486,-17.799377,9.761879,0.14250395,0.9250951,0.0047473907,-0.010789916,-0.048257887,-0.00064086914,0.032608032,0.0005645752
2019-07-01T19:04:57.218Z,0.3701879,-0.56523293,0.3946856,9.815353,0.1986084,0.4019928,-45.854187,5.433655,-19.017029,9.768433,0.14531617,0.8526421,-0.0072050095,-0.0040412396,0.09848273,0.001373291,-0.03996277,0.0025177002
2019-07-01T19:04:57.420Z,0.37209833,-0.564477,0.39586142,9.674179,0.17228699,1.6582336,-45.500183,5.805969,-16.766357,9.7692795,0.15271862,0.84157777,0.009282112,0.0074883252,-0.18537575,-0.00064086914,0.042022705,-0.0019378662
2019-07-01T19:04:57.655Z,0.37167057,-0.565706,0.39438993,9.82254,0.1603241,0.49531555,-45.581055,6.1080933,-18.739319,9.771032,0.15482843,0.8205748,-0.018280983,-0.0063515455,0.26640153,9.1552734e-05,-0.018203735,-0.0012664795
2019-07-01T19:04:57.824Z,0.37190053,-0.5695143,0.3909883,9.841675,0.088531494,0.825531,-46.203613,6.500244,-18.257141,9.778025,0.15546262,0.73242885,0.003920555,0.007839948,3.0875206e-05,0.001876831,-0.04588318,3.0517578e-05
2019-07-01T19:04:58.031Z,0.37000775,-0.5678587,0.39165556,9.784256,0.18902588,0.74417114,-46.53473,6.4056396,-18.565369,9.773007,0.15386008,0.79690367,0.0003490448,-0.015197843,0.05347985,0.00033569336,0.03211975,0.00044250488
2019-07-01T19:04:58.237Z,0.37076548,-0.5680966,0.3919208,9.827316,0.119644165,1.1246338,-46.07544,5.8532715,-18.544006,9.774348,0.15224881,0.7805949,0.0026988983,0.007703677,-0.0031408072,0.0008239746,-0.008377075,0.0011138916
2019-07-01T19:04:58.443Z,0.37358555,-0.5674143,0.3940503,9.789032,0.18185425,0.69392395,-45.710754,5.003357,-18.73169,9.776416,0.15045792,0.7546187,-0.0055503845,-0.0038985312,0.120792866,0.000579834,-0.016799927,0.000869751
2019-07-01T19:04:58.655Z,0.37497306,-0.56521535,0.39665854,9.800995,0.14356995,0.830307,-45.706177,5.227661,-19.215393,9.774156,0.15175751,0.78309715,-0.00068187714,0.0036579072,0.014650106,-0.00015258789,0.011108398,0.0002593994
2019-07-01T19:04:58.854Z,0.3733921,-0.56645066,0.39496174,9.82254,0.12921143,0.7848511,-45.329285,6.265259,-18.190002,9.774541,0.14849351,0.7788825,-0.0014219284,-0.0026529431,0.027474701,0.00064086914,-0.009231567,0.0010528564
2019-07-01T19:04:59.055Z,0.36975035,-0.5644534,0.39501178,9.824936,0.14117432,1.1270142,-45.87555,6.362915,-16.712952,9.766304,0.14790595,0.87626404,0.0048913956,-0.0030213743,-0.05735749,-0.002105713,0.06529236,-0.00065612793
2019-07-01T19:04:59.257Z,0.36953315,-0.56528586,0.3944085,9.769897,0.2033844,1.1629181,-45.373535,5.2383423,-18.019104,9.767725,0.1437247,0.8609682,0.00019264221,-0.0036511123,0.08067572,0.0010681152,-0.028717041,0.0012969971
2019-07-01T19:04:59.461Z,0.3680807,-0.5568826,0.40104353,9.772293,0.110076904,1.6199341,-45.614624,5.606079,-19.972229,9.747304,0.14866163,1.0669314,0.0030555725,0.006962016,-0.05590844,-0.0032653809,0.121795654,-0.001083374
2019-07-01T19:04:59.658Z,0.36827826,-0.55845386,0.3996056,9.815353,0.13639832,0.8494568,-46.022034,5.580139,-20.414734,9.751285,0.15018213,1.0297058,-0.012869835,0.004027158,0.09052634,0.0005187988,-0.043121338,0.00032043457
2019-07-01T19:04:59.857Z,0.3705605,-0.5565371,0.4025172,9.870392,0.055038452,1.0600128,-45.555115,5.0186157,-19.264221,9.75034,0.15053862,1.0385516,0.011410713,-0.0011493713,-0.05384195,-0.0008239746,0.018753052,-0.0005950928
2019-07-01T19:05:00.060Z,0.37395215,-0.55993754,0.40145245,9.851257,0.19621277,0.9188385,-45.370483,5.541992,-19.467163,9.762837,0.14480871,0.9145635,-0.0025110245,-0.007813022,-0.019564807,0.0027313232,-0.059631348,0.0012512207
2019-07-01T19:05:00.260Z,0.37253755,-0.5547009,0.40510777,9.824936,0.098098755,0.88534546,-45.715332,5.0094604,-19.412231,9.749115,0.15220034,1.049757,0.002163887,0.0062653124,0.015090346,-0.0022277832,0.06724548,-0.0024871826
2019-07-01T19:05:00.467Z,0.3724209,-0.55869293,0.40150806,9.750748,0.22732544,0.8494568,-45.817566,6.163025,-18.566895,9.757974,0.14997996,0.9642853,-0.002609253,-0.0007865578,-0.028261065,0.00021362305,-0.037200928,0.0009918213
2019-07-01T19:05:00.678Z,0.3684094,-0.5551246,0.40262964,9.757935,0.12921143,1.311264,-45.329285,6.2667847,-18.341064,9.743521,0.15178747,1.1005267,0.007990837,-0.0011832416,-0.051260352,-0.0024108887,0.08404541,-0.0015106201
2019-07-01T19:05:00.868Z,0.3639749,-0.55822873,0.39737964,9.774673,0.15074158,1.0097656,-45.64209,6.613159,-18.934631,9.743965,0.15280339,1.0964417,-0.010924339,0.009281933,0.08524239,0.001449585,-0.024246216,0.0020446777
2019-07-01T19:05:01.076Z,0.36272085,-0.5591159,0.39608908,9.791428,0.14117432,0.85902405,-45.2713,5.987549,-19.53125,9.744186,0.14984386,1.094873,-0.0018177032,-0.005963996,0.0699842,0.0009460449,-0.018875122,7.6293945e-05
2019-07-01T19:05:01.278Z,0.363523,-0.56074476,0.39489684,9.8033905,0.119644165,1.1365967,-45.339966,6.121826,-18.746948,9.749343,0.15197127,1.0476711,0.0013799667,0.002217278,-0.052986145,-0.00015258789,-0.011001587,-0.0005340576
2019-07-01T19:05:01.476Z,0.36539787,-0.5615032,0.39536828,9.777069,0.1483612,1.306488,-45.043945,5.6365967,-19.23523,9.75396,0.14934129,1.0041733,0.0009326935,-0.0039900094,-0.01097405,-0.00015258789,-0.019851685,0.00032043457
2019-07-01T19:05:01.692Z,0.36419004,-0.5601055,0.3960533,9.779465,0.14596558,1.2322998,-45.750427,6.025696,-19.126892,9.748907,0.14859167,1.0522034,0.0023450851,0.00057685375,-0.0023678541,-0.0002746582,0.02571106,0.00050354004
2019-07-01T19:05:01.894Z,0.36645123,-0.5574059,0.39969587,9.796219,0.17228699,1.1365967,-45.24231,5.126953,-21.142578,9.7459755,0.1489162,1.0789701,-0.0027618408,-0.00047963858,0.04148662,-0.00045776367,0.0032348633,-0.00035095215
2019-07-01T19:05:02.090Z,0.3713644,-0.5578395,0.40156266,9.693329,0.16749573,0.4857483,-45.00885,5.0750732,-21.768188,9.754495,0.15309486,0.9983863,-0.004166603,0.0073049515,0.016534567,-0.00015258789,-0.046432495,-0.000289917
2019-07-01T19:05:02.294Z,0.37368107,-0.55403215,0.40664998,9.839294,0.1603241,1.0337067,-45.01953,4.6279907,-20.64972,9.7494335,0.14673531,1.0475624,0.0027675629,-0.006434217,0.012168646,0.0002746582,0.022659302,0.001663208
2019-07-01T19:05:02.502Z,0.37580368,-0.5587362,0.4029559,9.662216,0.19142151,-0.35891724,-46.432495,5.104065,-18.98346,9.762796,0.15289073,0.9136948,-0.0060834885,0.011080131,0.04286331,0.0027923584,-0.08076477,-4.5776367e-05
2019-07-01T19:05:02.702Z,0.378719,-0.5615146,0.40169525,9.74118,0.2536316,0.5623169,-45.906067,6.010437,-18.370056,9.771961,0.15443398,0.8095044,-0.014264107,-0.011164293,-0.007884145,0.0036468506,-0.052841187,-0.0033416748
2019-07-01T19:05:02.905Z,0.3806002,-0.56832254,0.39729393,9.743576,-0.0023956299,0.99780273,-47.029114,5.9280396,-17.507935,9.785372,0.1385409,0.6306254,0.014499664,0.037079036,-0.052153528,0.00076293945,-0.091934204,0.0093688965
2019-07-01T19:05:03.110Z,0.36217457,-0.5387004,0.41594884,8.941986,0.68673706,3.665802,-43.666077,6.1782837,-21.069336,9.683762,0.12926073,1.5422226,0.03582859,-0.003755957,-1.1089246,-0.003692627,0.5060425,0.0043640137
2019-07-01T19:05:03.315Z,0.32626262,-0.46525228,0.46924335,9.327225,-0.21296692,3.665802,-38.796997,6.7871094,-29.452515,9.170831,0.043532476,3.4733782,0.08658123,0.0044135675,0.094819784,0.24377441,1.0390778,0.11332703
2019-07-01T19:05:03.517Z,0.33407652,-0.49619886,0.44206032,9.466003,0.29910278,2.7637177,-40.975952,6.1828613,-26.689148,9.401491,0.07743003,2.7886105,-0.13021278,0.024231069,0.45240784,-0.14637756,-0.3885193,-0.06808472
2019-07-01T19:05:03.734Z,0.34469473,-0.5124078,0.43297353,9.592819,0.18185425,2.5579224,-42.062378,4.9301147,-24.937439,9.5262575,0.08779945,2.3266044,0.018390656,0.0059419125,0.030306816,-0.002166748,0.09095764,-0.0007171631
2019-07-01T19:05:03.925Z,0.36338496,-0.54227185,0.4144174,9.676575,0.021530151,0.9403839,-41.796875,5.532837,-24.978638,9.69832,0.11208985,1.4492773,-0.085175514,0.047857918,0.5170636,-0.006500244,-0.47789,-0.012802124
2019-07-01T19:05:04.126Z,0.3847391,-0.57621807,0.39290625,9.796219,0.34217834,0.6460571,-44.700623,6.324768,-20.542908,9.798081,0.12206883,0.39125678,-0.045524597,0.0050840303,0.0006676316,0.005722046,-0.5520477,-0.004623413
2019-07-01T19:05:04.376Z,0.3832791,-0.5730353,0.39516535,9.76033,0.15553284,0.19621277,-46.699524,6.0195923,-17.05017,9.793884,0.12249582,0.48499194,0.025704384,0.031453796,-0.16853964,0.0004119873,0.053451538,0.00064086914
2019-07-01T19:05:04.571Z,0.379534,-0.5685313,0.39811236,9.817749,0.25842285,1.1222382,-46.39435,5.6015015,-16.921997,9.784951,0.11452087,0.6418674,0.0023994446,0.03753501,-0.12417889,-0.0012512207,0.0848999,0.0050964355
2019-07-01T19:05:04.775Z,0.37644136,-0.5639079,0.40049705,9.772293,0.093322754,1.1437683,-46.270752,4.962158,-18.190002,9.7739935,0.12122226,0.79041106,0.0074825287,0.049718834,-0.116221964,-0.00076293945,0.080322266,-0.0021820068
2019-07-01T19:05:04.978Z,0.38293487,-0.5742473,0.3943836,9.834503,0.23449707,-1.1988068,-47.148132,4.8934937,-16.65802,9.795049,0.11465514,0.46289143,-0.01091671,0.0213596,0.39200586,0.0019226074,-0.18112183,0.004119873
2019-07-01T19:05:05.189Z,0.3692903,-0.54901063,0.41259855,10.162323,-0.45224,-1.7563324,-44.563293,5.74646,-20.062256,9.730011,0.09186419,1.220183,0.0072336197,-0.03855481,-0.060462713,0.028259277,0.39627075,0.013153076
2019-07-01T19:05:05.390Z,0.401945,-0.5719812,0.45935532,9.753143,-1.7132568,0.62213135,-44.807434,8.769226,-17.095947,9.768674,-0.8333503,0.2211941,0.09870815,0.44098657,-0.12314074,0.6970978,-0.5423279,0.548996
2019-07-01T19:05:05.593Z,0.3552608,-0.6173807,0.54799134,8.458633,-4.5511475,-0.275177,-40.1886,20.21637,-15.255737,9.128802,-3.5797307,-0.14453247,0.2358532,1.0164931,0.213826,0.59391785,-0.32650757,1.4856567
2019-07-01T19:05:05.792Z,0.22055213,-0.67751503,0.648567,8.27916,-7.6498566,-0.90927124,-25.074768,34.786987,-16.308594,6.363508,-7.4601283,-0.1504306,1.4459596,2.2355242,-0.43390417,0.5239868,-0.35125732,2.5651245
2019-07-01T19:05:05.995Z,0.027979687,-0.6942167,0.6989209,-0.04307556,-10.78685,-0.5024872,-8.100891,40.748596,-19.111633,2.693832,-9.423311,0.3389228,2.1713147,1.2199383,-0.29873136,0.08354187,0.4877777,2.2435608
2019-07-01T19:05:06.230Z,-0.07514669,-0.6717103,0.72980046,0.26560974,-9.891922,0.87338257,-1.3122559,41.567993,-19.752502,0.27752346,-9.766107,0.846475,-0.20665935,-0.7462177,-0.09762919,0.22227478,0.3249817,1.2472229
2019-07-01T19:05:06.402Z,-0.07994125,-0.71365565,0.6901757,0.22253418,-9.9062805,-0.38763428,-2.1606445,42.004395,-17.437744,0.16686869,-9.800397,-0.30783093,0.02664493,-0.013665199,0.5307696,-0.6144867,0.016296387,0.05480957
2019-07-01T19:05:06.607Z,-0.04231342,-0.7064265,0.7012172,1.0863342,-9.39183,-0.23449707,-6.2286377,41.007996,-17.701721,0.61521,-9.78732,-0.016256547,-0.46594054,-0.23130417,0.12705162,0.15348816,-0.1290741,-0.24971008
2019-07-01T19:05:06.809Z,0.007925989,-0.7077269,0.7027854,0.71066284,-9.731613,-0.07417297,-5.8380127,42.4881,-17.189026,1.1056343,-9.744106,-0.018440777,0.06615138,0.30694866,-0.19598876,0.03425598,-0.33250427,-0.25343323
2019-07-01T19:05:07.014Z,0.0002872853,-0.71217763,0.70198977,-0.72502136,-9.839294,-0.20100403,-5.7632446,43.40515,-12.77771,0.05494534,-9.80548,-0.14115801,0.37099427,-0.21581936,0.19804981,-0.040283203,-0.41392517,0.5516815
2019-07-01T19:05:07.216Z,-0.19879195,0.7590594,-0.60420877,0.44267273,-9.379868,-2.8187408,-12.358093,44.16046,-6.689453,0.2906216,-9.536107,-2.2690513,-0.6537201,-0.092414856,0.9025166,-1.0971375,-2.2743988,-0.42318726
2019-07-01T19:05:07.418Z,-0.1957981,0.72671366,-0.6402249,-0.25842285,-9.958923,0.18664551,-12.634277,41.445923,-16.218567,0.26610076,-9.716018,-1.3032967,-0.014070243,0.07539463,-0.72707295,0.53131104,-0.051437378,-0.018432617
2019-07-01T19:05:07.618Z,-0.17631137,0.6726786,-0.69985867,1.2227325,-9.829712,-0.16749573,-11.485291,41.732788,-15.150452,0.26772404,-9.797705,0.32200804,-0.18279836,-0.046679497,0.5396812,0.82673645,0.11685181,-0.0015716553
2019-07-01T19:05:07.820Z,-0.16918232,0.7056031,-0.67248183,-0.102890015,-9.427719,-2.4502563,-12.117004,42.964172,-10.115051,0.21311183,-9.79055,-0.519721,0.028455526,-0.08522797,0.7488868,-0.46318054,0.25074768,0.027816772
2019-07-01T19:05:08.030Z,-0.19034319,0.7158795,-0.65350986,0.51924133,-9.839294,-0.4857483,-10.975647,42.044067,-13.067627,0.25499997,-9.756664,-0.9554425,-0.10383254,0.055437088,-0.37971097,-0.21290588,-0.14324951,-0.03730774
2019-07-01T19:05:08.225Z,-0.18694082,0.69089717,-0.6790822,0.08375549,-9.779465,0.028717041,-12.715149,41.363525,-15.699768,0.281404,-9.79965,-0.24096404,-0.028847843,-0.059188843,0.061163023,0.36991882,-0.0053253174,-0.015792847
2019-07-01T19:05:08.429Z,-0.18586276,0.6775053,-0.6908679,0.06939697,-9.851257,0.33738708,-11.619568,42.607117,-16.47644,0.25001684,-9.802649,0.1263408,-0.026699886,-0.026050568,0.13571629,0.18849182,0.0009765625,0.015655518
2019-07-01T19:05:08.626Z,-0.18949954,0.6778202,-0.68835485,0.20817566,-9.86322,0.18424988,-10.964966,42.718506,-15.496826,0.2246236,-9.803653,0.09119626,-0.02604653,-0.035708427,0.23564954,0.017684937,0.0036621094,0.0050354004
2019-07-01T19:05:08.842Z,-0.19014873,0.6728835,-0.69228566,0.17468262,-9.839294,0.5862427,-11.225891,42.338562,-16.01715,0.22795533,-9.801595,0.21714431,-0.03588152,-0.02725029,0.029253855,0.065093994,-0.00074768066,-0.0027313232
2019-07-01T19:05:09.044Z,-0.19460069,0.6699722,-0.6923762,0.16749573,-9.841675,0.32781982,-10.765076,42.01355,-17.160034,0.22384048,-9.800641,0.26022696,-0.008820549,-0.019055367,0.19833106,-0.028793335,0.00010681152,-0.000289917
2019-07-01T19:05:09.245Z,-0.19809447,0.66649765,-0.6930936,0.24885559,-9.824936,0.35891724,-11.09314,41.69159,-16.001892,0.20705661,-9.799097,0.32439327,-0.02563323,-0.010941505,0.05539435,0.018966675,0.0009765625,0.0019683838
2019-07-01T19:05:09.448Z,-0.19607067,0.6639922,-0.6962549,0.1268158,-9.832108,0.5168457,-10.546875,41.593933,-17.480469,0.21000215,-9.796016,0.40541857,0.0036097318,-0.010902405,-0.020515382,0.04750061,0.00016784668,-0.00065612793
2019-07-01T19:05:09.651Z,-0.19853707,0.66218495,-0.69617707,0.22492981,-9.848862,0.6006012,-11.251831,41.908264,-16.932678,0.19813965,-9.795068,0.43333864,-0.011349499,-0.0049066544,0.024836063,0.008163452,-0.0013580322,0.003250122
2019-07-01T19:05:09.850Z,-0.2031236,0.65912545,-0.6961421,0.19142151,-9.824936,0.62931824,-11.51123,41.297913,-15.841675,0.19819288,-9.793062,0.47649476,-0.003581211,-0.004807472,0.040247053,0.012191772,-0.0008087158,-0.0009613037
2019-07-01T19:05:10.052Z,-0.20208693,0.65769094,-0.6977926,0.20578003,-9.829712,0.5814514,-10.48584,41.160583,-17.42096,0.19591825,-9.7908,0.52178174,0.001780957,-0.0023355484,0.016989648,0.01902771,0.00022888184,0.0016021729
2019-07-01T19:05:10.255Z,-0.20281976,0.65661556,-0.69822407,0.2033844,-9.810577,0.6316986,-11.375427,41.107178,-17.999268,0.19529341,-9.78962,0.54368365,-0.005022213,-0.0011205673,0.007653475,0.009384155,-0.00032043457,-0.0009613037
2019-07-01T19:05:10.462Z,-0.20482355,0.65318406,-0.6998208,0.21057129,-9.824936,0.6316986,-11.917114,41.427612,-17.23175,0.19687532,-9.7853155,0.6158168,-0.00017620623,-0.0022420883,-0.0021125674,0.038085938,0.00035095215,-0.00090026855
2019-07-01T19:05:10.664Z,-0.20631802,0.65259695,-0.6993707,0.20100403,-9.812973,0.70588684,-11.698914,41.00952,-17.701721,0.19350748,-9.785195,0.6188009,0.0010341853,-0.0019254684,-0.0018079877,0.0020599365,-0.0005645752,0.0020446777
2019-07-01T19:05:10.865Z,-0.20705824,0.65074295,-0.700419,0.16270447,-9.817749,0.69392395,-11.642456,40.579224,-18.095398,0.19556284,-9.782448,0.6601937,0.0035259426,0.0021123886,0.019127011,0.016586304,0.00024414062,-0.00016784668
2019-07-01T19:05:11.071Z,-0.20258814,0.6476828,-0.7050475,0.2033844,-9.810577,0.76330566,-10.166931,41.26129,-18.395996,0.18653342,-9.774275,0.7740394,-0.0053641647,-0.0030345917,-0.026256204,0.06600952,0.0023651123,0.0031280518
2019-07-01T19:05:11.274Z,-0.20727073,0.647834,-0.7022164,0.21534729,-9.805786,0.7776642,-12.10022,40.979004,-17.164612,0.18210466,-9.7775545,0.73255616,5.7443976e-05,0.0025348663,0.011855066,-0.024642944,0.00061035156,0.0022735596
2019-07-01T19:05:11.476Z,-0.20570374,0.6474113,-0.7035581,0.18424988,-9.82254,0.73220825,-10.804749,41.441345,-19.010925,0.18863392,-9.775648,0.75598717,-0.004846409,-0.001502037,0.0012065172,0.012008667,0.0012817383,-0.0048065186
2019-07-01T19:05:11.677Z,-0.21071278,0.6474448,-0.700877,0.18185425,-9.7986145,0.7082825,-12.162781,41.33606,-17.012024,0.19721508,-9.778619,0.7142255,0.0038094223,0.0037908554,0.015459657,-0.025619507,-0.0005493164,-0.00340271
2019-07-01T19:05:11.879Z,-0.2110292,0.6480431,-0.7002706,0.21534729,-9.820145,0.71066284,-10.966492,41.20331,-17.692566,0.19832122,-9.7798815,0.69640666,-0.001839295,0.0012845993,0.006805539,-0.011016846,-0.00032043457,-0.0010223389
2019-07-01T19:05:12.079Z,-0.21151094,0.6486707,-0.6994694,0.18664551,-9.829712,0.66760254,-10.958862,41.348267,-17.514038,0.19588396,-9.781331,0.67645204,0.0020104796,-0.0017280579,0.018592179,-0.015106201,-0.00044250488,0.0018005371
2019-07-01T19:05:12.282Z,-0.21140675,0.6486053,-0.69952136,0.19381714,-9.808182,0.7130585,-11.633301,40.79895,-18.20221,0.19326277,-9.781208,0.6789805,0.0017771274,6.866455e-05,-0.0061920285,0.0029144287,-0.00032043457,0.0018463135
2019-07-01T19:05:12.486Z,-0.21068014,0.6475186,-0.70070547,0.21057129,-9.796219,0.68673706,-11.306763,40.81726,-17.756653,0.19101667,-9.778858,0.712621,0.0047492087,-0.00088977814,-0.014347494,0.02128601,0.00016784668,0.0023956299
2019-07-01T19:05:12.690Z,-0.20580782,0.6502226,-0.7014414,0.17706299,-9.827316,0.67477417,-10.15625,40.039062,-20.5307,0.19201668,-9.78091,0.68359596,-0.0015114546,0.0017614365,0.015052438,-0.01902771,-0.00012207031,-0.00090026855
2019-07-01T19:05:12.893Z,-0.20394449,0.6506545,-0.7021851,0.15792847,-9.820145,0.7130585,-10.664368,40.937805,-18.74237,0.1936979,-9.7806,0.6875513,0.0053902417,-0.0019931793,-0.0052434206,0.0034484863,-7.6293945e-05,0.0005187988
2019-07-01T19:05:13.101Z,-0.20640938,0.65103096,-0.70042664,0.20578003,-9.820145,0.62213135,-11.711121,40.789795,-17.89856,0.18912078,-9.782716,0.6581013,-0.0029364377,0.0016059875,0.019291818,-0.020309448,4.5776367e-05,0.0016174316
2019-07-01T19:05:13.297Z,-0.20699759,0.65122366,-0.6999503,0.114852905,-9.832108,0.67477417,-11.347961,41.688538,-17.730713,0.18915944,-9.783361,0.6484114,0.0039872676,0.0010051727,-0.016844213,-0.0007019043,-0.00044250488,0.0010528564
2019-07-01T19:05:13.500Z,-0.21092758,0.65095884,-0.69768417,0.26560974,-9.805786,0.51924133,-12.007141,41.200256,-16.970825,0.17795436,-9.785226,0.62296134,-0.0031995326,0.0010185242,0.042383373,-0.024215698,0.0012207031,0.00491333
2019-07-01T19:05:13.704Z,-0.21000911,0.6502924,-0.69893235,0.17468262,-9.812973,0.5742798,-10.810852,40.99121,-17.289734,0.18805294,-9.78344,0.6475526,0.0024754256,-0.0004682541,-0.03465134,0.02178955,-0.0016021729,-0.004501343
2019-07-01T19:05:13.910Z,-0.21025386,0.6509123,-0.6982032,0.16270447,-9.834503,0.6388855,-10.714722,41.285706,-16.630554,0.18253495,-9.784709,0.62971497,0.008954525,-0.0024576187,-0.0077244043,-0.007232666,-0.0005493164,0.005218506
2019-07-01T19:05:14.132Z,-0.21098179,0.6526035,-0.6962383,0.18664551,-9.824936,0.5742798,-11.050415,41.123962,-17.4057,0.17044191,-9.787972,0.5804628,-0.0033194423,0.001376152,0.018508732,-0.03062439,0.0010375977,0.0054016113
2019-07-01T19:05:14.310Z,-0.20700838,0.65179145,-0.6991045,0.6006012,-9.659821,0.7010956,-11.460876,42.24243,-14.819336,0.17008501,-9.784668,0.6338119,0.008751959,-0.0021104813,-0.024754465,0.033569336,0.040252686,-4.5776367e-05
2019-07-01T19:05:14.513Z,-0.21107309,0.64627963,-0.7010025,0.57188416,-9.669403,0.8925171,-12.406921,41.474915,-18.107605,0.17260402,-9.777105,0.7408095,-0.028697997,-0.006433487,-0.0840233,0.07774353,-0.016494751,-0.0074920654
2019-07-01T19:05:14.716Z,-0.22102831,0.64858425,-0.69528085,0.21774292,-9.848862,0.30867004,-12.358093,40.522766,-16.946411,0.19299136,-9.798251,0.3569673,-0.011291161,-0.0022640228,-0.06332737,-0.122680664,-0.0054473877,-0.032104492
2019-07-01T19:05:14.929Z,-0.22234254,0.65347993,-0.6902032,0.35891724,-9.867996,0.4019928,-10.78186,41.345215,-15.634155,0.22689989,-9.7931595,0.46145666,-0.02426356,-0.009774208,-0.0064198077,0.053863525,0.009887695,-0.018554688
2019-07-01T19:05:15.123Z,-0.26866424,0.582746,-0.75028497,5.5992126,-11.509476,3.9170532,-11.027527,41.40625,-16.290283,2.1355932,-9.41357,1.7304153,-0.5842459,-1.7755699,0.09754884,0.66600037,0.06700134,-1.0401764
2019-07-01T19:05:15.329Z,0.55109495,-0.16543095,0.67267394,4.8598175,3.706482,2.1032867,-16.76941,36.18164,-21.575928,8.780292,2.845959,3.3132155,-2.018991,-9.484903,0.100078344,2.824936,-0.5119171,-7.989731
2019-07-01T19:05:15.587Z,0.65591645,0.12896924,0.38972607,1.6630096,9.94696,0.3134613,-0.5722046,-47.07184,-13.894653,3.411394,9.134905,1.0422616,0.4331267,-1.6558275,0.5802303,1.1594086,-0.78582764,-4.5272064
2019-07-01T19:05:15.780Z,0.647094,0.203046,0.24829525,-0.74894714,9.497116,3.826126,13.08136,-44.363403,-11.412048,0.39681506,9.767096,0.78534895,0.9389607,1.629116,-0.087673426,0.02178955,-0.7406769,-1.6903229
2019-07-01T19:05:15.982Z,0.6487773,0.19181357,0.21015084,-2.4765778,9.726822,2.1583252,17.132568,-43.043518,-15.159607,0.018867934,9.771482,0.8295554,-1.3849323,1.069829,0.5722089,-0.009429932,-0.4656067,-0.19100952
2019-07-01T19:05:16.187Z,0.6623993,0.19273514,0.21282867,-0.70588684,9.872787,-0.48095703,15.7699585,-44.888306,-14.575195,0.14937389,9.794131,0.47229442,-0.28877085,1.038065,0.59615,0.20169067,-0.19462585,0.06298828
2019-07-01T19:05:16.392Z,0.64883536,0.19223677,0.22283725,-0.1483612,9.772293,3.156128,15.144348,-44.189453,-15.992737,0.19004568,9.770047,0.8248905,-0.24346791,0.9953823,-0.42916667,-0.20057678,-0.05406189,0.026412964
2019-07-01T19:05:16.592Z,0.6497154,0.20344138,0.2298283,-0.20100403,9.810577,0.8518524,14.550781,-43.29071,-14.804077,0.15373431,9.779304,0.71552175,-0.11360361,0.92249775,0.8733276,0.080062866,-0.05418396,-0.01928711
2019-07-01T19:05:16.789Z,0.64810044,0.21142277,0.23622245,-0.28474426,9.779465,0.82073975,14.117432,-43.974304,-14.77356,0.13139954,9.781343,0.6916868,-0.22547057,0.9212475,0.2362225,0.017211914,-0.019744873,-0.005783081
2019-07-01T19:05:16.994Z,0.64808995,0.21982083,0.2443118,-0.06939697,9.820145,1.5505524,14.682007,-43.93463,-15.014648,0.14354907,9.785921,0.62092173,-0.1720666,0.8568392,0.19848806,0.04133606,0.014709473,0.0128479
2019-07-01T19:05:17.200Z,0.64518845,0.22632839,0.24980153,-0.06460571,9.769897,1.4524384,14.535522,-43.658447,-14.4973755,0.11745537,9.785196,0.6375755,-0.17488724,0.82595253,0.16824323,-0.005340576,-0.006790161,-0.008468628
2019-07-01T19:05:17.399Z,0.6435527,0.24016213,0.26256123,-0.055038452,9.796219,1.2729797,14.683533,-43.937683,-14.712524,0.12206602,9.790321,0.5523502,-0.17340648,0.77912426,0.31075472,0.052383423,0.0056152344,0.0082092285
2019-07-01T19:05:17.609Z,0.63375634,0.2501031,0.2739521,-0.04067993,9.784256,1.1652985,13.853455,-44.578552,-14.355469,0.075554244,9.781187,0.70218194,-0.10798934,0.5215111,0.19083697,-0.034713745,0.0024261475,0.007598877
2019-07-01T19:05:17.812Z,0.62704206,0.25905117,0.2832114,-0.059814453,9.789032,1.0241241,14.122009,-43.675232,-15.843201,0.038903773,9.775594,0.7788593,-0.07274862,0.34441566,0.1505174,-0.0063171387,-0.0014801025,0.0011749268
2019-07-01T19:05:18.015Z,0.6231969,0.26234025,0.28661522,0.011962891,9.777069,1.076767,15.626526,-44.384766,-14.842224,0.011047507,9.770643,0.83951265,-0.042634275,0.23384953,0.051852524,-0.023239136,-0.00093078613,-0.003036499
2019-07-01T19:05:18.216Z,0.61717314,0.2703152,0.2961237,0.0143585205,9.777069,0.9906311,14.732361,-44.36035,-16.311646,-0.0048157354,9.76501,0.9027415,-0.03234551,0.15393734,0.05309546,-0.022567749,0.0012817383,0.00044250488
2019-07-01T19:05:18.424Z,0.61480117,0.2728413,0.2991621,-0.06460571,9.779465,0.8494568,14.590454,-44.236755,-14.69574,-0.014474567,9.762141,0.933144,-0.024177376,0.10348511,0.0319407,-0.010040283,-0.0001373291,0.0012969971
2019-07-01T19:05:18.622Z,0.612212,0.27788436,0.30417538,-0.050247192,9.786652,0.8518524,14.814758,-44.659424,-14.411926,-0.025829656,9.761366,0.94098234,-0.015924044,0.06947994,0.0121875405,-0.0026550293,-0.0009918213,-0.001876831
2019-07-01T19:05:18.830Z,0.61067736,0.28284848,0.30851835,-0.04307556,9.779465,1.0337067,15.391541,-43.873596,-16.993713,-0.033981793,9.76304,0.9231955,-0.014674578,0.047587395,-0.010825992,0.0052948,-0.0002593994,-0.00047302246
2019-07-01T19:05:19.035Z,0.6093168,0.28354415,0.3099308,-0.098098755,9.796219,0.8494568,13.682556,-42.912292,-14.463806,-0.036129832,9.760652,0.9480236,-0.007694941,0.030828476,0.025748253,-0.0070495605,0.0014038086,0.0009918213
2019-07-01T19:05:19.233Z,0.60789984,0.28603277,0.31272432,-0.06700134,9.779465,0.8661957,14.77356,-45.306396,-16.05072,-0.0382838,9.7600565,0.95405006,0.0028697886,0.017083168,0.012843311,-0.0002593994,0.0014038086,-0.0017547607
2019-07-01T19:05:19.427Z,0.6074842,0.28701398,0.31347042,-0.03111267,9.784256,0.9667053,14.584351,-44.381714,-14.724731,-0.042666867,9.760149,0.9529298,-0.008985106,0.01399231,-0.012488484,-0.0030212402,0.0015869141,0.00019836426
2019-07-01T19:05:19.627Z,0.6057826,0.29014412,0.31708118,-0.026321411,9.78186,1.1246338,15.101624,-43.31665,-16.04004,-0.042856146,9.759652,0.9579883,-0.001360178,0.009762764,-0.0069904327,-0.0046691895,0.00077819824,0.00032043457
2019-07-01T19:05:19.829Z,0.6050782,0.29108214,0.31822988,-0.08135986,9.796219,0.8661957,13.60321,-44.584656,-15.556335,-0.044122722,9.759052,0.96402323,-0.0022267364,0.0054216385,0.021541178,0.00932312,-1.5258789e-05,7.6293945e-05
2019-07-01T19:05:20.039Z,0.6062977,0.29082683,0.31690565,-0.04547119,9.769897,1.0097656,14.920044,-43.91632,-15.473938,-0.046828892,9.761579,0.937964,-0.004050836,0.0009622574,-0.0019149184,0.0044403076,0.0020751953,0.00050354004
2019-07-01T19:05:20.242Z,0.6049873,0.29289702,0.3194512,-0.059814453,9.784256,0.94755554,15.159607,-43.974304,-15.420532,-0.04659357,9.760862,0.9453944,0.0024163425,0.00030231476,0.015913785,0.00022888184,-0.0015411377,-0.00065612793
2019-07-01T19:05:20.447Z,0.60488254,0.29334053,0.3197636,-0.059814453,9.789032,0.899704,15.707397,-44.14978,-16.383362,-0.04792037,9.761109,0.9427802,0.00039106235,0.0007696152,0.0019770265,0.0018615723,-0.0017242432,-0.0009613037
2019-07-01T19:05:20.650Z,0.6055245,0.2930559,0.31896204,-0.06460571,9.796219,0.9140625,14.369202,-43.6615,-15.39917,-0.049263895,9.762251,0.9308141,-0.0028054789,0.0025777817,-0.008608758,0.0039520264,-0.00012207031,1.5258789e-05
2019-07-01T19:05:20.852Z,0.6048598,0.29407534,0.32041577,-0.057434082,9.791428,0.87098694,15.155029,-44.044495,-15.734863,-0.04639861,9.761879,0.93485445,0.0039056055,0.0013360977,-0.015031517,-0.006072998,0.0021362305,0.0006866455
2019-07-01T19:05:21.053Z,0.60487026,0.29105058,0.3178337,-0.112457275,9.786652,1.0001984,14.198303,-43.666077,-16.4505,-0.05193261,9.758489,0.9693193,-0.003471598,0.00417614,-0.03524053,-0.02708435,0.0072021484,-0.0012664795
2019-07-01T19:05:21.252Z,0.5986996,0.29452953,0.3242564,-0.050247192,9.767502,0.87338257,14.169312,-44.400024,-15.995789,-0.06612702,9.747324,1.0750264,0.0026362762,-0.0039081573,0.08347094,-0.033615112,0.045074463,-0.00340271
2019-07-01T19:05:21.461Z,0.6005078,0.2946014,0.32200447,-0.035888672,9.78186,1.249054,14.221191,-43.229675,-16.059875,-0.07883995,9.751915,1.031667,-0.0033179745,0.0011472702,-0.057530522,0.0076141357,0.022415161,-0.0032806396
2019-07-01T19:05:21.668Z,0.59877926,0.2879936,0.31924826,-0.16270447,9.777069,1.4428711,14.411926,-42.562866,-16.007996,-0.06756942,9.73901,1.1478305,-0.0019508079,0.005607605,-0.1290865,-0.09402466,0.0015869141,0.0065612793
2019-07-01T19:05:21.864Z,0.5965895,0.28521556,0.3141088,0.830307,9.291336,0.26560974,15.223694,-44.104004,-16.958618,-0.13537548,9.728215,1.2304028,-0.16016328,0.03144169,-0.2370013,-0.10569763,0.10316467,0.019744873
2019-07-01T19:05:22.063Z,0.44845352,0.258869,0.39166552,1.3351898,4.6540375,2.9862366,17.097473,-38.601685,-24.145508,-0.4166946,8.678349,4.547859,0.2238498,0.028033257,-4.276946,-1.9428864,0.85606384,0.11804199
2019-07-01T19:05:22.268Z,0.18328686,-0.14636883,0.31978178,-3.2973022,-2.2085724,17.292938,-3.5964966,-12.139893,-50.98419,3.784939,2.3820553,8.727567,-0.9275851,1.558136,0.9303341,-4.377762,-2.5937042,0.37826538
2019-07-01T19:05:22.472Z,0.09512738,-0.19828488,0.36289167,5.2833557,1.2610168,7.35553,-8.056641,-0.7965088,-57.40204,4.1986065,0.27816778,8.858031,-2.5074387,-0.92745364,0.57729435,-0.8423462,-0.24752808,0.7055054
2019-07-01T19:05:22.677Z,0.07551576,-0.11551606,0.5030912,4.067795,0.9954071,9.377472,-9.541321,9.922791,-60.74524,2.678059,0.12377196,9.433084,1.101228,-0.32780126,0.09509945,0.43522644,0.8741455,1.3382416
2019-07-01T19:05:22.879Z,0.06265659,-0.053922158,0.5896351,-1.7084808,0.5048828,18.436707,-2.8671265,9.242249,-56.929016,1.5743029,0.36374196,9.672624,1.4023318,-0.12077981,-0.3255043,0.3444519,0.6475067,0.9812622
2019-07-01T19:05:23.081Z,0.0069365487,0.008670239,0.58315307,0.122039795,0.13639832,10.033112,9.82666,9.449768,-50.382996,-0.05879377,0.20967679,9.804233,0.46334448,0.13702954,-0.1573658,-0.0716095,0.8635864,-0.028442383
2019-07-01T19:05:23.281Z,0.006789043,0.007823992,0.5762167,0.088531494,-0.23210144,9.808182,13.800049,10.075378,-49.96643,-0.048681203,0.1972418,9.804545,0.16457939,-0.28775495,0.11561298,0.0015716553,-0.0006713867,0.00021362305
2019-07-01T19:05:23.492Z,0.006465253,0.0069654365,0.5706668,0.124420166,-0.023925781,9.817749,13.3377075,8.964539,-51.383972,-0.03981502,0.18208468,9.804878,0.15489367,-0.2521029,0.12934017,-0.0008239746,-0.00030517578,-0.00022888184
2019-07-01T19:05:23.692Z,0.006127372,0.006152378,0.56452817,0.100494385,-0.14117432,9.812973,12.646484,9.490967,-50.03662,-0.031752028,0.1673118,9.805171,0.13977644,-0.2677579,0.110136986,-0.00021362305,-0.00030517578,0.0002593994
2019-07-01T19:05:23.894Z,0.0057929335,0.0053861374,0.55898464,0.13400269,-0.03111267,9.796219,13.786316,9.7091675,-49.739075,-0.0240793,0.15325682,9.805424,0.1365108,-0.25012594,0.1107645,-0.00033569336,-0.00019836426,0.00019836426
2019-07-01T19:05:24.098Z,0.0037782886,0.0011790857,0.5626794,0.100494385,-0.14356995,9.851257,13.592529,9.043884,-50.24414,0.022579921,0.074272215,9.806343,0.09125888,-0.15720437,0.068743706,0.00039672852,-0.00030517578,7.6293945e-05
2019-07-01T19:05:24.299Z,0.0022173182,-0.0017952151,0.55857116,0.112457275,-0.04547119,9.810577,14.23645,9.317017,-51.724243,0.05349673,0.016404623,9.80649,0.06020699,-0.11369878,0.048696518,-0.0002746582,-0.00036621094,0.0002746582
2019-07-01T19:05:24.501Z,0.0013629427,-0.0036553387,0.5568022,0.112457275,-0.124420166,9.78186,15.071106,8.358765,-52.63214,0.07443532,-0.017714566,9.806352,0.04092574,-0.06991845,0.034705162,0.0005187988,-0.0002593994,0.00019836426
2019-07-01T19:05:24.704Z,0.0006670002,-0.004939444,0.5517049,0.110076904,-0.059814453,9.812973,13.96637,8.946228,-53.071594,0.08801673,-0.042537734,9.806163,0.02608946,-0.048737243,0.021380424,-0.00021362305,-0.00030517578,0.00019836426
2019-07-01T19:05:24.908Z,0.00018806632,-0.0057647577,0.5468553,0.122039795,-0.119644165,9.796219,14.862061,9.225464,-53.579712,0.096676745,-0.058742575,9.805998,0.017143533,-0.03324158,0.015524864,0.00021362305,-7.6293945e-05,0.00019836426
2019-07-01T19:05:25.103Z,-0.0001178001,-0.0062874453,0.5435207,0.110076904,-0.071777344,9.808182,13.86261,8.277893,-52.600098,0.10225354,-0.068964966,9.805874,0.009600528,-0.019887522,0.009878159,-0.00015258789,-0.0004272461,0.00019836426
2019-07-01T19:05:25.315Z,-0.0003707776,-0.006705853,0.5361988,0.112457275,-0.114852905,9.796219,14.030457,9.799194,-49.806213,0.10711541,-0.076661155,9.805766,0.009027764,-0.016234033,0.006108284,0.00021362305,-0.00019836426,0.0002593994
2019-07-01T19:05:25.517Z,-0.00053469837,-0.0068742787,0.5300291,0.107681274,-0.07417297,9.812973,13.929749,9.509277,-50.917053,0.10876848,-0.080355026,9.805718,0.0025713816,-0.007284187,0.0023260117,-3.0517578e-05,-0.00019836426,1.5258789e-05
2019-07-01T19:05:25.719Z,-0.0006776279,-0.0070513557,0.5305757,0.105285645,-0.095718384,9.805786,13.441467,9.326172,-50.405884,0.110172845,-0.08464395,9.805665,0.001863353,-0.008474566,0.0037822723,-3.0517578e-05,-0.0002593994,0.00032043457
2019-07-01T19:05:25.921Z,-0.00071888394,-0.007096825,0.5246101,0.112457275,-0.0765686,9.810577,12.971497,9.585571,-50.334167,0.11109923,-0.08502486,9.805653,0.00045543164,-0.00042708218,0.0015716553,-9.1552734e-05,-0.00036621094,-0.00010681152
2019-07-01T19:05:26.123Z,-0.00087562477,-0.0072052595,0.511411,0.114852905,-0.086135864,9.7986145,12.980652,9.805298,-50.289917,0.11265321,-0.087029666,9.805616,-0.00039663166,-0.0012947246,0.0016613007,9.1552734e-05,-0.0004272461,0.00019836426
2019-07-01T19:05:26.327Z,-0.0009779477,-0.0072837113,0.5086036,0.119644165,-0.090927124,9.796219,13.595581,9.194946,-50.89264,0.11324062,-0.08917196,9.805591,0.00019773096,-0.004639387,0.0014352798,9.1552734e-05,-0.0002593994,0.0002593994
2019-07-01T19:05:26.578Z,-0.000980308,-0.0072759925,0.50274473,0.114852905,-0.088531494,9.8033905,13.366699,9.623718,-51.626587,0.1136895,-0.088364765,9.8055935,-0.00048627704,0.0015012249,0.0011148453,3.0517578e-05,-0.00036621094,0.00032043457
2019-07-01T19:05:26.779Z,-0.0010625154,-0.0073058447,0.5029172,0.114852905,-0.093322754,9.805786,12.779236,8.842468,-50.02289,0.11336697,-0.090075456,9.805581,-0.0018318817,-0.0035103932,-0.0018053055,3.0517578e-05,-0.00030517578,0.0002593994
2019-07-01T19:05:26.983Z,-0.0010378046,-0.007301352,0.5028752,0.114852905,-0.088531494,9.812973,13.998413,9.220886,-50.75226,0.11353892,-0.08960675,9.805584,-0.0008167252,0.0015318766,0.00056266785,-0.00015258789,-0.00030517578,0.0002593994
2019-07-01T19:05:27.187Z,-0.0010926451,-0.0073286016,0.5030065,0.119644165,-0.07896423,9.800995,13.804626,8.480835,-50.819397,0.113446124,-0.090822406,9.805573,-0.001190953,-0.002994813,-0.0010576248,0.00015258789,-0.0002593994,0.00044250488
2019-07-01T19:05:27.391Z,-0.0010375499,-0.007319071,0.5029141,0.114852905,-0.093322754,9.793823,13.795471,8.261108,-50.863647,0.11383774,-0.0897823,9.805578,-0.00016528368,0.0017161369,0.0029697418,9.1552734e-05,-0.0002593994,0.00032043457
2019-07-01T19:05:27.598Z,-0.0010894419,-0.0073380624,0.50302327,0.110076904,-0.08135986,9.810577,13.989258,8.999634,-50.49591,0.113636315,-0.090863645,9.805571,-0.0009200573,-0.0027151108,-0.0008993149,0.00015258789,-0.0001373291,0.00045776367
2019-07-01T19:05:27.798Z,-0.0009813823,-0.0072990237,0.502797,0.114852905,-0.107681274,9.7986145,13.624573,9.851074,-50.61035,0.11406398,-0.088616975,9.805587,0.00057115406,0.0036626682,0.00068092346,0.00021362305,-7.6293945e-05,0.0001373291
2019-07-01T19:05:27.998Z,-0.0010694261,-0.0073547196,0.5030342,0.112457275,-0.07417297,9.805786,12.55188,9.191895,-50.09613,0.114114985,-0.09069014,9.805567,-0.00019713491,-0.00503698,-2.5749207e-05,0.00022888184,-7.6293945e-05,-0.00012207031
2019-07-01T19:05:28.202Z,-0.0010092772,-0.0073411497,0.5029263,0.107681274,-0.100494385,9.7986145,13.360596,9.246826,-50.117493,0.114489615,-0.08952242,9.805573,0.0008530766,0.0016949847,-0.0009756088,0.00016784668,3.0517578e-05,-6.1035156e-05
2019-07-01T19:05:28.407Z,-0.0010699201,-0.0073116017,0.5029395,0.119644165,-0.07417297,9.8033905,14.431763,8.084106,-50.849915,0.11338918,-0.09026069,9.805579,-0.0016249493,-0.0014027879,-0.0012931824,-1.5258789e-05,0.00015258789,6.1035156e-05
2019-07-01T19:05:28.609Z,-0.0010085054,-0.0072906846,0.5028137,0.112457275,-0.095718384,9.8033905,13.117981,9.30481,-50.39673,0.113653414,-0.08899675,9.805588,-0.00045702606,0.0028284416,0.00041389465,-7.6293945e-05,-0.0002593994,0.00024414062
2019-07-01T19:05:28.805Z,-0.0010745036,-0.00734705,0.5030238,0.122039795,-0.07896423,9.800995,13.17749,8.80127,-50.57831,0.113935985,-0.09069917,9.805569,0.0009324178,-0.003353089,0.0010786057,-1.5258789e-05,9.1552734e-05,6.1035156e-05
2019-07-01T19:05:29.013Z,-0.0010523663,-0.0073013473,0.5028941,0.114852905,-0.105285645,9.805786,13.418579,8.891296,-50.79651,0.11339325,-0.08985602,9.805583,-0.0013874024,0.00081913173,-0.001042366,0.00022888184,-7.6293945e-05,0.00012207031
2019-07-01T19:05:29.217Z,-0.0011069878,-0.007333312,0.50303555,0.105285645,-0.08135986,9.800995,13.887024,8.407593,-50.23346,0.11338141,-0.0911158,9.805572,0.0005490184,-0.0026989132,-0.00037193298,4.5776367e-05,0.00015258789,-0.00018310547
2019-07-01T19:05:29.415Z,-0.0010413316,-0.0072678095,0.50280565,0.107681274,-0.102890015,9.8033905,13.68866,9.494019,-50.834656,0.11294273,-0.089326605,9.805593,-0.0014081672,0.0029281527,6.771088e-05,0.00016784668,-0.0001373291,6.1035156e-05
2019-07-01T19:05:29.623Z,-0.0010804398,-0.0072878366,0.50290054,0.114852905,-0.088531494,9.800995,13.420105,8.813477,-50.283813,0.11288665,-0.090199515,9.805586,-0.0004073009,-0.0012182668,0.00021076202,-0.0001373291,-7.6293945e-05,-6.1035156e-05
2019-07-01T19:05:29.826Z,-0.001074259,-0.0073011313,0.50292194,0.112457275,-0.100494385,9.793823,12.727356,9.4192505,-49.67804,0.113170736,-0.09022867,9.805582,0.00051326305,1.7359853e-06,0.0001411438,-1.5258789e-05,-1.5258789e-05,6.1035156e-05
2019-07-01T19:05:30.029Z,-0.0011551698,-0.0073000574,0.5030244,0.105285645,-0.08135986,9.800995,13.935852,9.503174,-50.164795,0.112343565,-0.09160297,9.805579,-0.00081542134,-0.0024507344,0.00072193146,-7.6293945e-05,0.00021362305,0.00024414062
2019-07-01T19:05:30.223Z,-0.0011201563,-0.007293061,0.50296354,0.110076904,-0.100494385,9.805786,13.679504,9.118652,-49.775696,0.11257682,-0.09093252,9.805582,0.00039298832,0.0011759922,-0.0012693405,4.5776367e-05,-1.5258789e-05,0.0
2019-07-01T19:05:30.427Z,-0.0011428304,-0.007311648,0.50303406,0.114852905,-0.08135986,9.7986145,13.040161,9.373474,-50.6073,0.11266074,-0.091509424,9.805576,0.00030193478,-0.0013389513,0.0012273788,4.5776367e-05,3.0517578e-05,6.1035156e-05
2019-07-01T19:05:30.633Z,-0.0011174339,-0.007267347,0.50290316,0.107681274,-0.098098755,9.812973,14.251709,9.532166,-51.075745,0.11217416,-0.09062488,9.80559,-0.00016736239,0.0013580099,-0.0009460449,0.00010681152,0.00021362305,-0.00018310547
2019-07-01T19:05:30.833Z,-0.0011014346,-0.007251833,0.50284815,0.112457275,-0.086135864,9.808182,13.0859375,8.651733,-50.98114,0.11242281,-0.090152785,9.805592,0.0010249466,-8.057803e-05,-0.0018072128,0.00016784668,3.0517578e-05,6.1035156e-05
2019-07-01T19:05:31.040Z,-0.0011246551,-0.007322864,0.5030353,0.114852905,-0.08375549,9.796219,12.995911,10.020447,-49.642944,0.11303003,-0.09131216,9.805573,0.0013638511,-0.002983205,0.002617836,0.00016784668,3.0517578e-05,6.1035156e-05
2019-07-01T19:05:31.240Z,-0.0011442449,-0.0073124073,0.5030376,0.112457275,-0.093322754,9.800995,14.015198,9.432983,-49.728394,0.11265928,-0.09154135,9.805576,-0.00064913183,-0.0013294294,-0.0020828247,0.00022888184,3.0517578e-05,-6.1035156e-05
2019-07-01T19:05:31.449Z,-0.0011085921,-0.0073082936,0.50298226,0.117248535,-0.08375549,9.8033905,13.824463,8.843994,-50.369263,0.11294713,-0.0908892,9.805578,0.00027287006,0.0008989945,-0.00074768066,0.00010681152,-7.6293945e-05,6.1035156e-05
2019-07-01T19:05:31.645Z,-0.0011103326,-0.0073246034,0.5030206,0.112457275,-0.093322754,9.808182,14.022827,9.423828,-48.521423,0.113202356,-0.09108461,9.8055725,0.00047697127,-0.0010613203,0.0023679733,0.00016784668,-1.5258789e-05,-6.1035156e-05
2019-07-01T19:05:31.853Z,-0.0010402817,-0.0073219123,0.5029239,0.122039795,-0.088531494,9.810577,13.500977,8.670044,-49.71161,0.11385794,-0.08985793,9.805577,0.0012531728,0.002032496,0.00045871735,0.00010681152,-1.5258789e-05,-0.00012207031
2019-07-01T19:05:32.047Z,-0.0011226436,-0.0073461724,0.50308424,0.114852905,-0.098098755,9.815353,14.105225,9.507751,-49.264526,0.11343975,-0.091514446,9.805567,-0.0004812181,-0.0037261248,0.00015068054,0.00010681152,9.1552734e-05,0.0
2019-07-01T19:05:32.263Z,-0.0010786912,-0.007293766,0.5029114,0.119644165,-0.095718384,9.808182,13.679504,9.120178,-49.853516,0.11300327,-0.09022977,9.805584,-0.0005279556,0.002874054,-0.00085639954,-7.6293945e-05,9.1552734e-05,6.1035156e-05
2019-07-01T19:05:32.460Z,-0.0011088056,-0.0073305937,0.50303185,0.112457275,-0.093322754,9.810577,13.891602,8.554077,-50.357056,0.11331779,-0.09111932,9.8055725,0.00035426766,-0.0019667968,0.0014944077,4.5776367e-05,-7.6293945e-05,6.1035156e-05
2019-07-01T19:05:32.666Z,-0.0011218282,-0.007328623,0.50304437,0.114852905,-0.093322754,9.8033905,13.276672,9.014893,-49.17755,0.113154575,-0.09132225,9.8055725,0.00027117133,-0.00081609935,0.00036144257,0.00010681152,0.00015258789,0.00012207031
2019-07-01T19:05:32.868Z,-0.0011272862,-0.007334199,0.5030638,0.110076904,-0.08135986,9.800995,13.865662,9.793091,-50.404358,0.11319318,-0.09147232,9.805571,-1.1175871e-07,-0.0013924688,-0.001999855,0.000289917,-1.5258789e-05,0.00012207031
2019-07-01T19:05:33.064Z,-0.0010523612,-0.0073204283,0.50293624,0.110076904,-0.100494385,9.8033905,12.567139,9.408569,-49.523926,0.11371234,-0.090049684,9.805577,0.0011596158,0.0017319843,-5.531311e-05,0.000289917,3.0517578e-05,0.00012207031
2019-07-01T19:05:33.270Z,-0.0011101925,-0.0072849537,0.5029327,0.114852905,-0.086135864,9.7986145,13.000488,8.4198,-50.27008,0.11254093,-0.09067963,9.805585,-0.0015061647,-0.0014472008,0.0012311935,4.5776367e-05,0.00021362305,0.0
2019-07-01T19:05:33.472Z,-0.0010495384,-0.007311928,0.50291383,0.112457275,-0.095718384,9.7986145,13.044739,9.294128,-49.565125,0.11359844,-0.08991504,9.80558,0.0022321194,0.0013705939,-0.00077724457,4.5776367e-05,3.0517578e-05,0.00024414062
2019-07-01T19:05:33.679Z,-0.0010922594,-0.0073304293,0.5030101,0.114852905,-0.07896423,9.808182,13.267517,8.94928,-50.097656,0.113480546,-0.09083437,9.805573,-0.0005231425,-0.0020248443,0.0007638931,4.5776367e-05,-7.6293945e-05,-6.1035156e-05
2019-07-01T19:05:33.879Z,-0.0010801073,-0.0073247845,0.50298184,0.107681274,-0.090927124,9.8033905,13.650513,8.462524,-49.75891,0.11350771,-0.09056898,9.805575,0.00016858429,0.0005923286,-0.00029468536,-1.5258789e-05,3.0517578e-05,0.0
2019-07-01T19:05:34.077Z,-0.001093241,-0.007286354,0.5029139,0.105285645,-0.08375549,9.8033905,13.450623,9.547424,-50.51117,0.11273385,-0.090403624,9.805585,-0.0014456138,-6.7435205e-05,-0.0013170242,0.00010681152,3.0517578e-05,0.0
2019-07-01T19:05:34.284Z,-0.0010940105,-0.0072734626,0.50288635,0.112457275,-0.095718384,9.8033905,12.922668,8.338928,-49.60327,0.11251063,-0.09028594,9.80559,-0.0005038604,0.00030204654,-0.00023651123,-1.5258789e-05,-1.5258789e-05,0.00012207031
2019-07-01T19:05:34.487Z,-0.00112822,-0.0073337406,0.503064,0.13160706,-0.095718384,9.796219,13.618469,9.555054,-49.987793,0.113176174,-0.09148365,9.805571,0.00050803274,-0.0025736392,0.0001707077,4.5776367e-05,-0.00021362305,0.0
2019-07-01T19:05:34.693Z,-0.0010062462,-0.0074622626,0.50319004,0.119644165,-0.090927124,9.810577,13.83667,9.286499,-51.185608,0.11654475,-0.09070125,9.805538,0.00097397715,0.00022687763,-0.0006723404,0.00035095215,-0.0014953613,0.00018310547
2019-07-01T19:05:34.894Z,-0.0009948638,-0.0074686166,0.5031893,0.110076904,-0.090927124,9.808182,13.414001,8.666992,-50.312805,0.11676486,-0.09057096,9.805537,0.0017206445,-0.00038062036,-0.00093364716,0.00016784668,0.00033569336,-6.1035156e-05
2019-07-01T19:05:35.098Z,-0.0010535697,-0.0071832705,0.50263447,0.102890015,-0.088531494,9.808182,12.890625,9.580994,-50.40741,0.11140651,-0.088678345,9.805616,0.0068396553,-0.00012620538,-0.0011796951,0.0010223389,0.004562378,0.00030517578
2019-07-01T19:05:35.293Z,-0.0010945466,-0.0070536514,0.50240064,0.14356995,-0.105285645,9.772293,13.427734,9.034729,-50.465393,0.108828805,-0.08806587,9.805651,-0.007833175,0.0028655604,0.004172325,-0.00044250488,-0.0007019043,-0.00061035156
2019-07-01T19:05:35.488Z,-0.0032822206,-0.01120464,0.49705467,-0.28234863,0.70588684,9.789032,12.409973,9.544373,-49.865723,0.1586747,-0.16508724,9.803976,0.089915425,-0.15769026,0.0016975403,-0.0013580322,-0.00076293945,-0.20133972
2019-07-01T19:05:35.726Z,-0.002244024,-0.00959102,0.4026161,-0.8901367,0.23928833,9.812973,10.03418,12.229919,-49.824524,0.15446128,-0.11602229,9.804748,-0.0029607564,0.059056565,-0.005166054,-0.0038604736,0.015304565,-0.8740845
2019-07-01T19:05:35.896Z,-0.0050088423,-0.008615814,0.26974365,0.19621277,-0.42114258,9.839294,7.9467773,13.978577,-48.62976,0.13621235,-0.14017583,9.804703,-0.009126589,-0.10272488,-0.0013608932,-0.0068511963,0.021484375,-1.3854523
2019-07-01T19:05:36.099Z,-0.005668666,-0.0059020407,0.06427033,0.78245544,-1.3974152,9.834503,2.2888184,14.978027,-47.43805,0.10836962,-0.11838748,9.805336,-0.19807829,-0.15012178,-0.007750511,-0.010940552,0.034423828,-1.9999847
2019-07-01T19:05:36.350Z,-0.007521027,-0.0041190586,-0.17710616,-1.9501495,1.0049896,10.080963,-1.9165039,15.693665,-44.099426,0.105633505,-0.13086663,9.805208,-0.106805526,-0.35992432,0.027151108,-0.022857666,0.026123047,-2.3779297
2019-07-01T19:05:36.502Z,-0.0067112288,-0.0006739403,-0.30931613,-0.37327576,-0.105285645,9.7986145,-4.370117,16.242981,-41.99829,0.053284727,-0.121082395,9.8057575,-0.34303236,-0.10245118,-0.025115013,-0.005569458,0.035583496,-1.3985138
2019-07-01T19:05:36.707Z,-0.0055794553,0.0010756293,-0.32615954,-0.055038452,-0.2536316,9.827316,-6.1279297,16.71753,-43.03894,0.015749535,-0.110326245,9.806017,-0.31005627,0.013384044,0.0027589798,0.00390625,0.014205933,-0.26083374
2019-07-01T19:05:36.913Z,-0.006453644,0.0008288392,-0.31525648,-0.007171631,-0.22732544,9.829712,-5.6167603,17.181396,-42.134094,0.024477353,-0.1252447,9.8058195,-0.056528594,-0.11431074,-0.0013418198,-0.0045928955,-0.006134033,0.002822876
2019-07-01T19:05:37.129Z,-0.0067477925,0.0010344195,-0.31600702,-0.03111267,-0.25125122,9.820145,-5.69458,15.655518,-43.499756,0.022574173,-0.13197266,9.805737,-0.043624297,-0.120509714,-0.0024147034,-0.00019836426,-0.00021362305,0.00062561035
2019-07-01T19:05:37.329Z,-0.007240754,0.0012831427,-0.29785806,-0.026321411,-0.23210144,9.791428,-4.838562,16.423035,-41.264343,0.018276697,-0.14306112,9.80559,-0.039328475,-0.10798785,-4.4822693e-05,4.5776367e-05,-0.0001373291,0.00018310547
2019-07-01T19:05:37.522Z,-0.008772099,0.0023858184,-0.2878022,-0.021530151,-0.26560974,9.8033905,-6.3934326,16.189575,-43.060303,0.0047044107,-0.17823029,9.805029,-0.02647686,-0.07069509,-0.0030641556,0.00010681152,0.00016784668,0.00018310547
2019-07-01T19:05:37.725Z,-0.009790139,0.0030545185,-0.27798742,-0.033493042,-0.2416687,9.808182,-6.088257,15.698242,-42.645264,-0.0041662706,-0.20109203,9.804587,-0.01760932,-0.04614778,0.00067043304,0.00010681152,3.0517578e-05,0.00012207031
2019-07-01T19:05:37.930Z,-0.010541866,0.0034433128,-0.2671892,-0.01914978,-0.2536316,9.786652,-5.4641724,15.454102,-43.624878,-0.009830883,-0.21727514,9.804237,-0.010266791,-0.033055633,0.0017137527,0.00016784668,0.0002746582,6.1035156e-05
2019-07-01T19:05:38.131Z,-0.0109948525,0.0036999376,-0.2585821,-0.023925781,-0.2536316,9.8033905,-6.0012817,15.69519,-41.741943,-0.014332825,-0.22706084,9.80401,-0.008406511,-0.019946665,-0.0018911362,0.00010681152,0.00015258789,6.1035156e-05
2019-07-01T19:05:38.338Z,-0.011381338,0.003800757,-0.24995972,-0.01914978,-0.24645996,9.810577,-5.067444,15.184021,-43.01758,-0.01637608,-0.23475632,9.803825,-0.003494138,-0.016297713,0.00080776215,0.00022888184,0.00015258789,6.1035156e-05
2019-07-01T19:05:38.554Z,-0.011633753,0.0038837444,-0.2409094,-0.023925781,-0.25125122,9.786652,-5.357361,15.663147,-41.62445,-0.018953854,-0.23978908,9.8037,-0.0052176956,-0.010765582,0.00196743,0.00016784668,-1.5258789e-05,0.0
2019-07-01T19:05:38.750Z,-0.011763992,0.0038347756,-0.23265171,-0.021530151,-0.24406433,9.7986145,-4.6905518,16.293335,-41.97693,-0.019462973,-0.24187967,9.803648,-0.00087868236,-0.0043571293,-0.00012397766,4.5776367e-05,3.0517578e-05,0.00024414062
2019-07-01T19:05:38.945Z,-0.01192243,0.0037868142,-0.22196124,-0.01675415,-0.24406433,9.805786,-6.5567017,16.104126,-43.070984,-0.02051027,-0.24447195,9.803581,-0.0017389245,-0.0055962205,-0.00023841858,0.00010681152,9.1552734e-05,0.0
2019-07-01T19:05:39.156Z,-0.011962608,0.003780841,-0.21991584,-0.01675415,-0.25125122,9.808182,-5.3344727,16.325378,-42.245483,-0.020735368,-0.24517119,9.803563,0.00014856271,-0.0017937273,-0.0008029938,0.00010681152,0.00015258789,6.1035156e-05
2019-07-01T19:05:39.358Z,-0.0120740365,0.0036840786,-0.21312696,-0.01675415,-0.2416687,9.78186,-6.1569214,15.907288,-42.295837,-0.020119952,-0.24675144,9.803525,0.0009670686,-0.0023863316,-0.00052928925,-0.00019836426,-7.6293945e-05,0.00030517578
2019-07-01T19:05:39.560Z,-0.012114353,0.0036854732,-0.21114223,-0.028717041,-0.25125122,9.7986145,-5.079651,15.040588,-43.57605,-0.020480836,-0.24748856,9.803506,-0.00057978183,-0.0014091879,-0.00035190582,-1.5258789e-05,3.0517578e-05,0.00024414062
2019-07-01T19:05:39.761Z,-0.012159847,0.0036381988,-0.20684145,-0.023925781,-0.2416687,9.7986145,-5.567932,16.60614,-42.782593,-0.020477485,-0.24807712,9.803491,0.00013265572,-0.0015545636,-0.0013570786,0.00010681152,3.0517578e-05,6.1035156e-05
2019-07-01T19:05:39.962Z,-0.012173049,0.0035901817,-0.20228441,-0.023925781,-0.2536316,9.793823,-5.581665,16.23993,-42.478943,-0.020657672,-0.24804217,9.803492,-0.00040330365,0.000101685524,0.0010080338,-1.5258789e-05,-1.5258789e-05,0.00018310547
2019-07-01T19:05:40.188Z,-0.012161002,0.0036827067,-0.20251544,-0.021530151,-0.24885559,9.784256,-4.7943115,15.856934,-42.73987,-0.022423957,-0.24818312,9.803484,-0.0034278147,-0.0007099211,0.0006685257,0.00010681152,3.0517578e-05,-0.00012207031
2019-07-01T19:05:40.367Z,-0.012208426,0.003679748,-0.2025332,-0.021530151,-0.24645996,9.8033905,-5.5114746,16.026306,-42.60254,-0.0221742,-0.24908242,9.803461,0.0011130255,-0.0017259568,-0.00066280365,-1.5258789e-05,0.00015258789,0.00024414062
2019-07-01T19:05:40.564Z,-0.012211745,0.0036885827,-0.20255765,-0.01914978,-0.25125122,9.7986145,-5.4382324,15.811157,-42.419434,-0.022324465,-0.24918178,9.803458,-0.00016901456,-0.00065770745,0.0017824173,0.00010681152,3.0517578e-05,0.00018310547
2019-07-01T19:05:40.771Z,-0.012220555,0.0036671394,-0.20250732,-0.021530151,-0.24645996,9.8033905,-5.3497314,15.884399,-41.882324,-0.02189045,-0.24926464,9.803456,0.00058657303,-9.36687e-05,-0.0005617142,-1.5258789e-05,-7.6293945e-05,0.00012207031
2019-07-01T19:05:40.973Z,-0.012224182,0.0037030547,-0.20260145,-0.01675415,-0.25125122,9.800995,-5.532837,15.663147,-43.203735,-0.022541815,-0.24947907,9.80345,-0.00044102967,-0.00012807548,-0.0003709793,-7.6293945e-05,0.00021362305,0.00036621094
2019-07-01T19:05:41.174Z,-0.012245606,0.003674634,-0.20253995,-0.021530151,-0.24885559,9.808182,-4.873657,15.924072,-42.87567,-0.02192654,-0.24977618,9.803444,0.0018281396,-0.0010160953,0.00038051605,0.00010681152,0.00015258789,0.00012207031
2019-07-01T19:05:41.386Z,-0.012220038,0.0036903687,-0.20256667,-0.0143585205,-0.25125122,9.812973,-5.5023193,16.093445,-42.0578,-0.02232351,-0.24934831,9.803453,-0.00041570887,0.0011694133,-0.00085258484,-7.6293945e-05,9.1552734e-05,0.00024414062
2019-07-01T19:05:41.583Z,-0.0122552,0.0036486697,-0.20247842,-0.026321411,-0.24406433,9.808182,-5.809021,14.845276,-43.206787,-0.021405477,-0.24985598,9.803444,0.0015353374,-0.0014325529,0.00022125244,0.00010681152,-7.6293945e-05,-6.1035156e-05
2019-07-01T19:05:41.793Z,-0.012253365,0.0037000487,-0.20260935,-0.021530151,-0.2536316,9.815353,-5.9906006,15.991211,-42.211914,-0.022366082,-0.25002772,9.803437,-0.001562681,0.00017748773,0.00031471252,-0.0001373291,9.1552734e-05,6.1035156e-05
2019-07-01T19:05:41.991Z,-0.012287241,0.0036819056,-0.20258088,-0.028717041,-0.24885559,9.8033905,-5.685425,15.646362,-42.29431,-0.021890284,-0.2506055,9.803424,0.0015487242,-0.0008928478,0.0011692047,-7.6293945e-05,0.00015258789,0.00012207031
2019-07-01T19:05:42.187Z,-0.012268313,0.00368306,-0.20257373,-0.01914978,-0.2536316,9.7986145,-5.659485,16.305542,-42.46216,-0.0219895,-0.25024644,9.8034315,-3.0398369e-05,0.000657022,0.00013828278,1.5258789e-05,4.5776367e-05,-7.6293945e-05
2019-07-01T19:05:42.394Z,-0.0122398045,0.003646332,-0.2024642,-0.021530151,-0.2536316,9.8033905,-6.814575,15.570068,-42.189026,-0.02142536,-0.24955072,9.803451,0.001554966,0.0011432022,-0.0018224716,7.6293945e-05,0.00010681152,0.00010681152
2019-07-01T19:05:42.596Z,-0.012220633,0.0036724347,-0.20252095,-0.023925781,-0.2536316,9.800995,-5.6365967,16.818237,-42.585754,-0.021988364,-0.2492875,9.803456,-3.1037256e-05,-0.00029623508,0.0022888184,0.00019836426,0.000289917,-0.00019836426
2019-07-01T19:05:42.805Z,-0.01223068,0.0036479817,-0.20246355,-0.026321411,-0.25125122,9.8033905,-6.362915,16.616821,-41.69159,-0.021493444,-0.24938205,9.803454,0.001395369,-0.0002168119,-0.0011901855,1.5258789e-05,0.00010681152,-7.6293945e-05
2019-07-01T19:05:43.002Z,-0.0121960575,0.0036785507,-0.20252351,-0.0143585205,-0.24885559,9.796219,-6.213379,16.33606,-41.75415,-0.022202808,-0.24883993,9.803467,-0.0012557115,0.00063693523,-0.0030260086,0.0001373291,4.5776367e-05,-0.00019836426
2019-07-01T19:05:43.202Z,-0.012245026,0.0036209095,-0.20240173,-0.026321411,-0.25602722,9.7986145,-6.4300537,15.310669,-42.93518,-0.020932296,-0.24954873,9.803452,0.0024955254,-0.0015078485,0.0011663437,1.5258789e-05,-1.5258789e-05,0.00016784668
2019-07-01T19:05:43.409Z,-0.012264896,0.0036450152,-0.20247424,-0.01914978,-0.25125122,9.796219,-4.866028,15.763855,-41.09497,-0.02129785,-0.25002757,9.80344,-0.0011974759,-0.0010249466,0.00029850006,1.5258789e-05,-0.00012207031,4.5776367e-05
2019-07-01T19:05:43.626Z,-0.01231197,0.0036965949,-0.20263183,-0.01675415,-0.2536316,9.800995,-5.1757812,16.11023,-41.389465,-0.022061044,-0.25113982,9.80341,-0.0013970081,-0.00088882446,-0.0017251968,7.6293945e-05,0.00016784668,-0.00019836426
2019-07-01T19:05:43.815Z,-0.012291316,0.0036422971,-0.20248137,-0.021530151,-0.25125122,9.796219,-5.937195,17.30957,-42.69867,-0.02113888,-0.25052425,9.803428,0.002473602,0.0013797581,0.0012426376,-4.5776367e-05,0.00016784668,-0.00019836426
2019-07-01T19:05:44.036Z,-0.012305254,0.0036269103,-0.20244932,-0.021530151,-0.25125122,9.7986145,-5.2093506,15.457153,-41.89911,-0.020796211,-0.2507301,9.803422,0.00045494363,-0.00076571107,0.0022602081,7.6293945e-05,-6.1035156e-05,0.00010681152
2019-07-01T19:05:44.231Z,-0.0122730965,0.0036230665,-0.20242226,-0.01914978,-0.25125122,9.800995,-5.445862,15.591431,-42.314148,-0.020857017,-0.25009677,9.803438,4.225783e-05,0.0012199581,-0.00040626526,1.5258789e-05,4.5776367e-05,-0.0001373291
2019-07-01T19:05:44.484Z,-0.012291006,0.0036557976,-0.20251587,-0.026321411,-0.2416687,9.7986145,-6.336975,15.534973,-42.74292,-0.021390561,-0.25057265,9.803426,-0.0011048988,-0.00072547793,-0.002029419,-4.5776367e-05,-1.5258789e-05,0.00016784668
2019-07-01T19:05:44.710Z,-0.012243327,0.0036633871,-0.20250987,-0.011962891,-0.25125122,9.7986145,-5.6991577,16.873169,-40.686035,-0.021727273,-0.24968709,9.803447,-5.1738694e-05,0.0014944226,-0.00055122375,7.6293945e-05,0.00016784668,-0.0002593994
2019-07-01T19:05:44.879Z,-0.012237859,0.0036572507,-0.2024912,-0.023925781,-0.25125122,9.800995,-6.2591553,15.542603,-43.121338,-0.021635901,-0.2495573,9.80345,0.00010223314,-0.000529021,0.0010604858,0.00019836426,-1.5258789e-05,-0.00019836426
2019-07-01T19:05:45.085Z,-0.012214587,0.0036870136,-0.20255513,-0.023925781,-0.24645996,9.7986145,-5.657959,14.63623,-43.255615,-0.022283671,-0.24923006,9.803456,-0.000210803,0.0005848557,0.00054454803,1.5258789e-05,0.000289917,-0.00032043457
2019-07-01T19:05:45.275Z,-0.012222287,0.0036319247,-0.20241785,-0.026321411,-0.24406433,9.808182,-5.734253,16.37268,-42.219543,-0.021230035,-0.24915615,9.803461,0.001850443,4.5508146e-05,0.0018072128,1.5258789e-05,-6.1035156e-05,-0.00019836426
2019-07-01T19:05:45.495Z,-0.012212129,0.0036507873,-0.20246084,-0.01675415,-0.24885559,9.8033905,-6.0272217,15.187073,-42.373657,-0.0216217,-0.24903692,9.803464,9.086914e-05,-0.00029951334,0.00023460388,0.0001373291,0.00022888184,-0.0001373291
2019-07-01T19:05:45.690Z,-0.012205009,0.0036461418,-0.20244512,-0.028717041,-0.2536316,9.808182,-5.4473877,15.513611,-41.801453,-0.021564761,-0.24888141,9.803468,0.00050695427,1.8015504e-05,1.9073486e-06,7.6293945e-05,0.00010681152,-0.00019836426
2019-07-01T19:05:45.892Z,-0.012232525,0.0036674533,-0.20251453,-0.009567261,-0.2416687,9.796219,-5.909729,15.9210205,-41.775513,-0.02184709,-0.24949594,9.803452,-0.00040105917,-0.0010476559,-0.00015926361,-4.5776367e-05,4.5776367e-05,-0.0001373291
2019-07-01T19:05:46.096Z,-0.012224497,0.0036333366,-0.20242266,-0.028717041,-0.24885559,9.8033905,-4.7470093,17.028809,-43.1839,-0.021247152,-0.2492043,9.80346,0.0011488292,0.000563547,-0.0015411377,1.5258789e-05,-1.5258789e-05,4.5776367e-05
2019-07-01T19:05:46.299Z,-0.01223041,0.0036813486,-0.20254906,-0.0143585205,-0.2416687,9.7986145,-5.5389404,17.112732,-41.9281,-0.02211355,-0.24951129,9.803451,-0.0018174052,-0.0010811388,-0.002313614,0.0001373291,-1.5258789e-05,-0.00032043457
2019-07-01T19:05:46.498Z,-0.012196649,0.0036378158,-0.20241928,-0.023925781,-0.25125122,9.800995,-5.444336,15.739441,-42.81311,-0.021444622,-0.24868724,9.8034725,0.0008530952,0.0007068664,-0.0021820068,0.0002593994,-0.00012207031,-0.00019836426
2019-07-01T19:05:46.700Z,-0.012205338,0.0036631655,-0.20248899,-0.021530151,-0.25842285,9.796219,-4.9194336,16.722107,-42.63611,-0.021879245,-0.24895628,9.803465,-0.0011052359,-0.00042632222,0.002524376,-4.5776367e-05,-6.1035156e-05,4.5776367e-05
2019-07-01T19:05:46.905Z,-0.012229016,0.0036223945,-0.20239699,-0.023925781,-0.24645996,9.8033905,-5.7678223,15.641785,-42.367554,-0.021025594,-0.24924709,9.803459,0.0021148268,-0.0008594841,-0.0005464554,7.6293945e-05,0.00010681152,-1.5258789e-05
2019-07-01T19:05:47.100Z,-0.012272364,0.0036399728,-0.20246528,-0.01675415,-0.2536316,9.808182,-5.252075,16.329956,-41.944885,-0.021173632,-0.25015074,9.803436,-0.00013263337,-0.0016325116,0.00011539459,-4.5776367e-05,4.5776367e-05,-0.0001373291
2019-07-01T19:05:47.299Z,-0.012255294,0.0036418324,-0.20246093,-0.01914978,-0.2632141,9.800995,-5.1498413,14.875793,-41.415405,-0.021278257,-0.24983026,9.803445,-0.0014602747,-5.826354e-06,0.0010690689,1.5258789e-05,4.5776367e-05,-0.00019836426
2019-07-01T19:05:47.522Z,-0.012231338,0.0036354982,-0.20243186,-0.01914978,-0.2536316,9.810577,-5.015564,16.125488,-41.770935,-0.021259155,-0.24934444,9.803456,0.00091561116,0.0011640489,-0.0005674362,-4.5776367e-05,0.00022888184,-7.6293945e-05
2019-07-01T19:05:47.711Z,-0.012266707,0.0036424226,-0.20246854,-0.01914978,-0.2536316,9.796219,-5.189514,15.8203125,-41.44745,-0.021242317,-0.2500519,9.803438,0.0004258938,-0.0012397468,0.00010204315,-4.5776367e-05,0.00010681152,-0.00019836426
2019-07-01T19:05:47.924Z,-0.012319605,0.0036250956,-0.20245233,-0.023925781,-0.24885559,9.791428,-5.7495117,16.082764,-42.655945,-0.020703593,-0.25099853,9.803415,0.00083378144,-0.0026678443,0.00038719177,0.00019836426,-6.1035156e-05,-7.6293945e-05
2019-07-01T19:05:48.119Z,-0.0123035135,0.003660549,-0.20253477,-0.023925781,-0.2536316,9.8033905,-5.0369263,15.686035,-41.859436,-0.021427281,-0.25083208,9.803418,-0.00059402734,0.000508517,9.727478e-05,-4.5776367e-05,0.00022888184,-0.0002593994
2019-07-01T19:05:48.329Z,-0.012258127,0.0036510874,-0.2024862,-0.021530151,-0.2536316,9.805786,-5.947876,15.270996,-42.964172,-0.021438299,-0.24992195,9.803442,0.000134347,0.0015233606,0.00021457672,7.6293945e-05,4.5776367e-05,-0.00019836426
2019-07-01T19:05:48.528Z,-0.012289004,0.0036541214,-0.20251049,-0.026321411,-0.25125122,9.8033905,-5.747986,16.081238,-42.430115,-0.021367695,-0.2505274,9.803426,0.0003066864,-0.00076928735,-0.001124382,-0.00010681152,4.5776367e-05,-0.0001373291
2019-07-01T19:05:48.731Z,-0.012308578,0.0036601273,-0.20253639,-0.021530151,-0.2536316,9.810577,-6.2805176,15.180969,-43.800354,-0.021398641,-0.2509277,9.803415,9.3398616e-05,-0.0010873079,-0.000111579895,7.6293945e-05,4.5776367e-05,-0.00019836426
2019-07-01T19:05:48.931Z,-0.012300785,0.0036594952,-0.2025306,-0.026321411,-0.24885559,9.800995,-6.315613,16.12091,-43.15338,-0.021418951,-0.2507754,9.803419,0.00011518225,0.00021207333,0.0013589859,1.5258789e-05,4.5776367e-05,-0.00019836426
2019-07-01T19:05:49.130Z,-0.012273294,0.0036682426,-0.20253836,-0.023925781,-0.2536316,9.796219,-6.147766,16.05072,-41.96472,-0.02169419,-0.25028247,9.803432,-0.0007996969,0.00092577934,0.000111579895,1.5258789e-05,-6.1035156e-05,-0.0001373291
2019-07-01T19:05:49.330Z,-0.012292021,0.0036771842,-0.20257132,-0.023925781,-0.25602722,9.8033905,-5.696106,15.5807495,-43.21289,-0.021783063,-0.25067827,9.803421,-0.00023787655,-0.0013189614,-9.250641e-05,0.0001373291,-1.5258789e-05,-1.5258789e-05
2019-07-01T19:05:49.554Z,-0.012294112,0.0036501482,-0.20250303,-0.01914978,-0.24645996,9.810577,-5.444336,15.589905,-42.16156,-0.021273013,-0.25060958,9.803425,0.0014045835,5.802512e-05,0.0008945465,1.5258789e-05,0.00010681152,-0.0002593994
2019-07-01T19:05:49.744Z,-0.012244496,0.0036602232,-0.20250237,-0.026321411,-0.24406433,9.805786,-5.13916,15.246582,-42.24701,-0.021663778,-0.24969678,9.803446,-0.0006005708,0.001537919,-0.00019931793,7.6293945e-05,4.5776367e-05,4.5776367e-05
2019-07-01T19:05:49.951Z,-0.012238875,0.0036550025,-0.20248596,-0.023925781,-0.25602722,9.808182,-4.4784546,15.72876,-42.630005,-0.021590028,-0.24956779,9.803451,0.000774933,0.00044372678,-0.0002937317,-4.5776367e-05,0.00016784668,-0.00019836426
2019-07-01T19:05:50.167Z,-0.012237058,0.0036738769,-0.20253344,-0.01914978,-0.24406433,9.7986145,-5.053711,15.472412,-42.65747,-0.021947624,-0.2496089,9.803449,-6.994046e-05,-0.0009153038,0.002667427,0.00019836426,0.00016784668,4.5776367e-05
2019-07-01T19:05:50.356Z,-0.012277421,0.0036742883,-0.20255607,-0.021530151,-0.25602722,9.8033905,-5.7678223,15.5685425,-42.079163,-0.021789363,-0.2503861,9.803429,0.00048778765,-0.0015858114,-0.0010910034,1.5258789e-05,4.5776367e-05,-7.6293945e-05
2019-07-01T19:05:50.557Z,-0.012335608,0.0036654805,-0.20256458,-0.021530151,-0.2536316,9.810577,-6.0775757,15.911865,-42.29889,-0.021386812,-0.25146863,9.803403,0.000800794,-0.002185434,-0.001531601,1.5258789e-05,0.0,-7.6293945e-05
2019-07-01T19:05:50.755Z,-0.01231328,0.003670436,-0.20256537,-0.021530151,-0.25125122,9.808182,-5.819702,16.371155,-42.893982,-0.021570504,-0.25105956,9.8034115,-0.00020527281,0.00027933717,0.00040912628,0.0001373291,4.5776367e-05,-0.0001373291
2019-07-01T19:05:50.951Z,-0.012313405,0.003622414,-0.20244214,-0.0143585205,-0.25602722,9.800995,-5.9906006,15.914917,-41.77246,-0.020679336,-0.25086862,9.803419,0.0012991875,0.0005606711,-4.1007996e-05,-4.5776367e-05,-0.00012207031,-0.0001373291
2019-07-01T19:05:51.153Z,-0.012317848,0.003628769,-0.20246083,-0.028717041,-0.24885559,9.800995,-7.020569,16.20636,-41.368103,-0.020778943,-0.25097957,9.803416,0.00019313954,0.00019612908,-0.00018596649,-0.00010681152,0.00010681152,-0.00019836426
2019-07-01T19:05:51.359Z,-0.012306612,0.003621014,-0.20243491,-0.01914978,-0.24885559,9.793823,-6.3812256,16.177368,-41.55426,-0.020681273,-0.25073248,9.803423,0.00033981167,0.0006685853,0.00020313263,-4.5776367e-05,4.5776367e-05,-0.00032043457
2019-07-01T19:05:51.570Z,-0.012337908,0.0036085024,-0.2024195,-0.023925781,-0.25125122,9.7986145,-4.652405,17.019653,-41.300964,-0.020320648,-0.25128347,9.80341,0.00094068237,-0.00092992187,0.0001373291,-4.5776367e-05,6.1035156e-05,-0.0001373291
2019-07-01T19:05:51.776Z,-0.012349787,0.0036314959,-0.2024849,-0.023925781,-0.24645996,9.812973,-6.199646,16.627502,-41.470337,-0.020698272,-0.2516042,9.8034,-0.0003624279,-0.000880599,-0.0021486282,7.6293945e-05,0.00010681152,-0.0002593994
2019-07-01T19:05:51.972Z,-0.012310863,0.0036277953,-0.2024546,-0.023925781,-0.26081848,9.805786,-5.004883,16.493225,-42.225647,-0.020789588,-0.25084144,9.80342,-2.7013943e-05,0.0014692247,1.1444092e-05,1.5258789e-05,4.5776367e-05,-0.00019836426
2019-07-01T19:05:52.167Z,-0.012323457,0.0036429819,-0.20250031,-0.0143585205,-0.24645996,9.796219,-5.747986,15.930176,-41.630554,-0.021019494,-0.25114453,9.803411,-0.00028677844,-0.0003953576,-0.0012722015,-4.5776367e-05,4.5776367e-05,-7.6293945e-05
2019-07-01T19:05:52.391Z,-0.012291659,0.0036653217,-0.20254067,-0.0143585205,-0.24885559,9.800995,-4.5776367,15.435791,-43.28766,-0.021564532,-0.25062355,9.803424,-0.00068816356,0.00051525235,-0.0002117157,0.0001373291,0.00010681152,-0.0001373291
2019-07-01T19:05:52.576Z,-0.012358549,0.0036482422,-0.20253259,-0.01675415,-0.24885559,9.7986145,-5.0949097,16.26892,-42.192078,-0.020972818,-0.25184,9.803394,0.0013469066,-0.0020730793,0.0019378662,-0.00010681152,4.5776367e-05,-7.6293945e-05
2019-07-01T19:05:52.783Z,-0.012322224,0.0036374955,-0.20248558,-0.023925781,-0.24645996,9.8033905,-6.0897827,15.545654,-41.99524,-0.020922814,-0.25109875,9.803412,-0.00013913028,0.000995189,-0.001581192,0.0001373291,-6.1035156e-05,-7.6293945e-05
2019-07-01T19:05:52.993Z,-0.0123036625,0.0036522006,-0.20251341,-0.01675415,-0.25125122,9.796219,-5.807495,16.436768,-41.7511,-0.021271829,-0.25080132,9.803419,-0.00074920245,0.00048077106,0.0021295547,1.5258789e-05,-1.5258789e-05,0.00012207031
2019-07-01T19:05:53.191Z,-0.012323696,0.0036299492,-0.20246698,-0.026321411,-0.24406433,9.805786,-5.180359,16.342163,-43.154907,-0.020776803,-0.2510967,9.803413,0.0011519734,-0.00089618564,0.0004606247,7.6293945e-05,4.5776367e-05,-0.0001373291
2019-07-01T19:05:53.395Z,-0.012245806,0.0035922918,-0.20232868,-0.01914978,-0.24645996,9.7986145,-6.25,15.608215,-42.279053,-0.020398194,-0.24944863,9.803456,0.00053033046,0.0025043935,0.0010938644,0.00019836426,-6.1035156e-05,0.00010681152
2019-07-01T19:05:53.590Z,-0.012249902,0.0036207128,-0.20240383,-0.01675415,-0.2536316,9.793823,-6.401062,15.968323,-42.878723,-0.020908624,-0.24964166,9.803451,-0.00086769834,0.0002887845,-0.0010147095,-0.00016784668,4.5776367e-05,-0.0002593994
2019-07-01T19:05:53.790Z,-0.01222265,0.003609086,-0.20235942,-0.028717041,-0.25125122,9.8033905,-5.1605225,16.627502,-42.19055,-0.02080483,-0.24907124,9.803465,-0.0012193266,0.0015814602,-0.0021533966,1.5258789e-05,-6.1035156e-05,0.00016784668
2019-07-01T19:05:53.992Z,-0.012226837,0.0036272753,-0.20240834,-0.021530151,-0.2536316,9.800995,-4.93927,16.131592,-41.99829,-0.021125091,-0.24922484,9.803459,-0.00018024631,-0.001113072,0.0015897751,0.00019836426,0.00012207031,-7.6293945e-05
2019-07-01T19:05:54.194Z,-0.012239124,0.003593137,-0.20232728,-0.01675415,-0.25125122,9.812973,-5.4656982,15.229797,-42.76581,-0.020441309,-0.24932362,9.803459,0.0022500027,-0.0002836287,0.0010595322,1.5258789e-05,0.00022888184,4.5776367e-05
2019-07-01T19:05:54.397Z,-0.0122914715,0.0035769334,-0.20231363,-0.011962891,-0.25125122,9.800995,-5.4275513,16.105652,-42.663574,-0.019925816,-0.2502643,9.803436,0.00054516084,-0.0019580126,0.000705719,1.5258789e-05,-0.00012207031,-0.0001373291
2019-07-01T19:05:54.605Z,-0.012303782,0.0035941852,-0.2023645,-0.01914978,-0.25125122,9.791428,-5.8654785,15.196228,-42.225647,-0.020195268,-0.25057018,9.803428,0.0003272891,-0.0006938875,0.0009384155,1.5258789e-05,0.00022888184,-0.0001373291
2019-07-01T19:05:54.803Z,-0.012274397,0.0035974968,-0.2023573,-0.0143585205,-0.24885559,9.8033905,-5.795288,16.804504,-42.20276,-0.02037737,-0.2500189,9.803442,3.3501536e-05,0.0011154264,-0.0027208328,1.5258789e-05,0.00010681152,-0.00019836426
2019-07-01T19:05:55.007Z,-0.012271686,0.0035948826,-0.20234916,-0.021530151,-0.24885559,9.8033905,-4.7821045,15.995789,-41.957092,-0.020340001,-0.24995632,9.803444,0.00023938343,0.0003246665,-0.00085544586,-4.5776367e-05,4.5776367e-05,-0.0001373291
2019-07-01T19:05:55.208Z,-0.01226167,0.003588354,-0.20232704,-0.028717041,-0.24406433,9.796219,-5.5267334,15.583801,-42.160034,-0.020260017,-0.24973762,9.80345,0.00038918667,0.0005899668,0.0008764267,-4.5776367e-05,6.1035156e-05,-1.5258789e-05
2019-07-01T19:05:55.410Z,-0.012276524,0.0036007317,-0.20236675,-0.01914978,-0.24645996,9.7986145,-5.038452,17.356873,-41.06598,-0.020428639,-0.25007275,9.803439,-0.00015928037,-1.9699335e-05,0.00010204315,-0.00016784668,4.5776367e-05,0.0
2019-07-01T19:05:55.610Z,-0.012253167,0.0035970486,-0.20234482,-0.023925781,-0.2536316,9.800995,-6.767273,18.10913,-40.01007,-0.020456217,-0.24960917,9.803452,0.00011032075,0.001154244,-0.0019950867,0.0001373291,0.00022888184,-0.0001373291
2019-07-01T19:05:55.813Z,-0.012235935,0.0036198818,-0.20239423,-0.023925781,-0.2536316,9.810577,-6.817627,17.092896,-40.971375,-0.020950567,-0.24936992,9.803456,-0.0008303821,0.000435099,-0.00053691864,0.0001373291,0.00022888184,-0.0007324219
2019-07-01T19:05:56.016Z,-0.012251617,0.0036019888,-0.20235668,-0.033493042,-0.23210144,10.009171,-6.1950684,15.106201,-42.834473,-0.02055423,-0.24959926,9.803452,0.0016423669,-0.0005221069,0.00028324127,0.0001373291,0.0038909912,0.00048828125
2019-07-01T19:05:56.240Z,-0.012164821,0.003431689,-0.20187315,-0.047851562,-0.2679901,9.86322,-6.452942,16.394043,-41.809082,-0.01775015,-0.24724805,9.803517,0.0072126463,0.0052106977,-0.00379467,0.0001373291,0.00022888184,-0.0001373291
2019-07-01T19:05:56.417Z,-0.01206808,0.0034847877,-0.20195791,-0.021530151,-0.25602722,9.793823,-6.4437866,16.386414,-40.7547,-0.019131914,-0.24560197,9.8035555,-0.0023912583,0.002100259,0.017086983,0.0001373291,0.00022888184,-0.0007324219
2019-07-01T19:05:56.624Z,-0.011928894,0.0033106885,-0.20143706,-0.03111267,-0.26081848,9.633499,-6.239319,15.979004,-42.8833,-0.016468192,-0.24223074,9.803644,0.00690818,0.00665012,0.0016565323,0.0001373291,0.00022888184,0.00048828125
2019-07-01T19:05:56.828Z,-0.011972856,0.0034059486,-0.20170489,-0.026321411,-0.24645996,9.810577,-5.882263,16.577148,-41.793823,-0.01805779,-0.24345635,9.803611,-0.002282707,-0.0015764385,-0.009255409,0.0001373291,0.00022888184,-0.0001373291
2019-07-01T19:05:57.032Z,-0.0121666035,0.0036012665,-0.20230941,-0.01914978,-0.24885559,9.793823,-6.390381,16.108704,-42.32025,-0.020889806,-0.24796286,9.803492,-0.0061703194,-0.008808434,-0.019895554,0.0001373291,-0.00036621094,0.00048828125
2019-07-01T19:05:57.238Z,-0.012169413,0.0036256507,-0.2023735,-0.01914978,-0.25125122,9.793823,-5.430603,15.805054,-41.43982,-0.021330735,-0.24811497,9.803488,-0.00023253076,-0.00046002865,0.0038061142,0.0001373291,-0.00036621094,-0.0001373291
2019-07-01T19:05:57.436Z,-0.012209741,0.003654351,-0.20246871,-0.01914978,-0.24406433,9.793823,-6.083679,15.841675,-42.616272,-0.02169763,-0.24900539,9.803465,-0.00057883,-0.0024051815,0.0038042068,0.0001373291,-0.00036621094,-0.0001373291
2019-07-01T19:05:57.642Z,-0.012216696,0.0036301352,-0.20241028,-0.01914978,-0.24645996,9.791428,-4.9819946,15.336609,-43.215942,-0.021219797,-0.24904151,9.803464,0.0013418645,-0.00066022575,0.0023794174,0.0001373291,0.00022888184,-0.0001373291
2019-07-01T19:05:57.846Z,-0.0122441035,0.003662214,-0.20250727,-0.01675415,-0.24645996,9.7986145,-4.8553467,16.059875,-41.488647,-0.021702323,-0.24969731,9.803448,-0.00079858303,-0.0011743754,0.0015878677,1.5258789e-05,4.5776367e-05,-7.6293945e-05
2019-07-01T19:05:58.058Z,-0.012283986,0.0036625538,-0.20252946,-0.01914978,-0.25125122,9.7986145,-5.558777,16.600037,-41.651917,-0.021544725,-0.25046498,9.803428,0.0011958871,-0.0020795465,0.00041389465,7.6293945e-05,0.00010681152,-7.6293945e-05
2019-07-01T19:05:58.261Z,-0.01229055,0.0036382403,-0.20247056,-0.01675415,-0.25125122,9.789032,-4.5074463,15.071106,-42.5354,-0.021066772,-0.2504932,9.803428,0.0007189419,-0.00013437867,0.0007534027,7.6293945e-05,4.5776367e-05,6.1035156e-05
2019-07-01T19:05:58.464Z,-0.012336111,0.0036258812,-0.20246318,-0.021530151,-0.24645996,9.808182,-6.274414,15.17334,-42.895508,-0.020650344,-0.25131884,9.803408,0.0010197405,-0.002178818,-0.00014305115,0.0001373291,4.5776367e-05,4.5776367e-05
2019-07-01T19:05:58.657Z,-0.012308502,0.003629941,-0.20245884,-0.021530151,-0.2536316,9.8033905,-5.5374146,15.515137,-42.855835,-0.020839084,-0.2508047,9.80342,2.0481646e-05,0.00044721365,0.0021381378,0.0001373291,4.5776367e-05,-0.0001373291
2019-07-01T19:05:58.877Z,-0.01233557,0.0036129875,-0.20242977,-0.023925781,-0.2416687,9.7986145,-5.567932,16.38031,-41.696167,-0.020413438,-0.25125656,9.80341,0.0012600012,-0.0014739931,0.0017366409,0.00019836426,4.5776367e-05,0.00010681152
2019-07-01T19:05:59.074Z,-0.0122718355,0.0035978355,-0.20235682,-0.021530151,-0.24885559,9.805786,-5.3710938,15.522766,-42.407227,-0.020394169,-0.24997102,9.803442,-0.00019309483,0.0017938763,0.0005197525,0.00019836426,-0.00012207031,-1.5258789e-05
2019-07-01T19:05:59.265Z,-0.012244972,0.0035939314,-0.20233244,-0.01675415,-0.24885559,9.800995,-5.4718018,17.054749,-43.373108,-0.020432033,-0.24943918,9.803455,8.857809e-05,0.00054098666,-0.00029850006,1.5258789e-05,0.00016784668,-0.00019836426
2019-07-01T19:05:59.486Z,-0.012282405,0.0036208765,-0.20242162,-0.021530151,-0.2536316,9.7986145,-5.66864,16.012573,-42.22107,-0.020778157,-0.2502668,9.803433,0.0001909975,-0.0012500882,0.00043582916,-4.5776367e-05,0.00010681152,0.00010681152
2019-07-01T19:05:59.683Z,-0.01227367,0.0036415802,-0.20247011,-0.01914978,-0.24645996,9.8033905,-6.4056396,15.666199,-41.731262,-0.021198083,-0.2501823,9.803435,-0.0010518562,-0.0001385808,0.00045108795,7.6293945e-05,4.5776367e-05,0.00036621094
2019-07-01T19:05:59.881Z,-0.012265082,0.0036068654,-0.2023764,-0.023925781,-0.24645996,9.817749,-6.1035156,17.15393,-42.573547,-0.020589402,-0.24987759,9.803444,0.0014383849,4.567206e-05,0.0012521744,7.6293945e-05,4.5776367e-05,0.0004272461
2019-07-01T19:06:00.101Z,-0.012281614,0.0036183428,-0.20241469,-0.021530151,-0.2416687,9.8033905,-6.1294556,16.4917,-42.103577,-0.02073441,-0.25024143,9.803435,-0.00032425113,-0.00031110644,-0.00028133392,-4.5776367e-05,-6.1035156e-05,0.00016784668
2019-07-01T19:06:00.279Z,-0.012259943,0.0036070163,-0.20237403,-0.023925781,-0.24645996,9.8033905,-6.562805,15.882874,-42.66205,-0.020613303,-0.24977946,9.803447,2.6281923e-05,0.001132682,-0.0012950897,-0.00010681152,-6.1035156e-05,0.00016784668
2019-07-01T19:06:00.505Z,-0.012266995,0.0036558914,-0.20250328,-0.023925781,-0.24645996,9.800995,-5.9188843,15.777588,-42.030334,-0.02149097,-0.2501117,9.803437,-0.0019657537,-0.0004684925,-0.0008621216,-4.5776367e-05,6.1035156e-05,0.00010681152
2019-07-01T19:06:00.694Z,-0.012224538,0.003676447,-0.20253333,-0.021530151,-0.24885559,9.820145,-6.25,15.531921,-41.76483,-0.022046749,-0.2493787,9.803453,-0.00069359504,0.0011865646,-0.00057697296,0.0001373291,4.5776367e-05,4.5776367e-05
2019-07-01T19:06:00.891Z,-0.012267695,0.0036540765,-0.20249899,-0.026321411,-0.24406433,9.8033905,-6.5093994,15.077209,-41.696167,-0.021454427,-0.2501178,9.803436,0.0018302798,-0.00137797,0.0029640198,-0.00010681152,0.00022888184,0.00010681152
2019-07-01T19:06:01.103Z,-0.012250062,0.0036332526,-0.2024361,-0.01914978,-0.25602722,9.810577,-5.029297,15.983582,-42.555237,-0.02114059,-0.24969517,9.803448,0.0007984955,0.00057028234,-0.0007324219,-4.5776367e-05,-1.5258789e-05,-0.0001373291
2019-07-01T19:06:01.298Z,-0.01225183,0.003626631,-0.20242006,-0.01914978,-0.2416687,9.805786,-6.704712,16.31012,-42.645264,-0.021010494,-0.24970248,9.803448,0.00019690394,0.0005955994,0.0014295578,-4.5776367e-05,-6.1035156e-05,-7.6293945e-05
2019-07-01T19:06:01.501Z,-0.012273564,0.0036064456,-0.20237984,-0.021530151,-0.25842285,9.7986145,-6.918335,15.208435,-43.162537,-0.020546788,-0.25003886,9.80344,0.0004503876,-0.00073108077,-3.8146973e-06,7.6293945e-05,-6.1035156e-05,0.00016784668
2019-07-01T19:06:01.705Z,-0.0122802,0.0036336756,-0.2024533,-0.028717041,-0.24406433,9.7986145,-6.399536,15.814209,-41.853333,-0.021024633,-0.25027594,9.803433,-0.0009955838,-3.5226345e-05,-0.00111866,-0.00016784668,-1.5258789e-05,-1.5258789e-05
2019-07-01T19:06:01.911Z,-0.012311986,0.003624579,-0.20244694,-0.01914978,-0.24885559,9.808182,-5.944824,15.419006,-43.312073,-0.020725315,-0.25085005,9.803419,0.00013733469,-0.0009210706,-0.002026558,-0.00010681152,-0.00030517578,0.00012207031
2019-07-01T19:06:02.113Z,-0.012317356,0.0036053243,-0.20240037,-0.023925781,-0.25842285,9.8033905,-5.581665,14.567566,-43.19763,-0.020346127,-0.25087577,9.803419,0.00047711842,0.00031626225,0.0016832352,7.6293945e-05,-1.5258789e-05,0.00030517578
2019-07-01T19:06:02.321Z,-0.012315333,0.0035837688,-0.20234394,-0.023925781,-0.24406433,9.810577,-5.805969,14.76593,-42.39502,-0.01995463,-0.2507502,9.803423,0.00032964535,-4.014373e-05,-0.00015163422,-4.5776367e-05,-1.5258789e-05,0.00024414062
2019-07-01T19:06:02.512Z,-0.012266507,0.0036180809,-0.20240594,-0.023925781,-0.26081848,9.8033905,-6.4682007,16.181946,-42.60559,-0.0207916,-0.24995013,9.803443,-0.0014732126,0.0010676235,5.722046e-05,0.00019836426,4.5776367e-05,0.00010681152
2019-07-01T19:06:02.711Z,-0.012259927,0.0035992053,-0.20235397,-0.021530151,-0.24885559,9.815353,-5.064392,15.330505,-43.36548,-0.020468477,-0.24974774,9.803449,0.00084216334,0.00037629902,-0.001244545,-0.00022888184,4.5776367e-05,0.00016784668
2019-07-01T19:06:02.936Z,-0.012306174,0.003577586,-0.20232317,-0.01914978,-0.25602722,9.805786,-6.388855,16.108704,-42.170715,-0.019877551,-0.2505494,9.803429,0.0009691473,-0.0012096763,0.00060749054,1.5258789e-05,-0.00018310547,0.00024414062
2019-07-01T19:06:03.116Z,-0.012309575,0.0035726721,-0.20231237,-0.021530151,-0.24406433,9.810577,-5.4260254,16.178894,-42.874146,-0.019772444,-0.250595,9.803428,0.00014793687,0.0005276203,0.0010519028,-0.00010681152,0.00016784668,-0.0001373291
2019-07-01T19:06:03.324Z,-0.01227109,0.0035736493,-0.20229432,-0.026321411,-0.24885559,9.800995,-5.1467896,15.252686,-43.07556,-0.019948559,-0.2498595,9.803447,-0.00015042536,0.0016815066,-0.0013723373,-0.00010681152,-6.1035156e-05,0.000289917
2019-07-01T19:06:03.533Z,-0.012281664,0.0035948253,-0.20235434,-0.021530151,-0.24885559,9.7986145,-5.331421,16.09497,-40.85846,-0.020297974,-0.2501478,9.803439,-0.00028913096,6.505847e-05,0.00020980835,-4.5776367e-05,0.00010681152,-1.5258789e-05
2019-07-01T19:06:03.728Z,-0.012280925,0.003604251,-0.20237814,-0.026321411,-0.25125122,9.810577,-5.215454,15.312195,-41.9281,-0.020475846,-0.25017148,9.803437,-0.00058298744,-0.00013926625,0.0012578964,1.5258789e-05,-0.00012207031,0.00012207031
2019-07-01T19:06:03.934Z,-0.012282275,0.0036068845,-0.20238562,-0.021530151,-0.25125122,9.820145,-6.063843,16.207886,-42.39044,-0.020519154,-0.250208,9.803435,-0.0002963245,-0.0005853176,-0.00076293945,0.0001373291,4.5776367e-05,0.00024414062