rotationVector.y,rotationVector.x,magneticField.y,rotationVector.z,gravity.y,magneticField.z,linearAcceleration.y,gyroscope.y,gravity.x,gyroscope.z,gyroscope.x,magneticField.x,linearAcceleration.z,accelerometer.z,accelerometer.x,accelerometer.y,gravity.z,linearAcceleration.x
0.0035705823,-0.012218811,68.013,-0.20225853,-0.24884264,-119.54651,0.0009508729,0.00012207031,-0.020106222,0.00016784668,-0.0001373291,-19.844055,0.0003080368,9.805786,-0.01675415,-0.2368927,9.803472,0.00048362277
0.0035744405,-0.012238164,68.50128,-0.20227876,-0.24923004,-119.25659,0.0001616925,0.00024414062,-0.02009838,-9.1552734e-05,-0.0001373291,-19.015503,0.0022792816,9.791428,-0.028717041,-0.25125122,9.803463,0.00072224997
0.0035847148,-0.012246278,67.82837,-0.20230947,-0.24942721,-120.13245,-0.00082184374,-0.00010681152,-0.020255687,9.1552734e-05,0.00010681152,-19.37561,0.00072288513,9.800995,-0.01675415,-0.24645996,9.803456,-0.0003251005
0.0036422429,-0.012246309,66.545105,-0.20245717,-0.24965926,-119.53735,-0.0003657192,6.1035156e-05,-0.021322781,4.5776367e-05,-7.6293945e-05,-19.989014,-0.0015926361,9.793823,-0.023925781,-0.2536316,9.803449,-0.00188406
0.003601677,-0.012278164,67.58728,-0.20237006,-0.25010806,-120.01648,-0.0011070371,0.00012207031,-0.020439439,0.00016784668,0.00010681152,-19.706726,0.0011749268,9.796219,-0.0143585205,-0.2536316,9.803438,0.0017808937
0.0036095874,-0.012246242,67.76123,-0.20237331,-0.24952656,-119.503784,0.00048077106,-4.5776367e-05,-0.020717265,4.5776367e-05,4.5776367e-05,-20.339966,0.0014190674,9.791428,-0.033493042,-0.24406433,9.803453,-9.12454e-05
0.0035968556,-0.0122311,67.81616,-0.20233254,-0.2491844,-119.825745,0.0008279532,0.0,-0.020543233,-7.6293945e-05,0.00016784668,-19.532776,-0.003367424,9.817749,-0.011962891,-0.25602722,9.803462,-3.9979815e-05
0.0036100568,-0.012251659,67.84363,-0.20237741,-0.24963254,-119.16199,-0.00087219477,-0.00010681152,-0.020703727,-0.00021362305,-7.6293945e-05,-19.044495,0.0014276505,9.8033905,-0.026321411,-0.2536316,9.803451,-0.0003509689
0.0035635082,-0.012303205,67.83905,-0.20228542,-0.25043577,-119.566345,-0.0012573898,6.1035156e-05,-0.019628609,-3.0517578e-05,4.5776367e-05,-20.25299,-5.340576e-05,9.805786,-0.023925781,-0.24406433,9.8034315,0.0016867109
0.003554292,-0.012302843,68.05878,-0.20226157,-0.2503918,-120.12329,-0.00010356307,0.00012207031,-0.019459147,-3.0517578e-05,-0.00019836426,-20.33081,0.0005941391,9.827316,-0.0143585205,-0.24645996,9.803434,0.00080065243
0.0035929368,-0.012309419,67.33246,-0.20236431,-0.25067344,-118.76831,-0.0005276501,0.00012207031,-0.020148959,-9.1552734e-05,-1.5258789e-05,-20.108032,0.00087451935,9.808182,-0.01914978,-0.25125122,9.803424,-0.0013771635
0.0036150957,-0.012291805,67.71088,-0.2024118,-0.25042418,-119.15283,0.00039306283,-0.00010681152,-0.020632327,4.5776367e-05,-0.0001373291,-19.935608,-0.0027656555,9.800995,-0.023925781,-0.2536316,9.8034315,-0.0011407565
0.003607583,-0.012326323,67.84515,-0.20241095,-0.25105715,-118.9682,0.00030717254,-0.00016784668,-0.020351186,0.000289917,-7.6293945e-05,-20.08667,0.00090408325,9.808182,-0.021530151,-0.23928833,9.803414,-0.000704892
0.0035666323,-0.012297792,67.59491,-0.20229056,-0.25034434,-120.9671,0.0012546182,0.00012207031,-0.019708782,-3.0517578e-05,-7.6293945e-05,-18.585205,-0.00019168854,9.810577,-0.021530151,-0.25125122,9.803434,0.0017652344
0.0035680514,-0.012305474,67.099,-0.20229831,-0.25049764,-121.75598,-2.1904707e-05,0.0,-0.019703569,0.00010681152,-1.5258789e-05,-18.45398,0.0003528595,9.800995,-0.01914978,-0.2536316,9.803431,-0.0001622308
0.0035229719,-0.012317641,66.78314,-0.20218904,-0.25055036,-123.454285,0.00024732947,-4.5776367e-05,-0.018817456,-9.1552734e-05,-0.0001373291,-19.042969,-0.002152443,9.800995,-0.01675415,-0.2536316,9.8034315,0.0015893001
0.00351005,-0.0123241,67.5766,-0.2021593,-0.2506226,-121.44165,-0.00013104081,-0.00010681152,-0.018551262,4.5776367e-05,-1.5258789e-05,-20.039368,0.0017490387,9.7986145,-0.01675415,-0.24645996,9.80343,-0.00010954961
0.0035079133,-0.01230646,67.11426,-0.2021444,-0.2502751,-121.56525,0.0014392436,-4.5776367e-05,-0.01858399,-3.0517578e-05,-7.6293945e-05,-19.335938,0.0008573532,9.808182,-0.01914978,-0.25125122,9.803439,-7.604249e-05
0.0035669357,-0.012314655,67.3584,-0.20230034,-0.25066954,-120.207214,-0.0005400479,-4.5776367e-05,-0.019645184,-3.0517578e-05,-0.00019836426,-19.87915,0.0016927719,9.796219,-0.0143585205,-0.2536316,9.803426,-0.0016528219
0.0034994564,-0.012318502,67.12494,-0.20212911,-0.25047255,-120.9671,0.00022226572,0.00030517578,-0.018377721,-3.0517578e-05,4.5776367e-05,-19.090271,-0.0001449585,9.796219,-0.023925781,-0.24406433,9.803434,0.0023436416
0.0035061797,-0.012286461,67.29431,-0.20212927,-0.24988389,-122.602844,0.00057297945,-0.00010681152,-0.01863386,3.0517578e-05,4.5776367e-05,-18.934631,-0.001698494,9.800995,-0.01675415,-0.25125122,9.803449,-0.00027046166
0.0035036418,-0.012307349,66.80145,-0.20213391,-0.25027502,-122.18475,-0.001671344,-4.5776367e-05,-0.018501107,-0.00021362305,0.00022888184,-18.629456,0.00029468536,9.8033905,-0.028717041,-0.25125122,9.803438,-0.00040290505
0.0035118172,-0.012331403,67.68036,-0.20216773,-0.25077,-121.06323,-0.0004605949,-0.00016784668,-0.01855408,-3.0517578e-05,4.5776367e-05,-19.548035,-0.00012397766,9.808182,-0.01914978,-0.24645996,9.803426,0.00036712922
0.0035034597,-0.0123244785,66.82739,-0.20214258,-0.25060344,-120.19806,0.000595361,0.00024414062,-0.018427463,-3.0517578e-05,-0.0001373291,-19.096375,0.0013542175,9.810577,-0.01914978,-0.2536316,9.803431,0.0007147826
0.003514658,-0.012337841,67.64374,-0.20217848,-0.2509051,-119.244385,-6.6787004e-05,0.00018310547,-0.018580355,-0.00021362305,-7.6293945e-05,-19.857788,-0.00020122528,9.805786,-0.0143585205,-0.2368927,9.803422,-7.853843e-05
0.0034885227,-0.012324617,68.32733,-0.20210429,-0.2505462,-119.04907,0.0007685721,-4.5776367e-05,-0.018149821,0.00010681152,-1.5258789e-05,-19.424438,0.00034427643,9.805786,-0.028717041,-0.25602722,9.803432,0.00068135373
0.0035512983,-0.0123356,67.06238,-0.20227137,-0.25100917,-120.64209,-0.00018945336,6.1035156e-05,-0.019269157,-9.1552734e-05,-0.0002593994,-19.973755,0.0010299683,9.7986145,-0.0143585205,-0.24885559,9.803418,-0.0015397929
0.0035177877,-0.012351765,66.47797,-0.20219395,-0.2511852,-120.45746,-0.00049987435,0.0,-0.018581271,-0.00015258789,-1.5258789e-05,-19.999695,-0.0010643005,9.800995,-0.026321411,-0.25125122,9.803415,0.0013569947
0.0035156503,-0.0122797135,68.43109,-0.20215,-0.24979225,-118.88275,0.0026400238,0.00012207031,-0.018837228,-0.00021362305,0.00010681152,-21.107483,-0.001036644,9.800995,-0.009567261,-0.25125122,9.803451,-6.6533685e-05
0.0035083925,-0.0122992,66.99066,-0.20214176,-0.25013754,-119.30542,-0.000611037,6.1035156e-05,-0.018622661,-0.00015258789,4.5776367e-05,-19.805908,-0.0008430481,9.8033905,-0.023925781,-0.24885559,9.803443,0.00043525174
0.003548694,-0.01234336,67.596436,-0.20226884,-0.25114778,-120.62225,-0.0015136898,0.00012207031,-0.019189002,-9.1552734e-05,-7.6293945e-05,-19.628906,0.00071430206,9.7986145,-0.01914978,-0.2536316,9.803414,-0.0011491235
0.003539706,-0.012347452,67.09442,-0.20224793,-0.25119033,-119.60297,0.0009242594,-0.00010681152,-0.0190055,-3.0517578e-05,-0.0002593994,-19.40155,6.67572e-06,9.805786,-0.023925781,-0.2536316,9.803414,0.00034580566
0.0035571847,-0.012353368,67.12494,-0.20229599,-0.2513742,-119.044495,0.0006351173,0.00012207031,-0.019305391,-0.00021362305,-0.00019836426,-19.960022,1.335144e-05,9.796219,-0.0143585205,-0.25602722,9.80341,0.00015744194
0.0035453585,-0.012337604,68.663025,-0.20225719,-0.25102383,-118.78052,0.0007596314,0.0001373291,-0.019150766,-0.0002746582,-0.00019836426,-18.765259,0.00017261505,9.800995,-0.026321411,-0.2416687,9.803419,0.0009642523
0.003588143,-0.012393559,68.540955,-0.20239697,-0.25227082,-119.07654,-0.0015503466,6.1035156e-05,-0.019714456,-0.00045776367,-7.6293945e-05,-19.494629,0.0021886826,9.808182,-0.01675415,-0.25125122,9.803385,-0.0010942686
0.003585083,-0.012387324,67.43469,-0.20238578,-0.25213873,-119.9707,0.0014528632,0.00012207031,-0.01968332,-9.1552734e-05,-0.00032043457,-19.792175,0.0017957687,9.8033905,-0.023925781,-0.23928833,9.803389,0.00031067617
0.0035874606,-0.012343928,67.38434,-0.20236869,-0.2513145,-120.74432,0.0015401244,0.00012207031,-0.019905668,0.00010681152,-0.0001373291,-19.558716,-0.0026388168,9.8033905,-0.0143585205,-0.24885559,9.803409,4.2093918e-05
0.0035819835,-0.012341464,67.8421,-0.20235331,-0.25124514,-120.0943,0.0004939735,-4.5776367e-05,-0.019814206,0.00022888184,-7.6293945e-05,-20.257568,-0.0023870468,9.805786,-0.01675415,-0.25602722,9.8034115,0.00019233115
0.003566487,-0.012365005,67.1814,-0.20232609,-0.25163513,-119.773865,-0.0010116398,0.00018310547,-0.019430129,-3.0517578e-05,0.00010681152,-20.285034,0.0020799637,9.800995,-0.01914978,-0.24645996,9.803401,0.0010157637
0.0035923445,-0.012369986,67.440796,-0.20239516,-0.2518348,-120.64819,-0.00057032704,-4.5776367e-05,-0.019889208,0.00016784668,-1.5258789e-05,-19.798279,-0.0002117157,9.805786,-0.01675415,-0.26081848,9.803396,-0.000920916
0.00358051,-0.012357741,66.90369,-0.20235823,-0.25155193,-118.71185,0.000595361,6.1035156e-05,-0.019720031,0.00010681152,-1.5258789e-05,-19.967651,0.0011310577,9.805786,-0.023925781,-0.24885559,9.803403,0.00057421066
0.003549635,-0.012376343,68.23578,-0.20228887,-0.25178528,-119.43054,-0.0006181598,0.0,-0.019071044,-0.00015258789,4.5776367e-05,-19.755554,-0.000998497,9.810577,-0.009567261,-0.24885559,9.803398,0.00016828068
0.0034849911,-0.012322783,69.39392,-0.20209424,-0.25049677,-119.41681,0.0023969412,-0.0005340576,-0.018091839,0.00016784668,0.00010681152,-19.863892,0.00012493134,9.808182,-0.026321411,-0.25842285,9.803434,0.00062331185
0.0035370293,-0.012300132,67.52777,-0.20221579,-0.25027037,-119.13757,0.0004990995,0.0,-0.019150056,4.5776367e-05,-1.5258789e-05,-19.378662,0.0005617142,9.8033905,-0.023925781,-0.2416687,9.803437,-0.0019035842
0.0035719913,-0.012277609,66.63513,-0.20229355,-0.24997805,-119.729614,0.00043722987,-4.5776367e-05,-0.019891046,-0.0002746582,-1.5258789e-05,-18.6203,-0.0010614395,9.8033905,-0.023925781,-0.24645996,9.803443,-0.0021248441
0.0035869763,-0.0122718,68.229675,-0.20232892,-0.24992669,-119.84711,0.00039102137,-0.00010681152,-0.02019287,-9.1552734e-05,-1.5258789e-05,-18.791199,0.00041389465,9.808182,-0.021530151,-0.2416687,9.803444,-0.00038823858
0.003607786,-0.012299024,68.263245,-0.20239688,-0.25053346,-119.44122,-0.00091168284,0.0,-0.020467088,-0.00021362305,-7.6293945e-05,-19.351196,-0.00019931793,9.805786,-0.01914978,-0.24885559,9.803429,-0.0005871877
0.0035941096,-0.012288798,67.21802,-0.20235631,-0.25028196,-120.059204,0.0010024905,0.0,-0.020255394,-0.00019836426,-1.5258789e-05,-18.673706,0.0011434555,9.800995,-0.021530151,-0.2536316,9.803434,0.0008807089
0.0035630385,-0.012278879,68.09387,-0.20227124,-0.2499665,-118.56079,0.00068828464,0.00012207031,-0.019719752,-9.1552734e-05,-0.0001373291,-19.59076,0.00012207031,9.800995,-0.0143585205,-0.25125122,9.803444,0.0010622274
0.0035530953,-0.0123005835,67.533875,-0.20225729,-0.25034356,-120.16144,-0.0006402433,0.0,-0.019446218,-0.00021362305,-1.5258789e-05,-18.341064,-0.0021457672,9.805786,-0.021530151,-0.2536316,9.803434,0.00054238737
0.003573621,-0.012283796,68.47534,-0.20230103,-0.25010353,-120.07141,0.00030773878,0.00012207031,-0.019895876,-0.00015258789,-7.6293945e-05,-19.50531,-0.00015926361,9.800995,-0.01675415,-0.25125122,9.803441,4.58695e-05
0.0035619203,-0.012314377,67.07611,-0.20228732,-0.2506441,-120.09125,-9.2834234e-05,0.00018310547,-0.019553294,4.5776367e-05,-7.6293945e-05,-18.603516,0.00038051605,9.810577,-0.023925781,-0.24406433,9.803428,0.0013668463
0.003545261,-0.0123119755,66.552734,-0.20224325,-0.250531,-119.99359,0.0005142689,6.1035156e-05,-0.019254146,-3.0517578e-05,-7.6293945e-05,-19.91272,0.0002565384,9.808182,-0.0143585205,-0.25842285,9.803431,0.00059488043
0.0034799783,-0.012333765,68.10608,-0.20208722,-0.25068766,-118.71796,-0.00027787685,-4.5776367e-05,-0.017953811,-0.00021362305,-1.5258789e-05,-19.432068,0.0009756088,9.8033905,-0.021530151,-0.2536316,9.803429,0.0026369635
0.0035026963,-0.0123224,68.151855,-0.20213951,-0.2505604,-119.51599,0.0007849932,0.00024414062,-0.018421827,-9.1552734e-05,-0.0001373291,-19.918823,1.4305115e-05,9.800995,-0.01914978,-0.25125122,9.803431,-0.00048076175
0.003513748,-0.012276484,67.048645,-0.20214339,-0.24972253,-119.77844,0.0015844256,-0.00010681152,-0.018815186,-0.00021362305,-7.6293945e-05,-19.003296,-0.003186226,9.815353,-0.01675415,-0.25125122,9.803452,-0.00080759265
0.0035649948,-0.012308118,66.96625,-0.20229188,-0.25053614,-119.18793,-0.0009152889,0.00012207031,-0.019636022,-0.00021362305,-7.6293945e-05,-19.082642,0.0021953583,9.793823,-0.01675415,-0.24645996,9.80343,-0.0014188606
0.0035575416,-0.012335251,67.20886,-0.20228723,-0.25102752,-119.70978,-0.00138852,6.1035156e-05,-0.019386392,-9.1552734e-05,-7.6293945e-05,-19.880676,-0.00029945374,9.789032,-0.03111267,-0.24645996,9.803417,0.0007268507
0.0035726528,-0.012366111,67.83447,-0.20234253,-0.25168118,-119.49005,-0.0007493496,0.00018310547,-0.019539936,-3.0517578e-05,-1.5258789e-05,-20.335388,-0.0011510849,9.812973,-0.01914978,-0.2536316,9.8034,0.00016211905
0.0035551537,-0.012352066,67.326355,-0.20229007,-0.25134104,-120.54138,0.0007914603,0.0,-0.019273067,-3.0517578e-05,4.5776367e-05,-19.319153,-0.002038002,9.800995,-0.023925781,-0.24406433,9.803411,0.00036623515
0.0035470019,-0.012319858,68.24646,-0.20225194,-0.25068945,-119.93103,0.0018227994,0.0,-0.019254083,0.00010681152,-0.00019836426,-18.551636,0.00039577484,9.789032,-0.021530151,-0.24645996,9.803427,-0.00036956742
0.0035516014,-0.0123086255,68.167114,-0.20225775,-0.2504921,-119.296265,0.00044059753,-4.5776367e-05,-0.019385505,3.0517578e-05,4.5776367e-05,-19.676208,0.0004272461,9.808182,-0.01675415,-0.25602722,9.8034315,0.00023528188
0.00357615,-0.012325433,66.97693,-0.20232977,-0.25091368,-118.84766,-0.0010463297,0.00012207031,-0.019771842,0.00022888184,-7.6293945e-05,-19.9646,0.001077652,9.7986145,-0.01675415,-0.24645996,9.80342,0.00014969893
0.0036131938,-0.012390263,67.944336,-0.20245954,-0.25230825,-119.86694,-0.0025122166,0.00018310547,-0.020192524,-0.0002746582,-7.6293945e-05,-19.769287,0.0005683899,9.8033905,-0.023925781,-0.25842285,9.803383,-0.00039025396
0.003582387,-0.012335352,67.189026,-0.20235108,-0.25112933,-119.92798,0.00038406253,0.00012207031,-0.019846791,-3.0517578e-05,0.00010681152,-20.205688,-0.00022602081,9.805786,-0.021530151,-0.24885559,9.803414,-1.8754974e-05
0.0036084512,-0.0123371305,67.48352,-0.20241897,-0.25126833,-119.98901,-0.00020205975,0.0,-0.020322897,-0.00015258789,4.5776367e-05,-19.064331,-0.0006275177,9.8033905,-0.021530151,-0.2416687,9.803411,-0.00026042387
0.003590594,-0.01231277,68.26172,-0.2023601,-0.25072843,-120.11719,0.0013974905,0.00018310547,-0.02009175,-3.0517578e-05,-1.5258789e-05,-19.436646,-0.00090408325,9.810577,-0.01675415,-0.26081848,9.803424,0.00046876073
0.003605194,-0.012319976,67.04559,-0.20240143,-0.2509256,-119.76166,-8.931756e-05,6.1035156e-05,-0.020332946,-9.1552734e-05,-0.00019836426,-21.253967,-0.0004377365,9.810577,-0.021530151,-0.24645996,9.803418,-7.657334e-06
0.0035502163,-0.012341321,67.52014,-0.20227166,-0.25111473,-119.50989,-0.00012555718,6.1035156e-05,-0.019225607,0.00016784668,-1.5258789e-05,-19.541931,0.0014705658,9.810577,-0.021530151,-0.24885559,9.803415,0.0022281539
0.0035269253,-0.0123534845,66.563416,-0.20221832,-0.25125492,-119.99817,0.00025486946,-0.00016784668,-0.018743696,0.00016784668,-7.6293945e-05,-19.752502,-0.0002975464,9.812973,-0.023925781,-0.24885559,9.803413,8.2721934e-05
0.003539167,-0.012351261,67.62085,-0.20224859,-0.25126135,-118.785095,0.00050896406,-0.00022888184,-0.018979868,-9.1552734e-05,-7.6293945e-05,-20.176697,0.00028324127,9.8033905,-0.01675415,-0.25125122,9.803412,-0.0011151601
0.003541688,-0.012310436,67.50183,-0.20223325,-0.25048706,-119.80133,0.0021046102,0.0,-0.019194186,0.00010681152,-0.0001373291,-19.86847,-0.00076293945,9.8033905,-0.01914978,-0.2536316,9.8034315,-0.00018446706
0.003525017,-0.012337589,67.94586,-0.20220494,-0.25094184,-120.018005,-0.001277715,0.00012207031,-0.018773533,-1.5258789e-05,-0.0001373291,-19.770813,-0.001783371,9.800995,-0.01914978,-0.24645996,9.803421,0.0015446916
0.0035253009,-0.012388199,67.00592,-0.2022327,-0.25191537,-120.06378,-0.0009973645,0.00012207031,-0.018571088,-3.0517578e-05,-1.5258789e-05,-19.650269,0.0018510818,9.800995,-0.021530151,-0.25842285,9.803396,0.00062687695
0.0034955172,-0.0123623675,66.98456,-0.2021424,-0.2512996,-119.33136,0.0012666881,6.1035156e-05,-0.01812471,-0.00015258789,-7.6293945e-05,-21.012878,0.0009088516,9.8033905,-0.011962891,-0.24406433,9.803414,0.001142608
0.0035121888,-0.012375293,67.34009,-0.20219213,-0.25161478,-119.14978,0.00037404895,6.1035156e-05,-0.018380875,0.00010681152,-0.0001373291,-20.031738,-0.0001783371,9.810577,-0.023925781,-0.25125122,9.803404,-0.00027985685
0.0035245307,-0.012366022,68.12897,-0.20221888,-0.25148618,-118.19916,0.000510484,0.0,-0.018647822,-3.0517578e-05,-0.00019836426,-19.023132,0.0016431808,9.7986145,-0.023925781,-0.25125122,9.803407,-0.0007285122
0.0035106507,-0.012376508,66.71448,-0.20218882,-0.25163198,-120.5719,0.00067427754,-0.00010681152,-0.018347371,-9.1552734e-05,-0.0001373291,-19.747925,0.0014190674,9.800995,-0.01914978,-0.2536316,9.803405,0.00040663593
0.0035541467,-0.012374209,67.66815,-0.20229931,-0.25176242,-119.480896,-0.00040188432,6.1035156e-05,-0.019163476,-0.0002746582,-0.0002593994,-19.535828,-0.0012931824,9.805786,-0.01914978,-0.2536316,9.803399,-0.00094509684
0.0035615575,-0.012351973,67.518616,-0.20230646,-0.25136498,-119.28253,0.00014582276,0.00018310547,-0.01939222,-3.0517578e-05,0.00016784668,-19.540405,-6.389618e-05,9.793823,-0.021530151,-0.24885559,9.80341,-0.00022810884
0.0035853246,-0.01234542,67.39197,-0.202364,-0.25133458,-119.39392,0.0008318722,6.1035156e-05,-0.019859925,-0.0002746582,4.5776367e-05,-19.306946,-3.6239624e-05,9.812973,-0.01914978,-0.25125122,9.803409,-0.0009505842
0.0035844578,-0.012361659,67.72766,-0.20237045,-0.2516431,-119.2337,-6.225705e-05,6.1035156e-05,-0.019777153,0.00010681152,-0.0001373291,-19.694519,-0.0009756088,9.800995,-0.021530151,-0.24645996,9.803401,0.00062885694
0.0035811842,-0.012380713,67.352295,-0.20237224,-0.251996,-120.05463,-0.0006624162,6.1035156e-05,-0.019638177,-0.00015258789,-7.6293945e-05,-19.958496,0.00062179565,9.8033905,-0.01914978,-0.2536316,9.803391,0.000261629
0.0035825507,-0.012351572,68.18085,-0.20236017,-0.2514416,-119.15283,0.0011754632,0.00012207031,-0.019783214,-0.00021362305,-7.6293945e-05,-19.432068,-0.00022506714,9.796219,-0.0143585205,-0.25125122,9.803406,0.00063530356
0.003548228,-0.012327617,67.63916,-0.20225923,-0.25084344,-119.13757,0.0012819171,6.1035156e-05,-0.019244976,-0.00015258789,4.5776367e-05,-18.811035,-0.0009431839,9.805786,-0.023925781,-0.25602722,9.803422,0.0010573603
0.0035452417,-0.012335588,67.108154,-0.20225582,-0.2509846,-120.16449,-0.0002450347,0.00012207031,-0.019156871,-0.00015258789,-7.6293945e-05,-20.37201,0.0008058548,9.810577,-0.01675415,-0.2536316,9.803419,8.739531e-06
0.0035509355,-0.012304992,67.276,-0.2022541,-0.25041962,-120.29419,0.0016103089,-0.00022888184,-0.019388067,4.5776367e-05,-7.6293945e-05,-20.043945,0.0019760132,9.7986145,-0.01675415,-0.25125122,9.803433,-0.0004752949
0.0035281084,-0.012378584,67.359924,-0.20223477,-0.2517419,-118.77899,-0.0016234517,0.00012207031,-0.018662618,-9.1552734e-05,-0.0002593994,-19.706726,-0.00074863434,9.800995,-0.01914978,-0.2368927,9.8034,0.0016670991
0.0035429862,-0.012389328,67.17987,-0.20227873,-0.25200808,-120.043945,-0.00066259503,6.1035156e-05,-0.01889443,-7.6293945e-05,-7.6293945e-05,-19.241333,-0.0017719269,9.800995,-0.009567261,-0.25125122,9.803393,-1.0093674e-05
0.003574036,-0.012394985,67.52167,-0.2023615,-0.25224155,-119.659424,6.0409307e-05,0.00018310547,-0.019447,-0.00039672852,-1.5258789e-05,-19.543457,9.441376e-05,9.808182,-0.0143585205,-0.24885559,9.803388,-0.00089172274
0.0035561756,-0.012393582,67.689514,-0.20231488,-0.2521428,-119.895935,0.00045377016,-4.5776367e-05,-0.019121556,-0.00021362305,-1.5258789e-05,-20.344543,0.0015001297,9.8033905,-0.021530151,-0.24885559,9.80339,0.00046272576
0.0035095122,-0.012413761,67.214966,-0.20220579,-0.25234312,-120.614624,-0.00031885505,0.0,-0.018173369,-3.0517578e-05,-0.0001373291,-19.88678,-0.00091171265,9.810577,-0.011962891,-0.2536316,9.803386,0.00213808
0.0035014271,-0.012417149,66.867065,-0.20218684,-0.25237578,-120.199585,0.0006836355,0.0,-0.018009527,4.5776367e-05,-1.5258789e-05,-20.703125,0.00068092346,9.8033905,-0.0143585205,-0.2536316,9.803385,0.00054050423
0.0034999277,-0.01239095,67.71088,-0.20216899,-0.2518664,-119.49921,0.0011163056,6.1035156e-05,-0.018089235,-9.1552734e-05,-0.0001373291,-18.891907,-0.0014686584,9.808182,-0.01914978,-0.25125122,9.803398,-0.0005713422
0.0035038542,-0.012434357,67.19208,-0.20220226,-0.25271615,-119.703674,-0.001154691,-0.00010681152,-0.017983912,4.5776367e-05,-1.5258789e-05,-20.121765,-0.0006494522,9.800995,-0.01675415,-0.25125122,9.803377,3.9923936e-05
0.003469972,-0.012432054,67.64221,-0.20211397,-0.252536,-119.36188,0.0008433163,0.0,-0.01736506,-0.00033569336,-0.0001373291,-18.812561,0.0014228821,9.810577,-0.009567261,-0.2536316,9.803382,-0.00010408275
0.0035010334,-0.0124241365,67.26837,-0.20218955,-0.2525085,-118.71338,0.00057551265,6.1035156e-05,-0.017973552,-0.00015258789,-0.00019836426,-19.950867,0.0003118515,9.7986145,-0.01914978,-0.2536316,9.803383,-0.0014025886
0.00351115,-0.01241401,67.68646,-0.20221013,-0.25235453,-119.29169,0.000885576,0.0,-0.018202713,-3.0517578e-05,-0.0001373291,-20.339966,-0.0018625259,9.8033905,-0.011962891,-0.25602722,9.803387,-0.00022910163
0.0035032593,-0.012400479,67.793274,-0.20218264,-0.25206286,-118.16406,0.00036853552,-4.5776367e-05,-0.01811192,-0.00015258789,0.00010681152,-19.683838,0.0014734268,9.800995,-0.021530151,-0.24645996,9.803393,0.00016973354
0.0035325412,-0.012391791,67.333984,-0.20225321,-0.25201347,-120.99304,0.00081688166,0.0,-0.018690616,-9.1552734e-05,-7.6293945e-05,-19.239807,0.0019454956,9.8033905,-0.01675415,-0.25602722,9.803394,-0.0009281356
0.0035257866,-0.012397387,68.60199,-0.20223886,-0.25209385,-118.08014,-0.00077977777,6.1035156e-05,-0.018542377,-9.1552734e-05,-7.6293945e-05,-19.56482,-0.0010995865,9.812973,-0.021530151,-0.25125122,9.803391,-0.000116121024
0.0034957223,-0.012422762,67.604065,-0.20217517,-0.25246078,-119.45343,5.081296e-05,-4.5776367e-05,-0.01788071,-0.0001373291,-7.6293945e-05,-20.50476,-0.0007266998,9.810577,-0.01914978,-0.25602722,9.803385,0.0011287872
0.0035466682,-0.012394557,66.91742,-0.20229098,-0.25212333,-118.673706,0.0014056265,-4.5776367e-05,-0.018941242,4.5776367e-05,-1.5258789e-05,-20.851135,0.0011091232,9.7986145,-0.01914978,-0.2536316,9.8033905,-0.0016394649
0.0035695198,-0.01238001,67.48352,-0.2023419,-0.25193563,-119.644165,0.000952363,0.0,-0.01942475,0.00010681152,-0.00038146973,-20.108032,-0.0016469955,9.8033905,-0.023925781,-0.25125122,9.803393,-0.0016305428
0.0035662078,-0.012382157,66.67633,-0.20233454,-0.2519636,-120.97626,0.00025510788,-0.00016784668,-0.019354515,-9.1552734e-05,4.5776367e-05,-19.27185,-0.0006170273,9.7986145,-0.023925781,-0.2536316,9.803393,-0.00026707537
0.0035624118,-0.012383521,67.47589,-0.20232552,-0.25197455,-122.6181,2.6971102e-05,-4.5776367e-05,-0.019278523,0.00010681152,-0.0001373291,-19.488525,0.00039291382,9.800995,-0.021530151,-0.24645996,9.803394,0.0006186161
0.003553964,-0.012415003,67.829895,-0.20232064,-0.25254548,-120.28198,-0.0005989969,0.00018310547,-0.01899257,-0.00015258789,-0.0001373291,-19.37561,-0.00053691864,9.786652,-0.021530151,-0.24406433,9.803379,0.00080515444
0.003535061,-0.0124341715,67.659,-0.20228232,-0.25283787,-120.45441,0.0006521046,0.00012207031,-0.018563338,4.5776367e-05,-0.0001373291,-19.787598,-0.00018405914,9.8033905,-0.021530151,-0.25602722,9.803373,0.0015658922
0.0035199376,-0.012455985,67.93213,-0.20225513,-0.25319624,-118.20831,-0.00019237399,6.1035156e-05,-0.018193347,3.0517578e-05,-0.0002593994,-19.75708,0.00019741058,9.815353,-0.009567261,-0.24406433,9.803364,0.0009671878
0.0035297128,-0.012423925,67.34161,-0.20226312,-0.2526195,-120.05005,0.001404196,6.1035156e-05,-0.018506235,-0.00015258789,-1.5258789e-05,-20.118713,0.0017309189,9.805786,-0.01914978,-0.25125122,9.803378,-0.00039677322
0.0035407715,-0.012385898,67.6712,-0.20227121,-0.2519333,-119.18182,0.0019151568,0.00012207031,-0.018867442,-9.1552734e-05,-0.00019836426,-19.454956,-0.0005912781,9.791428,-0.01675415,-0.24885559,9.803396,-0.0005091522
0.0035311133,-0.012335509,68.48755,-0.20221949,-0.25092638,-118.98041,0.002090484,-4.5776367e-05,-0.018895144,-0.00015258789,-0.0001373291,-20.303345,-0.0005559921,9.8033905,-0.026321411,-0.24885559,9.803422,-0.00025315396
0.0035908255,-0.012351162,67.12952,-0.2023812,-0.25146702,-118.818665,-0.00145033,6.1035156e-05,-0.019938365,-9.1552734e-05,0.00010681152,-19.876099,-0.0018081665,9.805786,-0.011962891,-0.25602722,9.803406,-0.0018361602
0.0035649177,-0.01235762,67.5354,-0.20231812,-0.25148696,-119.81506,0.00023970008,6.1035156e-05,-0.019431354,-3.0517578e-05,4.5776367e-05,-19.384766,0.0005464554,9.800995,-0.021530151,-0.2536316,9.803406,0.0014873277
0.0035322553,-0.012390455,67.35077,-0.20225176,-0.25198665,-119.07654,-0.0006980598,0.00012207031,-0.018690797,4.5776367e-05,-7.6293945e-05,-19.869995,-0.0002641678,9.812973,-0.0143585205,-0.2536316,9.803394,0.0019367058
0.0035215113,-0.012384409,66.922,-0.20222093,-0.25182733,-119.696045,-0.00035503507,0.00012207031,-0.018516362,-0.00021362305,4.5776367e-05,-19.815063,0.0010900497,9.812973,-0.01675415,-0.2536316,9.803398,0.0008020047
0.0035235593,-0.012344215,66.922,-0.20220473,-0.2510633,-118.751526,0.0013017654,0.00012207031,-0.018719302,-9.1552734e-05,4.5776367e-05,-20.770264,0.0020074844,9.8033905,-0.021530151,-0.2536316,9.803417,-0.00018334575
0.003524568,-0.0123725245,66.833496,-0.20222244,-0.2516113,-119.28406,-0.0010350943,6.1035156e-05,-0.018621832,0.00010681152,0.00010681152,-21.10138,-0.00010585785,9.810577,-0.01914978,-0.24645996,9.803405,0.00019211508
0.0035554548,-0.01233531,67.51709,-0.20228189,-0.25102028,-119.88373,0.0014833212,0.0,-0.019347444,-0.00021362305,4.5776367e-05,-19.625854,-0.00022029877,9.796219,-0.023925781,-0.24885559,9.803418,-0.0009897612
0.003585542,-0.012386177,67.80701,-0.20238635,-0.25211853,-119.374084,0.0004284382,0.00024414062,-0.019696547,-0.00033569336,4.5776367e-05,-19.610596,0.0001077652,9.808182,-0.026321411,-0.2536316,9.803389,-0.001357913
0.0036116561,-0.012395647,68.21594,-0.20245847,-0.2524055,-119.3161,-0.00048789382,0.00012207031,-0.020141888,3.0517578e-05,-7.6293945e-05,-18.948364,-0.0010356903,9.7986145,-0.021530151,-0.24885559,9.80338,4.774332e-05
0.0036264218,-0.012389674,67.95044,-0.2024932,-0.25235015,-119.71741,0.00040403008,0.00018310547,-0.020440243,-0.00015258789,4.5776367e-05,-19.688416,0.00010585785,9.8033905,-0.0143585205,-0.2632141,9.803382,0.000102080405
0.0035920048,-0.01237886,67.43317,-0.20239903,-0.25200394,-120.23926,0.0007673204,0.00024414062,-0.019846452,0.00016784668,-1.5258789e-05,-18.75,-0.00056934357,9.805786,-0.023925781,-0.25125122,9.803391,0.0014149845
0.0035692651,-0.012388818,67.80243,-0.20234595,-0.25210387,-118.76984,0.0001309216,-0.00010681152,-0.019383857,-0.00015258789,-7.6293945e-05,-19.607544,-0.0014858246,9.800995,-0.021530151,-0.24885559,9.8033905,0.00095088966
0.003580411,-0.01239614,67.44537,-0.2023785,-0.25228932,-119.973755,0.0005804002,0.0,-0.01956047,0.00010681152,-0.0001373291,-19.630432,0.0015611649,9.810577,-0.011962891,-0.25125122,9.803385,-0.00053416565
0.0035377755,-0.012407341,67.66815,-0.20227496,-0.25233325,-120.23163,0.00039976835,-4.5776367e-05,-0.018723844,3.0517578e-05,-0.00032043457,-19.624329,0.0015335083,9.793823,-0.021530151,-0.25125122,9.803386,0.0014992598
0.0035940798,-0.01235657,67.19055,-0.20239244,-0.251584,-118.65234,0.00061023235,0.00012207031,-0.019976504,4.5776367e-05,0.00010681152,-20.03479,-0.0001039505,9.800995,-0.01914978,-0.25842285,9.803402,-0.0017951448
0.0035587624,-0.012375168,68.41583,-0.20231168,-0.25179937,-119.2215,-0.00036743283,6.1035156e-05,-0.019245142,-3.0517578e-05,0.00010681152,-20.307922,-0.00023174286,9.810577,-0.01914978,-0.2536316,9.803398,0.0013031345
0.0035612155,-0.012387007,66.54053,-0.2023243,-0.2520367,-119.43207,0.0003246069,-0.00010681152,-0.019242018,0.00035095215,4.5776367e-05,-18.943787,-0.001420021,9.810577,-0.0143585205,-0.24885559,9.803391,-0.00037985668
0.0035552997,-0.012387035,67.655945,-0.20230913,-0.25201347,-119.24896,0.0007866323,0.0,-0.019132193,4.5776367e-05,-0.00032043457,-19.69757,0.0009717941,9.810577,-0.01914978,-0.25125122,9.803392,0.000228405
0.003578945,-0.012356384,67.63611,-0.20235348,-0.25151956,-120.36896,0.0010218918,-4.5776367e-05,-0.019696584,0.00016784668,-1.5258789e-05,-20.108032,0.00096416473,9.800995,-0.021530151,-0.25602722,9.803404,-0.0008846726
0.0035502352,-0.012361861,66.952515,-0.20228267,-0.2515095,-121.04797,0.00030070543,0.0,-0.019141635,4.5776367e-05,-0.0001373291,-21.672058,0.00048160553,9.796219,-0.01675415,-0.26081848,9.803407,0.0002392251
0.0035211383,-0.012380152,67.29431,-0.20221771,-0.25174406,-119.25049,-0.0001795888,-0.00016784668,-0.01852692,4.5776367e-05,-7.6293945e-05,-19.631958,0.0001707077,9.800995,-0.01914978,-0.25125122,9.803401,0.00081475824
0.0035277302,-0.012359444,67.39197,-0.20222358,-0.25137264,-118.97583,0.0006249845,0.0,-0.018734163,-3.0517578e-05,-1.5258789e-05,-20.347595,-0.002278328,9.810577,-0.021530151,-0.24885559,9.80341,-0.0001703389
0.0035416714,-0.012370142,66.137695,-0.2022651,-0.25163418,-119.49005,0.00019285083,0.0,-0.01894881,9.1552734e-05,-7.6293945e-05,-19.525146,0.0018348694,9.796219,-0.021530151,-0.24406433,9.803403,4.608929e-05
0.0035673121,-0.012353971,67.440796,-0.20232232,-0.25142646,-120.22705,0.00046345592,0.00012207031,-0.019490745,0.00016784668,-0.00019836426,-20.840454,0.0004310608,9.796219,-0.026321411,-0.2536316,9.803407,-0.0003727805
0.0035868874,-0.012388962,68.45856,-0.20239128,-0.25217745,-116.59241,-0.0011893213,7.6293945e-05,-0.01971005,-9.1552734e-05,0.00010681152,-21.57135,-0.0006761551,9.810577,-0.021530151,-0.2632141,9.803387,-0.0008712467
0.0035868788,-0.012389348,67.51251,-0.20239148,-0.25218484,-119.88068,0.00026091933,-0.00016784668,-0.019708313,-9.1552734e-05,-0.0002593994,-19.708252,0.00067043304,9.7986145,-0.021530151,-0.24645996,9.803388,-0.0006281771
0.0035481201,-0.012415833,68.167114,-0.20230608,-0.25253794,-119.40155,-0.00084099174,-0.00010681152,-0.018880796,9.1552734e-05,0.00010681152,-20.802307,-0.0016298294,9.8033905,-0.01914978,-0.2536316,9.803379,0.0016554017
0.0035585538,-0.012420394,66.72211,-0.20233531,-0.2526675,-118.95294,0.0004965067,6.1035156e-05,-0.019055536,0.00010681152,-7.6293945e-05,-20.539856,0.00020122528,9.810577,-0.01914978,-0.25602722,9.803375,-0.00032114424
0.0035655797,-0.012406407,67.90924,-0.20234588,-0.25242698,-118.69354,0.0002719462,6.1035156e-05,-0.019243274,0.000289917,-1.5258789e-05,-19.11621,0.0012521744,9.810577,-0.01675415,-0.25842285,9.803382,-0.00013216771
0.0035422465,-0.012399678,66.29181,-0.20228235,-0.25220397,-119.4931,0.0012289584,-4.5776367e-05,-0.018838216,4.5776367e-05,-0.00019836426,-20.481873,-0.00075626373,9.808182,-0.021530151,-0.24885559,9.803389,0.0006521344
0.0035288138,-0.012407529,67.49115,-0.20225205,-0.2523009,-120.70007,0.00083586574,0.0,-0.018556884,4.5776367e-05,-0.0001373291,-20.115662,-0.0012998581,9.786652,-0.023925781,-0.2536316,9.803387,0.0001406353
0.003556232,-0.012426304,66.25519,-0.20233251,-0.2527717,-119.374084,-0.00014266372,-0.00010681152,-0.018988213,-9.1552734e-05,-0.0002593994,-19.918823,-0.0011749268,9.810577,-0.0143585205,-0.2536316,9.803373,-0.0003904458
0.0035247987,-0.012407677,67.24243,-0.20224181,-0.2522876,-119.87457,0.0015162528,0.00012207031,-0.018481815,-3.0517578e-05,-0.0001373291,-19.398499,-0.00061511993,9.812973,-0.01675415,-0.25602722,9.803387,0.0014829077
0.0035305517,-0.012451909,67.69867,-0.20228022,-0.25316054,-118.9209,-0.0012036264,6.1035156e-05,-0.01840689,4.5776367e-05,-0.0002593994,-20.0943,-0.0005683899,9.7986145,-0.021530151,-0.25125122,9.803365,-0.00025572814
0.00355266,-0.012455453,68.33038,-0.2023389,-0.25331745,-119.50073,-0.0003145039,6.1035156e-05,-0.018802257,-0.00015258789,-7.6293945e-05,-19.42749,0.0023374557,9.793823,-0.023925781,-0.2536316,9.803361,-0.00057529844
0.0035763169,-0.012398698,67.829895,-0.20236935,-0.25232202,-120.39032,0.0027607381,6.1035156e-05,-0.019474043,4.5776367e-05,4.5776367e-05,-20.501709,-0.00019454956,9.8033905,-0.01914978,-0.25125122,9.803384,-0.00062089786
0.0035661112,-0.012411494,67.44385,-0.20234996,-0.25252685,-119.59839,-0.0006094277,6.1035156e-05,-0.019232234,0.00010681152,-0.0001373291,-19.62738,0.0008249283,9.800995,-0.026321411,-0.25842285,9.803379,0.0003282912
0.0036234923,-0.012406044,67.13104,-0.20249443,-0.25265288,-120.47577,0.0007199645,6.1035156e-05,-0.020318637,0.000289917,-7.6293945e-05,-20.051575,0.001036644,9.808182,-0.021530151,-0.25125122,9.803374,-0.0014528036
0.0036260718,-0.012377915,66.78467,-0.20248602,-0.25212282,-119.0094,0.0013810694,0.00018310547,-0.020482084,3.0517578e-05,-0.00019836426,-20.697021,-0.0010662079,9.8033905,-0.021530151,-0.2536316,9.803388,-0.000100299716
0.0035847349,-0.012384512,68.27545,-0.20238338,-0.2520833,-119.7464,0.0015688837,0.0,-0.019688418,0.00022888184,-1.5258789e-05,-19.192505,-0.0005187988,9.817749,-0.021530151,-0.24885559,9.80339,0.0017456152
0.0035882078,-0.01238665,67.08374,-0.20239344,-0.25213835,-119.747925,-4.3720007e-05,0.00018310547,-0.019744039,0.00010681152,-0.00019836426,-19.563293,-0.0003452301,9.810577,-0.01914978,-0.25125122,9.803389,0.0003665667
0.0035823097,-0.012352115,67.65137,-0.20235984,-0.25145108,-119.05365,0.0014252663,6.1035156e-05,-0.019776518,-9.1552734e-05,-1.5258789e-05,-20.822144,0.00041103363,9.812973,-0.01675415,-0.25125122,9.803406,0.000155285
0.0036005985,-0.012332315,67.80701,-0.20239623,-0.25114417,-119.97223,0.0016005933,6.1035156e-05,-0.020197034,-9.1552734e-05,-7.6293945e-05,-19.69757,0.0007610321,9.8033905,-0.021530151,-0.24645996,9.803412,-0.0008577481
0.0036179759,-0.01234276,67.72156,-0.20244643,-0.25141478,-119.15741,-2.759695e-05,6.1035156e-05,-0.020476406,-0.00021362305,-0.0002593994,-19.772339,0.000664711,9.805786,-0.021530151,-0.25125122,9.803405,-0.00010462478
0.0036074168,-0.012385226,67.66052,-0.20244202,-0.2521882,-119.77692,-0.0014432371,0.00012207031,-0.020106103,-0.00015258789,4.5776367e-05,-19.702148,-0.0017843246,9.812973,-0.01675415,-0.25125122,9.803386,0.0012016911
0.0036249352,-0.01240792,68.20068,-0.20249915,-0.25269473,-119.03992,-0.00070145726,0.00012207031,-0.020337675,-9.1552734e-05,-7.6293945e-05,-20.236206,-0.00070858,9.8033905,-0.023925781,-0.24885559,9.803372,-1.7657876e-06
0.0036388277,-0.012413279,67.752075,-0.20253769,-0.25285363,-119.19861,0.0004311204,-4.5776367e-05,-0.02057324,-9.1552734e-05,-0.00019836426,-20.41626,0.00096797943,9.8033905,-0.026321411,-0.25842285,9.803369,-0.00048235245
0.003614539,-0.012400553,67.326355,-0.2024685,-0.25251135,-120.01495,0.001258105,0.00012207031,-0.02017519,-3.0517578e-05,-0.0001373291,-19.23523,-0.0015878677,9.805786,-0.0143585205,-0.2536316,9.803378,0.0015135314
0.0035817712,-0.012428283,67.43622,-0.20239916,-0.25291237,-120.121765,-0.0004975796,6.1035156e-05,-0.019453641,0.00016784668,-0.0001373291,-19.793701,-0.00041484833,9.805786,-0.01675415,-0.25125122,9.8033695,0.0012646075
0.0035856997,-0.012432432,67.56592,-0.20241147,-0.2530079,-119.18182,-0.00014910102,0.0,-0.019509435,-0.00021362305,-0.0001373291,-19.941711,0.0006799698,9.796219,-0.01914978,-0.25602722,9.803367,-0.00035738572
0.0035982225,-0.012378662,67.752075,-0.2024149,-0.25202513,-118.37311,0.0024672747,6.1035156e-05,-0.019962572,-3.0517578e-05,-1.5258789e-05,-20.33081,0.0010986328,9.791428,-0.026321411,-0.25125122,9.8033905,-0.0010933764
0.00359606,-0.012377615,67.59796,-0.20240878,-0.25199634,-119.42291,0.00030863285,-0.00022888184,-0.019926773,-0.00021362305,-7.6293945e-05,-19.459534,0.0016908646,9.7986145,-0.028717041,-0.2536316,9.803392,0.00030685775
0.0035997636,-0.012364186,67.611694,-0.20241112,-0.25175318,-119.0506,0.0007825792,0.00024414062,-0.020050623,9.1552734e-05,-0.0001373291,-19.215393,2.193451e-05,9.8033905,-0.01675415,-0.24885559,9.803397,0.00043072551
0.0036275892,-0.012325441,67.53235,-0.20246185,-0.25112072,-118.914795,0.0015758574,-4.5776367e-05,-0.02072586,-0.0002746582,4.5776367e-05,-19.296265,-0.000623703,9.812973,-0.01914978,-0.24645996,9.803412,-0.0017632917
0.0036103013,-0.012358135,67.611694,-0.20243494,-0.2516793,-119.00635,-0.0012457669,0.00012207031,-0.02027091,4.5776367e-05,-1.5258789e-05,-20.341492,-0.0018510818,9.8033905,-0.01914978,-0.2536316,9.803399,0.0008926187
0.0035614166,-0.012340395,66.64734,-0.20229992,-0.25114194,-119.236755,0.001583904,-0.00010681152,-0.019437142,-0.00021362305,-7.6293945e-05,-19.499207,0.0008354187,9.800995,-0.01914978,-0.24885559,9.803414,0.0014939457
0.003562716,-0.012334572,67.15546,-0.20230015,-0.25103527,-119.58313,0.0007547438,6.1035156e-05,-0.019485151,-7.6293945e-05,-0.0001373291,-19.558716,-0.0003938675,9.791428,-0.01914978,-0.2368927,9.803417,0.0008243825
0.0035726698,-0.012312002,67.55371,-0.20231365,-0.2506416,-120.04852,0.00083866715,0.00012207031,-0.019762442,-0.00015258789,-1.5258789e-05,-19.143677,0.0003786087,9.793823,-0.023925781,-0.25602722,9.803427,-0.0005764216
0.0035522566,-0.012291243,67.12952,-0.20225015,-0.25016075,-119.41986,0.0008266568,0.0,-0.019469002,-0.0002746582,-0.0001373291,-19.961548,-0.0014982224,9.800995,-0.01914978,-0.2416687,9.80344,0.00056293607
0.0035916904,-0.012282942,67.45758,-0.20234697,-0.25015974,-119.2276,-0.00014844537,6.1035156e-05,-0.020234568,-0.00015258789,4.5776367e-05,-19.38324,-0.0010099411,9.805786,-0.01675415,-0.25125122,9.803438,-0.0012970604
0.0035456342,-0.012338164,66.81671,-0.2022582,-0.25103566,-119.77234,-0.0009633601,6.1035156e-05,-0.019153576,0.00010681152,4.5776367e-05,-20.301819,-0.0009822845,9.8033905,-0.011962891,-0.25842285,9.803417,0.0021682065
0.0035251898,-0.012317293,67.1402,-0.20219456,-0.25055256,-118.974304,0.0012151599,-4.5776367e-05,-0.01886002,-9.1552734e-05,-0.00019836426,-19.717407,0.0017375946,9.800995,-0.026321411,-0.24885559,9.803431,-4.627928e-05
0.003588693,-0.012329776,68.02521,-0.2023643,-0.25104755,-120.08057,-0.00068870187,-4.5776367e-05,-0.019986646,0.00016784668,-7.6293945e-05,-19.688416,-0.00027370453,9.808182,-0.021530151,-0.24645996,9.803416,-0.0020327438
0.00362198,-0.01228942,67.68494,-0.2024282,-0.25040603,-119.488525,0.001792103,-4.5776367e-05,-0.020769814,3.0517578e-05,-0.0001373291,-19.294739,0.00078868866,9.805786,-0.01675415,-0.2536316,9.803431,-0.0017218459
0.0035991366,-0.012297649,66.79077,-0.20237395,-0.25047225,-120.40863,-0.00029873848,0.0,-0.020312296,4.5776367e-05,-7.6293945e-05,-19.664001,-0.0004415512,9.820145,-0.023925781,-0.24645996,9.80343,0.001161864
0.0036267478,-0.012355754,67.81006,-0.2024759,-0.25169975,-118.922424,-0.0021767616,0.0,-0.020585693,4.5776367e-05,0.00010681152,-19.526672,0.00051116943,9.791428,-0.011962891,-0.25842285,9.803398,-0.0009445213
0.0036126354,-0.012368533,67.17377,-0.20244649,-0.25188848,-120.07141,-8.240342e-05,-4.5776367e-05,-0.02027147,0.00035095215,-7.6293945e-05,-20.448303,-0.00013446808,9.805786,-0.01675415,-0.25842285,9.803393,0.0008926075
0.0035989047,-0.012398048,68.41583,-0.20242701,-0.25240034,-118.888855,-0.0009914637,0.0,-0.01989557,4.5776367e-05,-0.0001373291,-19.178772,0.0010194778,9.810577,-0.011962891,-0.25842285,9.803381,0.0007466506
0.003562115,-0.012365292,67.318726,-0.20231502,-0.2516231,-119.81506,0.0020673573,6.1035156e-05,-0.019347867,-3.0517578e-05,-1.5258789e-05,-20.440674,0.0005311966,9.8033905,-0.01914978,-0.24885559,9.803402,0.0009165574
0.0035837526,-0.012342502,67.585754,-0.20235841,-0.2512722,-119.19098,0.0009973943,-4.5776367e-05,-0.019842751,0.00035095215,-1.5258789e-05,-19.618225,-0.00012111664,9.810577,-0.01675415,-0.24406433,9.803411,-0.000740163
0.0035742759,-0.0123437075,66.867065,-0.20233472,-0.25125724,-119.94324,0.00050759315,6.1035156e-05,-0.019662041,0.00016784668,4.5776367e-05,-19.5755,-0.000538826,9.812973,-0.01675415,-0.24645996,9.803411,0.00028442033
0.0035604492,-0.012400459,68.322754,-0.20232953,-0.2522921,-119.14978,-0.0020329058,0.00018310547,-0.019172562,-0.00015258789,4.5776367e-05,-20.629883,0.00076007843,9.808182,-0.028717041,-0.24885559,9.803386,0.0012300331
0.0035420253,-0.012389766,67.526245,-0.2022765,-0.25201267,-119.662476,0.0012898147,-0.00010681152,-0.018874811,0.00022888184,-0.00019836426,-19.464111,0.0013065338,9.800995,-0.01675415,-0.24885559,9.803394,0.0004451964
0.0035388109,-0.012369185,68.46924,-0.20225725,-0.2516043,-118.64319,0.000880003,6.1035156e-05,-0.01889969,-1.5258789e-05,-7.6293945e-05,-19.415283,-8.4877014e-05,9.796219,-0.01914978,-0.24406433,9.803404,-0.00024718605
0.0035250972,-0.012357558,67.75665,-0.2022158,-0.25132582,-119.32068,0.00036469102,-0.00022888184,-0.018693069,3.0517578e-05,-1.5258789e-05,-19.290161,0.000582695,9.784256,-0.01914978,-0.25842285,9.803411,-0.00045329332
0.0035368626,-0.012353546,68.048096,-0.20224388,-0.25129598,-119.93713,0.00058177114,-4.5776367e-05,-0.018927751,0.00016784668,4.5776367e-05,-19.363403,0.00022983551,9.7986145,-0.01675415,-0.22732544,9.8034115,-0.0004472416
0.0035442493,-0.0124256415,67.752075,-0.20230137,-0.25271085,-118.870544,-0.002072364,-4.5776367e-05,-0.018768743,0.00022888184,-0.00019836426,-19.28711,0.00032234192,9.808182,-0.023925781,-0.25842285,9.803375,0.0003401246
0.0035701059,-0.012407202,67.75513,-0.20235793,-0.25246045,-120.147705,0.0010304749,0.00012207031,-0.01932394,0.00035095215,-0.00032043457,-19.378662,-0.00025844574,9.7986145,-0.0143585205,-0.26081848,9.803381,-0.0012563299
0.0035535072,-0.012418895,67.91992,-0.20232154,-0.25261843,-121.02814,0.00022283196,-0.00016784668,-0.01896812,0.00022888184,-1.5258789e-05,-19.216919,-0.000330925,9.812973,-0.028717041,-0.23928833,9.803378,0.0003100615
0.003575562,-0.012386025,68.05115,-0.20236063,-0.2520755,-119.71588,0.0018382967,0.0,-0.019512102,-1.5258789e-05,-7.6293945e-05,-19.281006,0.0005893707,9.812973,-0.0143585205,-0.26081848,9.8033905,-0.0010679234
0.0035778189,-0.012363817,66.693115,-0.20235457,-0.25165787,-121.23871,0.0021156073,-0.00016784668,-0.019645168,0.00015258789,-0.00032043457,-20.155334,-0.0016717911,9.7986145,-0.021530151,-0.2416687,9.803401,-0.00044827722
0.003565481,-0.012400759,67.36755,-0.20234261,-0.2523181,-119.90967,-0.0010454953,0.0,-0.019264635,0.00010681152,-0.00019836426,-19.715881,0.0006380081,9.805786,-0.01914978,-0.2536316,9.803386,0.0006061215
0.0035214338,-0.012377942,67.840576,-0.20221728,-0.2517028,-120.21179,0.0019574463,-0.00016784668,-0.01854147,0.00010681152,-7.6293945e-05,-19.215393,0.0013971329,9.805786,-0.021530151,-0.2536316,9.803402,0.00035714172
0.0035452826,-0.012397764,67.47284,-0.20228913,-0.2521794,-119.90967,-0.00044173002,-0.00010681152,-0.018902376,0.00035095215,-0.0002593994,-19.224548,0.00061035156,9.812973,-0.011962891,-0.25125122,9.80339,-0.0004714597
0.0035614045,-0.012394465,68.16559,-0.20232877,-0.25218076,-120.15228,5.1170588e-05,0.0,-0.019214898,9.1552734e-05,-7.6293945e-05,-20.889282,0.00025463104,9.812973,-0.021530151,-0.25125122,9.803389,-0.00064688735
0.0035933836,-0.012371529,68.02521,-0.20239866,-0.25186864,-119.929504,0.0009249747,0.00012207031,-0.01990214,-0.00021362305,-1.5258789e-05,-19.685364,-0.00030612946,9.815353,-0.009567261,-0.25125122,9.803395,-0.0011499785
0.0035776815,-0.012335793,68.019104,-0.20233923,-0.2511189,-119.17572,0.0018338859,-0.00016784668,-0.019757709,-3.0517578e-05,-7.6293945e-05,-19.67926,-0.0014829636,9.808182,-0.021530151,-0.24645996,9.803415,-0.00010580383
0.0035993573,-0.012326302,67.55066,-0.20238982,-0.25102368,-119.89746,0.00028547645,0.00012207031,-0.020198712,0.00022888184,-7.6293945e-05,-19.143677,-0.0014657974,9.805786,-0.0143585205,-0.25602722,9.803416,-0.0008564256
0.0035849079,-0.012300772,67.463684,-0.20233908,-0.25047505,-120.13245,0.0018793046,-0.00022888184,-0.020035548,0.00016784668,-7.6293945e-05,-19.389343,-0.00065517426,9.793823,-0.01914978,-0.24885559,9.803431,-0.0003031604
0.0036047257,-0.012348168,67.47894,-0.2024153,-0.2514654,-119.236755,-0.002162367,0.0,-0.02020846,4.5776367e-05,-1.5258789e-05,-19.059753,0.00020313263,9.808182,-0.021530151,-0.25842285,9.803406,0.00034304895
0.0036440939,-0.012341203,67.38129,-0.20251267,-0.25149,-119.69147,0.00025346875,0.00018310547,-0.020967187,-3.0517578e-05,-7.6293945e-05,-19.47174,-0.00034046173,9.812973,-0.023925781,-0.25125122,9.803403,-0.0010500196
0.003576784,-0.012376138,67.32025,-0.20235848,-0.25189045,-119.636536,-0.0002847314,0.0,-0.01957537,-9.1552734e-05,-7.6293945e-05,-19.31305,0.0005712509,9.8033905,-0.026321411,-0.25125122,9.803395,0.0023499131
0.0035958732,-0.012394246,68.60504,-0.2024172,-0.25231507,-119.38934,-0.00033909082,-4.5776367e-05,-0.01985498,-0.0002746582,-0.0001373291,-20.78247,0.00071048737,9.7986145,-0.011962891,-0.25842285,9.803383,-0.000726657
0.0035232857,-0.0123880105,67.62695,-0.20222741,-0.25190365,-119.53888,0.00138399,-4.5776367e-05,-0.018534487,0.000289917,-7.6293945e-05,-20.184326,-0.001282692,9.812973,-0.021530151,-0.24885559,9.803396,0.0020255353
0.0035339775,-0.012367244,67.152405,-0.20224379,-0.2515476,-120.140076,0.0015028417,-0.00016784668,-0.018818019,9.1552734e-05,-0.0002593994,-20.77179,-0.001001358,9.800995,-0.011962891,-0.2536316,9.803406,-0.0005605668
0.0035499765,-0.012376639,68.27698,-0.20228991,-0.25179234,-119.973755,-0.00041228533,6.1035156e-05,-0.019076163,-3.0517578e-05,-7.6293945e-05,-19.19403,-0.00066661835,9.8033905,-0.026321411,-0.25125122,9.803398,0.0001699645
0.00358685,-0.012327083,67.95044,-0.20235813,-0.2509884,-120.54443,0.0018983781,0.00024414062,-0.019963522,-0.00021362305,-0.0001373291,-19.77539,0.00018978119,9.800995,-0.01914978,-0.25602722,9.803417,-0.0010940488
0.0035403841,-0.012355168,67.68036,-0.2022538,-0.2513413,-119.288635,-0.00063696504,6.1035156e-05,-0.018986406,-0.00015258789,4.5776367e-05,-20.419312,-0.00035095215,9.815353,-0.01914978,-0.25842285,9.803411,0.0017584842
0.0035221176,-0.012390082,68.063354,-0.20222552,-0.2519388,-119.94629,-0.0009575486,-0.00016784668,-0.018504322,-0.0002746582,-1.5258789e-05,-19.120789,0.002158165,9.8033905,-0.01914978,-0.25125122,9.803396,0.00031717494
0.0035357499,-0.012433761,67.752075,-0.20228387,-0.2528327,-118.71796,-0.0010243356,-4.5776367e-05,-0.018577797,0.000289917,-0.0002593994,-19.285583,1.04904175e-05,9.808182,-0.021530151,-0.25125122,9.803372,-0.00032646954
0.0035649533,-0.012425831,67.88483,-0.20235465,-0.25263944,-118.53485,0.000130862,6.1035156e-05,-0.018754086,-0.0002746582,-1.5258789e-05,-19.439697,7.6293945e-06,9.793823,-0.0143585205,-0.25125122,9.803377,-0.00046950765
0.0035427073,-0.012422247,67.637634,-0.2022956,-0.2522528,-119.36035,0.00043213367,0.00012207031,-0.019034889,-3.0517578e-05,-1.5258789e-05,-18.893433,-0.0022220612,9.8033905,-0.0143585205,-0.25125122,9.803387,0.0008090064
0.0035449036,-0.012427526,68.16101,-0.20230407,-0.25274968,-120.04547,-0.00017598271,-0.00010681152,-0.018773137,-0.00015258789,-0.00019836426,-19.84253,-0.0019435883,9.805786,-0.021530151,-0.2536316,9.803374,0.00011080317
0.0035749695,-0.012416087,67.73071,-0.20237517,-0.2526507,-120.43915,0.0004583001,0.0,-0.019377626,0.00022888184,-7.6293945e-05,-19.781494,0.0012598038,9.815353,-0.01914978,-0.25842285,9.803376,-0.0007178262
0.0035473672,-0.012360373,66.7984,-0.20227452,-0.25146934,-119.314575,0.0026306212,0.0,-0.019094553,0.00035095215,-1.5258789e-05,-20.539856,0.001004219,9.800995,-0.021530151,-0.24406433,9.803407,-5.394593e-05
0.0035289098,-0.012344451,66.989136,-0.2022186,-0.2510893,-120.65735,0.0015293062,-0.00010681152,-0.018817576,0.00010681152,-0.0001373291,-19.978333,-0.00028038025,9.800995,-0.01914978,-0.25125122,9.803417,0.0004011728
0.003527739,-0.012344598,67.24701,-0.20221567,-0.25108743,-119.20166,8.249283e-05,-0.00016784668,-0.018795261,0.000289917,-0.0001373291,-19.232178,-0.0008277893,9.808182,-0.01675415,-0.25125122,9.803417,-0.00058324076
0.0035327969,-0.012333918,68.20679,-0.20222296,-0.25090256,-119.53888,0.00087204576,0.0,-0.018932898,9.1552734e-05,-1.5258789e-05,-19.11316,0.0010499954,9.805786,-0.01914978,-0.24645996,9.803422,-0.00044461153
0.0035131045,-0.012355991,67.83447,-0.20218417,-0.2512476,-119.306946,0.00027298927,-0.00010681152,-0.018477073,0.00010681152,-0.0002593994,-19.207764,0.0013494492,9.8033905,-0.023925781,-0.2536316,9.803414,0.0002909843
0.003509148,-0.012340544,67.30652,-0.20216577,-0.2509349,-118.72864,0.00092056394,-0.00010681152,-0.018467065,0.00022888184,-0.0001373291,-19.386292,-5.4359436e-05,9.805786,-0.023925781,-0.24885559,9.803421,3.6763027e-05
0.0035588213,-0.0123355305,68.01453,-0.20229065,-0.25103804,-118.49823,-0.0006427765,0.0,-0.019408979,0.00010681152,-7.6293945e-05,-19.676208,0.000916481,9.8033905,-0.021530151,-0.25125122,9.803417,-0.0018889327
0.0035729243,-0.012361575,67.663574,-0.2023408,-0.2515951,-119.703674,-0.00080895424,0.0,-0.0195636,4.5776367e-05,0.00010681152,-19.619751,-0.0005054474,9.815353,-0.028717041,-0.24645996,9.803402,-5.629845e-05
0.0035742132,-0.012354963,67.52472,-0.20234057,-0.25147325,-120.036316,0.000986278,0.0,-0.019614656,0.00021362305,-0.0002593994,-19.546509,0.00078868866,9.7986145,-0.01914978,-0.2536316,9.803405,-0.0007216353
0.0035477423,-0.012372284,68.37921,-0.20228183,-0.25169972,-119.52057,0.00028166175,-0.00016784668,-0.019052604,0.00016784668,-0.00019836426,-18.701172,0.0011739731,9.815353,-0.01675415,-0.2536316,9.803401,0.0013418477
0.0035780764,-0.01234659,66.89606,-0.20234601,-0.25132793,-120.66193,0.0010789335,0.00012207031,-0.019720692,9.1552734e-05,-7.6293945e-05,-20.30487,-0.0016155243,9.800995,-0.01675415,-0.24406433,9.80341,-0.001089083
0.0035549388,-0.012379541,68.418884,-0.2023042,-0.25186807,-119.07196,-6.687641e-05,0.0,-0.019156277,-9.1552734e-05,-0.0001373291,-20.225525,-0.0005903244,9.800995,-0.01914978,-0.24885559,9.803397,0.000970345
0.0036094142,-0.012367363,66.78467,-0.2024376,-0.25185305,-119.503784,0.0006096363,-4.5776367e-05,-0.020216538,0.00022888184,-0.0002593994,-19.654846,-0.0019865036,9.810577,-0.011962891,-0.25125122,9.803394,-0.0027473122
0.003574748,-0.012393188,67.34924,-0.20236237,-0.25220984,-118.774414,-0.00021192431,-4.5776367e-05,-0.019467583,0.00016784668,-7.6293945e-05,-19.866943,0.00091838837,9.8033905,-0.062210083,-0.25125122,9.803387,0.0015247632
0.0035692349,-0.01233149,67.570496,-0.20231524,-0.25100228,-117.83142,0.0026626587,-0.000289917,-0.01961871,0.00035095215,-0.00019836426,-19.689941,0.0018968582,9.86322,-0.0023956299,-0.25125122,9.803418,-0.0004737582
0.003533301,-0.012376141,66.99066,-0.2022468,-0.2517158,-119.30542,-0.00075414777,0.0001373291,-0.018768948,-0.00015258789,-7.6293945e-05,-19.80896,-0.0055971146,9.836899,-0.033493042,-0.24645996,9.803401,0.0012955051
0.003610247,-0.012361523,67.15698,-0.20243661,-0.25174418,-119.732666,0.00046765804,7.6293945e-05,-0.020255985,3.0517578e-05,-7.6293945e-05,-19.560242,0.00026130676,9.774673,-0.0023956299,-0.25125122,9.803397,-0.0022375062
0.0036978673,-0.012360936,68.13812,-0.20266129,-0.25208578,-119.13452,8.827448e-05,1.5258789e-05,-0.021883242,-0.0002593994,-0.0001373291,-20.075989,-0.0002975464,9.789032,-0.03111267,-0.114852905,9.803386,-0.0032505095
0.0036069883,-0.0123834405,67.22717,-0.20243996,-0.2521522,-120.84503,0.00039821863,6.1035156e-05,-0.020105496,0.00015258789,-0.00019836426,-19.728088,-3.0517578e-05,9.793823,-0.028717041,-0.35414124,9.803388,0.0043102764
0.0037439996,-0.012106953,66.65802,-0.20264383,-0.24739178,-120.81909,0.0097736865,7.6293945e-05,-0.023783378,-0.00015258789,-0.00019836426,-19.511414,0.0018949509,9.793823,0.0047912598,-0.1986084,9.8035,-0.0070859417
0.0035304206,-0.012373079,67.53235,-0.20223777,-0.25164542,-119.58923,-0.008217812,6.1035156e-05,-0.0187281,-9.1552734e-05,4.5776367e-05,-19.38324,-5.722046e-06,9.810577,-0.052642822,-0.2416687,9.803403,0.009877553
0.003729828,-0.01221728,67.51404,-0.20266646,-0.24945447,-120.03174,0.004429579,0.00018310547,-0.023066849,-0.0002746582,-0.0001373291,-19.709778,0.0006284714,9.796219,0.011962891,-0.29910278,9.80345,-0.0070844498
0.003548129,-0.012271614,67.222595,-0.20222907,-0.249767,-120.09125,-6.4089894e-05,6.1035156e-05,-0.019472985,-0.00021362305,-7.6293945e-05,-19.72351,-0.0011644363,9.812973,-0.06460571,-0.20100403,9.80345,0.005830519
0.003718726,-0.012352643,67.17224,-0.20271042,-0.25201052,-119.84558,-0.0042467117,7.6293945e-05,-0.022304153,-0.00021362305,-7.6293945e-05,-20.446777,0.0020952225,9.808182,0.011962891,-0.29670715,9.803386,-0.0044890307
0.0035478035,-0.012284476,68.03436,-0.2022351,-0.25001284,-119.18335,0.0042860806,-6.1035156e-05,-0.019414162,0.00010681152,-0.00019836426,-19.438171,0.00027942657,9.820145,-0.047851562,-0.23210144,9.803444,0.0053010285
0.0036305052,-0.01236682,67.7475,-0.20249146,-0.25192747,-119.76929,-0.0024006665,0.00019836426,-0.020609895,-3.0517578e-05,-0.0001373291,-19.456482,0.0014705658,9.793823,0.0,-0.25842285,9.803391,-0.0016344842
0.0035510624,-0.012319278,68.099976,-0.20226206,-0.2506946,-119.46564,0.003053069,-0.00012207031,-0.01933178,-0.00032043457,-0.00019836426,-19.598389,-0.0020360947,9.805786,-0.04067993,-0.2632141,9.803426,0.0021052714
0.0036432054,-0.012340429,67.5293,-0.20250997,-0.25147155,-118.86597,-0.0009823143,0.00032043457,-0.020953888,-0.00019836426,-0.0001373291,-20.422363,-0.0016775131,9.796219,0.007171631,-0.23210144,9.803403,-0.0015386064
0.0036030507,-0.012399181,68.11066,-0.20243827,-0.25243878,-119.31915,-0.0012038052,1.5258789e-05,-0.019967794,9.1552734e-05,-0.00019836426,-19.436646,0.0012788773,9.812973,-0.035888672,-0.2679901,9.80338,0.001550775
0.0035924644,-0.0124016,66.57257,-0.20241237,-0.2524427,-120.12024,-0.0009532273,1.5258789e-05,-0.01976155,-0.00033569336,-0.00019836426,-18.544006,0.00095272064,9.800995,-0.03111267,-0.24645996,9.80338,0.000612298
0.0036136545,-0.012389871,67.05475,-0.20246053,-0.25230256,-119.46716,0.0012957156,0.00032043457,-0.020202683,-0.00021362305,-0.0001373291,-21.092224,-0.0004749298,9.808182,-0.009567261,-0.2536316,9.803383,-0.00013726391
0.003627507,-0.012343923,68.06488,-0.20247152,-0.25147545,-119.07501,0.0026316047,-0.00010681152,-0.020648394,-0.0002746582,-0.00032043457,-20.07904,0.00096416473,9.796219,-0.028717041,-0.24406433,9.803403,-0.00016362965
0.00361689,-0.012398161,66.963196,-0.20247327,-0.25247487,-119.96918,-0.001897186,0.00044250488,-0.02022861,-0.00033569336,-7.6293945e-05,-20.295715,-0.001584053,9.817749,-0.011962891,-0.2536316,9.803379,0.0020394903
0.0036416117,-0.012323572,67.41638,-0.20249686,-0.25114125,-118.83545,0.0029844344,0.0001373291,-0.02099361,-0.00033569336,-0.00019836426,-19.944763,-0.0007381439,9.805786,-0.01914978,-0.25125122,9.8034115,-0.0017435197
0.0035730344,-0.012373947,66.90979,-0.20234768,-0.2518333,-119.6167,-0.00062441826,1.5258789e-05,-0.019514835,-0.0002746582,-7.6293945e-05,-19.973755,0.00015544891,9.800995,-0.023925781,-0.24885559,9.803397,0.0032477006
0.0035867314,-0.012402917,66.84723,-0.20239834,-0.25244495,-120.58258,-0.00071811676,0.0,-0.019649832,-0.00015258789,-0.0001373291,-18.858337,0.0009012222,9.815353,-0.01914978,-0.26081848,9.803381,2.6678666e-05
0.0035391157,-0.012387336,67.73529,-0.20226772,-0.25195426,-118.71033,0.0014476776,0.00012207031,-0.018830825,4.5776367e-05,-0.00019836426,-19.526672,0.0025281906,9.808182,-0.026321411,-0.24885559,9.803394,0.0025517493
0.0036029723,-0.012377456,67.840576,-0.20242645,-0.25202104,-118.785095,0.000107973814,0.00012207031,-0.02005561,-0.00021362305,-0.0001373291,-19.041443,0.002166748,9.8033905,-0.0047912598,-0.25602722,9.8033905,-0.0017142799
0.0035054907,-0.012396911,66.80298,-0.20218647,-0.25200328,-119.73724,9.217858e-05,0.00032043457,-0.018167943,-0.00033569336,-1.5258789e-05,-19.41681,0.00016307831,9.805786,-0.023925781,-0.25602722,9.803395,0.0038135517
0.003561782,-0.012413688,67.64221,-0.20234002,-0.25255162,-119.4397,-0.00031203032,-4.5776367e-05,-0.019142946,-0.00021362305,-0.0001373291,-18.814087,-0.00052547455,9.808182,-0.011962891,-0.24885559,9.803379,-0.0021544732
0.0035607428,-0.012403878,67.337036,-0.20233211,-0.25235894,-120.018005,0.0006828606,6.1035156e-05,-0.01916396,-0.00021362305,-1.5258789e-05,-19.07196,-0.00018501282,9.810577,-0.023925781,-0.25842285,9.803383,0.00026197731
0.0035752761,-0.012357249,67.56897,-0.20234452,-0.25152147,-119.45343,0.002228409,7.6293945e-05,-0.019624984,4.5776367e-05,-0.00019836426,-18.817139,-0.00091171265,9.805786,-0.011962891,-0.25602722,9.803405,-0.00023918413
0.0035415015,-0.012356334,66.778564,-0.20225729,-0.2513682,-120.25452,0.00038662553,0.0,-0.019002339,-9.1552734e-05,-0.0001373291,-19.821167,-0.0007696152,9.796219,-0.026321411,-0.24885559,9.80341,0.0010599289
0.0035580758,-0.012356279,67.34772,-0.20229983,-0.25143373,-119.5282,-0.0005197525,0.0,-0.019309962,-0.00015258789,0.00016784668,-19.953918,-0.0008420944,9.7986145,-0.009567261,-0.25125122,9.803408,-0.00078471936
0.0035226296,-0.012344598,66.937256,-0.20220256,-0.25106692,-119.958496,0.0010326803,0.0,-0.018700492,0.00016784668,4.5776367e-05,-20.698547,-0.00023365021,9.805786,-0.026321411,-0.24885559,9.803418,0.0012300368
0.0035570893,-0.012361568,67.211914,-0.20230012,-0.25153136,-120.08667,-0.0004170537,-0.00016784668,-0.01926995,4.5776367e-05,-0.0001373291,-19.883728,0.0006418228,9.7986145,-0.01914978,-0.25842285,9.803405,-0.0015415084
0.0035263847,-0.012401151,66.46118,-0.2022424,-0.25216857,-119.625854,-1.9401312e-05,-4.5776367e-05,-0.018538019,0.00016784668,-0.00019836426,-20.153809,-0.00083351135,9.800995,-0.023925781,-0.24406433,9.80339,0.0005943645
0.0035849414,-0.012403058,67.68036,-0.20239383,-0.25244045,-119.44122,-0.00024068356,-4.5776367e-05,-0.019616064,-3.0517578e-05,-0.00019836426,-20.420837,-0.0003900528,9.796219,-0.0143585205,-0.25602722,9.803381,-0.0014407244
0.0035905081,-0.012406987,67.83447,-0.20241022,-0.25253832,-119.30847,0.00081288815,0.00012207031,-0.019703142,0.000289917,-0.00019836426,-19.204712,-0.00041389465,9.808182,-0.028717041,-0.2536316,9.803378,0.00032438524
0.0036303177,-0.012401542,66.57257,-0.20250955,-0.25259385,-121.27991,0.00040200353,0.00018310547,-0.020463701,3.0517578e-05,-0.0001373291,-19.761658,0.0005226135,9.800995,-0.009567261,-0.25125122,9.803375,-0.0008371305
0.0035832382,-0.012396796,68.01758,-0.2023861,-0.2523133,-119.29321,0.00084486604,0.0,-0.019610204,-9.1552734e-05,-0.0001373291,-18.63556,0.00051403046,9.805786,-0.01675415,-0.2536316,9.803384,0.0016667768
0.003585675,-0.012406993,67.23633,-0.20239781,-0.252519,-119.314575,0.0005706847,6.1035156e-05,-0.019613503,-0.00045776367,-0.00032043457,-18.348694,0.00066661835,9.791428,-0.011962891,-0.24645996,9.803379,0.00023639947
0.0035588231,-0.012396,67.40265,-0.20232297,-0.2521999,-119.47479,0.0011978149,6.1035156e-05,-0.01916072,0.00015258789,-7.6293945e-05,-19.146729,-0.0011377335,9.808182,-0.021530151,-0.24885559,9.803388,0.0007284824
0.0035543332,-0.012417022,67.52014,-0.20232266,-0.25258577,-119.43359,0.00042065978,0.0,-0.01899113,0.00010681152,-0.0002593994,-19.541931,0.0021209717,9.812973,-0.009567261,-0.25602722,9.803379,0.00033204816
0.0035571565,-0.012393767,67.54913,-0.20231749,-0.2521503,-119.17572,0.0006997287,-4.5776367e-05,-0.019138983,-0.00015258789,-0.0001373291,-20.1828,-0.00018501282,9.824936,-0.026321411,-0.24645996,9.80339,-0.00048157945
0.0035805788,-0.012401433,68.218994,-0.20238174,-0.2523917,-119.19708,0.00024291873,6.1035156e-05,-0.01954184,9.1552734e-05,-1.5258789e-05,-19.993591,0.0014810562,9.808182,-0.01675415,-0.2536316,9.803382,-0.00032134913
0.0035477795,-0.012397276,67.43622,-0.20229529,-0.25218004,-120.121765,0.0007382035,-4.5776367e-05,-0.018950684,-1.5258789e-05,-0.0001373291,-19.79065,-0.0007696152,9.7986145,-0.0143585205,-0.24645996,9.803389,0.0007650852
0.0035534366,-0.012426569,66.90369,-0.20232546,-0.25276557,-120.21484,-0.0006132424,0.0,-0.018935291,-7.6293945e-05,-0.0001373291,-20.13855,-0.0011396408,9.800995,-0.01675415,-0.24885559,9.803373,3.1443313e-05
0.0035543202,-0.012396067,67.585754,-0.20231144,-0.2521831,-118.31818,0.000977248,0.0,-0.019076945,4.5776367e-05,-0.0001373291,-20.657349,0.00051021576,9.8033905,-0.021530151,-0.26081848,9.80339,-0.0002994407
0.003579858,-0.012421373,67.49725,-0.20239055,-0.2527719,-119.27338,-0.00013449788,-4.5776367e-05,-0.019446556,-0.00015258789,4.5776367e-05,-19.863892,-0.0017271042,9.810577,-0.023925781,-0.24885559,9.803372,-0.0011369344
0.0036184038,-0.012445218,68.01758,-0.20250233,-0.25338507,-120.19653,-0.00023463368,-4.5776367e-05,-0.02006325,0.00022888184,-0.00032043457,-18.722534,0.00029182434,9.800995,-0.01675415,-0.25602722,9.803355,-0.0012370776
0.0036079893,-0.012429626,67.14325,-0.20246723,-0.2530436,-122.02759,-0.00032415986,0.0,-0.01993425,-0.00015258789,0.0,-18.936157,0.0013113022,9.796219,-0.01675415,-0.25125122,9.803365,-0.0018372871
0.0035734654,-0.012392927,67.44385,-0.20235893,-0.25219968,-119.59839,0.0016967356,7.6293945e-05,-0.019444872,-0.0002746582,-0.00012207031,-19.628906,-0.0002450943,9.810577,-0.021530151,-0.25602722,9.803388,0.0012587942
0.0035844445,-0.012386212,67.33551,-0.20238355,-0.2521148,-119.82269,-5.555153e-05,7.6293945e-05,-0.019676054,-0.00015258789,0.0,-20.19806,-0.00032806396,9.805786,-0.01675415,-0.2536316,9.80339,-0.0001887884
0.003607442,-0.012399835,67.378235,-0.20244989,-0.252469,-119.91577,3.543496e-05,6.1035156e-05,-0.020046536,-0.0002746582,-6.1035156e-05,-19.552612,-0.0014839172,9.817749,-0.01914978,-0.25842285,9.803379,-4.866533e-05
0.003629199,-0.012398618,67.28668,-0.20250513,-0.25253317,-119.6228,-0.00013872981,0.00024414062,-0.020454971,-0.00015258789,0.0,-19.795227,0.0004453659,9.800995,-0.01914978,-0.24885559,9.803376,-0.00012802891
0.0036099516,-0.012398026,67.02576,-0.20245537,-0.25244436,-119.470215,-8.434057e-06,0.00012207031,-0.020100508,-3.0517578e-05,0.0,-19.32373,-0.0019426346,9.808182,-0.023925781,-0.25602722,9.80338,0.0011939611
0.003623958,-0.012385465,67.160034,-0.20248462,-0.25225937,-118.75763,0.001265049,0.00018310547,-0.020411853,0.00016784668,-0.00012207031,-19.392395,0.0019073486,9.805786,-0.011962891,-0.22253418,9.803384,7.291697e-05
0.003601678,-0.012430075,68.07251,-0.20245126,-0.2530268,-119.72351,-0.0015466511,0.00018310547,-0.019815383,-0.00032043457,-0.00012207031,-18.95752,0.0004787445,9.8033905,-0.03111267,-0.279953,9.803365,0.0018725675
0.0036056968,-0.012438757,67.378235,-0.20246622,-0.2532098,-119.83948,-0.000159055,0.00012207031,-0.019854212,4.5776367e-05,0.0,-19.552612,0.0011148453,9.791428,-0.011962891,-0.2871399,9.80336,-1.007691e-05
0.0036129197,-0.012348656,58.66394,-0.2024366,-0.25150773,-108.506775,0.002930224,-0.00016784668,-0.020358417,0.00016784668,-0.00012207031,-18.800354,9.8228455e-05,9.808182,-0.03111267,-0.22970581,9.803404,-0.0011689849
0.0035803323,-0.012428875,28.338623,-0.20239578,-0.25291795,-73.349,-0.0030691624,0.00012207031,-0.019424526,4.5776367e-05,0.00012207031,-10.279846,0.00038909912,9.800995,-0.01675415,-0.2632141,9.803369,0.0017121527
0.0036191554,-0.012291845,18.603516,-0.20242225,-0.25044125,-54.1214,0.0040188134,-0.00022888184,-0.02070746,0.00015258789,0.00018310547,-6.452942,-7.43866e-05,9.793823,-0.026321411,-0.2536316,9.80343,-0.003215218
0.0036334181,-0.012360573,18.000793,-0.2024956,-0.25181916,-48.098755,-0.0025018156,-0.00016784668,-0.020689592,9.1552734e-05,0.00012207031,-7.157898,-0.00084114075,9.808182,-0.021530151,-0.24885559,9.803394,-0.0003652554
0.0036496616,-0.012288713,16.78772,-0.2024989,-0.25050387,-47.982788,0.0026353002,0.0,-0.021286169,4.5776367e-05,0.0,-6.726074,-8.201599e-05,9.796219,-0.023925781,-0.2632141,9.803427,-0.00073007867
0.0036233868,-0.012340756,15.956116,-0.20245926,-0.25139806,-47.41211,-0.0019932687,0.00012207031,-0.020584995,-0.0002746582,6.1035156e-05,-8.204651,-0.0011758804,9.805786,-0.033493042,-0.25125122,9.803406,0.0012072623
0.003669001,-0.012349803,16.499329,-0.20258121,-0.25175554,-47.998047,-0.00044631958,0.00019836426,-0.021393737,-9.1552734e-05,0.0,-7.78656,-0.0012598038,9.805786,-0.023925781,-0.24645996,9.803395,-0.00134225
0.003746048,-0.012340608,16.0141,-0.20277412,-0.25188953,-48.190308,-6.5386295e-05,1.5258789e-05,-0.02286032,-0.00033569336,-0.00012207031,-7.4050903,0.0014009476,9.810577,-0.007171631,-0.25125122,9.803388,-0.0022696834
0.0036642337,-0.01237228,15.917969,-0.202581,-0.25216818,-47.743225,-0.0007626116,0.00018310547,-0.021212911,-0.00021362305,-6.1035156e-05,-7.7285767,-0.0011415482,9.793823,-0.0023956299,-0.24885559,9.803385,0.0047028083
0.0037312752,-0.012341012,16.412354,-0.20273641,-0.2518377,-47.97821,0.0010943413,-0.00030517578,-0.022584718,-0.00015258789,6.1035156e-05,-6.903076,0.0016336441,9.793823,0.0382843,-0.2368927,9.8033905,-0.0025447514
0.0036062668,-0.012327913,16.56189,-0.20240843,-0.25108242,-47.499084,0.0010512471,0.00012207031,-0.020320242,-0.00033569336,-6.1035156e-05,-6.8130493,-0.00034999847,9.810577,-0.059814453,-0.2632141,9.803414,0.003338391
0.0035271333,-0.012355985,15.942383,-0.2022202,-0.2513038,-48.129272,-0.00088992715,0.00036621094,-0.018737288,-9.1552734e-05,0.00012207031,-7.408142,-0.0008773804,9.808182,-0.028717041,-0.27757263,9.8034115,0.0046231747
0.0038352113,-0.012335531,16.57257,-0.20300029,-0.25215226,-48.07434,-0.0014812052,-0.00018310547,-0.024534546,9.1552734e-05,6.1035156e-05,-5.609131,0.0006990433,9.796219,0.0047912598,-0.23928833,9.803377,-0.012069989
0.0036476767,-0.012394794,16.081238,-0.20255053,-0.2525341,-48.892212,-0.00090265274,0.00024414062,-0.02081332,-0.00021362305,-6.1035156e-05,-6.5216064,-0.0036849976,9.789032,0.009567261,-0.24406433,9.803376,0.008847626
0.0037109382,-0.01240879,16.464233,-0.20272048,-0.2530579,-47.955322,-0.0013199747,-6.1035156e-05,-0.021928707,-0.00015258789,0.00012207031,-7.2235107,0.0015287399,9.810577,-0.03111267,-0.24885559,9.80336,-0.0027154386
0.003627401,-0.012375056,16.139221,-0.2024879,-0.25207323,-47.894287,0.0010423958,0.0008087158,-0.020518484,-0.00021362305,0.00018310547,-6.5948486,-0.00073719025,9.810577,-0.0382843,-0.26081848,9.803389,0.0042354222
0.0038479252,-0.012338909,17.120361,-0.20303473,-0.25226858,-46.769714,0.00029075146,-0.00024414062,-0.024756366,-0.0001373291,6.1035156e-05,-7.1029663,0.0011014938,9.789032,-0.007171631,-0.2368927,9.803373,-0.00802044
0.0036582218,-0.012386877,16.625977,-0.20257337,-0.25242445,-45.5719,-0.0002837777,0.00030517578,-0.021041408,-1.5258789e-05,-0.00012207031,-5.5877686,-0.0010147095,9.8033905,-0.01675415,-0.27038574,9.803379,0.007886441
0.0037872843,-0.012326128,17.297363,-0.20287222,-0.25177783,-44.79828,0.0014869869,0.0,-0.023684587,-0.00015258789,-0.00012207031,-6.3568115,0.0017166138,9.800995,-0.009567261,-0.25125122,9.803389,-0.0047884006
0.003666279,-0.012322689,16.633606,-0.20255972,-0.25122362,-45.799255,0.00091424584,0.00032043457,-0.021454727,-0.00044250488,0.0,-5.508423,-0.0014104843,9.800995,-0.028717041,-0.2416687,9.803409,0.0051871967
0.0038134903,-0.0122623965,17.045593,-0.20290534,-0.25065923,-45.84961,0.00084739923,1.5258789e-05,-0.02443301,-0.00039672852,0.00012207031,-5.8929443,0.0019273758,9.7986145,0.0,-0.25602722,9.803416,-0.005229583
0.0036804979,-0.012283998,16.174316,-0.20257553,-0.25053748,-45.72754,0.00025048852,0.00019836426,-0.021877507,-0.0002746582,0.00012207031,-5.8517456,-0.0001487732,9.817749,-0.062210083,-0.2416687,9.803425,0.0060849153
0.003887229,-0.012281601,17.251587,-0.20310487,-0.2513266,-44.41986,-0.0023033917,0.0005645752,-0.025721367,-0.00021362305,-6.1035156e-05,-4.826355,0.0010156631,9.796219,0.03111267,-0.26081848,9.803395,-0.0056184586
0.003813482,-0.012317084,16.39862,-0.20293462,-0.25170994,-45.161438,-0.0031192899,0.00018310547,-0.02420763,-9.1552734e-05,6.1035156e-05,-5.6747437,0.00018596649,9.786652,0.0023956299,-0.25125122,9.80339,-0.0028301962
0.0036663725,-0.012295162,15.969849,-0.20254524,-0.2506951,-45.70465,0.0018296242,-0.00030517578,-0.021569617,3.0517578e-05,6.1035156e-05,-5.6167603,-0.0013227463,9.805786,-0.06700134,-0.2632141,9.803422,0.004341593
0.0038347095,-0.012303106,16.601562,-0.20298162,-0.25152722,-45.185852,-0.0018898547,0.0004272461,-0.024658848,-0.00015258789,0.0,-5.9066772,-0.0004043579,9.793823,0.0023956299,-0.22013855,9.803393,-0.0043037403
0.0036543522,-0.01230419,16.523743,-0.20251921,-0.2508201,-46.02661,0.0002617836,-0.00012207031,-0.02130957,-3.0517578e-05,0.00024414062,-6.0806274,-0.00075912476,9.805786,-0.04067993,-0.27278137,9.803418,0.0050416403
0.0038084765,-0.012260835,16.238403,-0.20289163,-0.25060895,-44.630432,9.5397234e-05,-0.00036621094,-0.024346445,3.0517578e-05,0.00012207031,-4.71344,0.0034894943,9.808182,-0.0023956299,-0.20578003,9.803417,-0.006993117
0.0036096452,-0.012380446,16.314697,-0.20244518,-0.25210536,-45.4422,-0.0031985939,-0.00016784668,-0.020167068,0.00010681152,0.00012207031,-4.7958374,-0.0011968613,9.815353,-0.04547119,-0.27757263,9.803389,0.0069992207
0.0038250657,-0.012227772,15.840149,-0.2029165,-0.25004074,-45.472717,0.0028974712,-0.0004272461,-0.02479027,-9.1552734e-05,0.00018310547,-6.427002,0.0022335052,9.78186,0.0143585205,-0.25125122,9.803431,-0.009660719
0.003711507,-0.012327293,14.401245,-0.20267831,-0.25149435,-45.892334,-0.003331691,-0.00022888184,-0.022274569,-3.0517578e-05,0.00012207031,-5.1254272,-0.0018720627,9.7986145,-0.0047912598,-0.275177,9.803399,0.0048042294
0.0037005316,-0.012315731,17.300415,-0.20264395,-0.25122795,-44.769287,0.0012095273,1.5258789e-05,-0.022118587,-3.0517578e-05,6.1035156e-05,-5.230713,0.0013113022,9.805786,-0.028717041,-0.22492981,9.803407,-0.00037045963
0.0036895666,-0.01236791,15.805054,-0.20264372,-0.2521863,-45.321655,-0.001668632,0.00019836426,-0.021700634,-0.00019836426,-6.1035156e-05,-4.737854,-0.0005578995,9.800995,-0.01914978,-0.2536316,9.803383,0.0016066004
0.0037350135,-0.012309305,15.505981,-0.20272903,-0.25124356,-45.67871,0.0021601021,1.5258789e-05,-0.022784505,4.5776367e-05,-0.00018310547,-4.914856,-0.0014886856,9.7986145,-0.01914978,-0.25842285,9.803405,-0.0021024868
0.0036760692,-0.012297926,16.838074,-0.20257162,-0.25078726,-45.41931,0.0011923015,7.6293945e-05,-0.021738108,0.00021362305,6.1035156e-05,-4.614258,-0.0017843246,9.8033905,-0.026321411,-0.23449707,9.803419,0.0021133795
0.0037344103,-0.012289812,16.030884,-0.20271705,-0.2508666,-44.708252,-0.0008724332,-0.00012207031,-0.022853516,-9.1552734e-05,0.0,-5.6869507,0.0005540848,9.805786,-0.0143585205,-0.26560974,9.803414,-0.0015466344
0.0036354568,-0.012296577,16.699219,-0.20246662,-0.2505978,-44.73114,0.0005376339,0.00036621094,-0.020990385,-9.1552734e-05,0.00018310547,-5.4992676,5.4359436e-05,9.815353,-0.028717041,-0.24885559,9.803426,0.0044791717
0.003717877,-0.012310351,16.137695,-0.2026856,-0.25119454,-46.028137,-0.0014799535,0.00019836426,-0.022462394,-3.0517578e-05,-6.1035156e-05,-4.244995,0.001947403,9.805786,-0.009567261,-0.24406433,9.803407,-0.0021795612
0.0036167884,-0.0122947665,16.246033,-0.20241773,-0.25048786,-45.610046,0.0014141798,0.00019836426,-0.020651557,-0.00015258789,6.1035156e-05,-4.7210693,2.7656555e-05,9.800995,-0.04067993,-0.2679901,9.803429,0.0043865778
0.0037083623,-0.012242835,16.766357,-0.20262505,-0.24985893,-45.915222,0.00030106306,7.6293945e-05,-0.02256359,0.00022888184,6.1035156e-05,-5.74646,0.00032615662,9.7986145,-0.009567261,-0.24645996,9.803442,-0.003512336
0.003649185,-0.012312194,15.39917,-0.20251022,-0.2509531,-45.602417,-0.0026620626,0.0,-0.021180829,-3.0517578e-05,0.00018310547,-5.4000854,5.054474e-05,9.805786,-0.03111267,-0.2632141,9.803415,0.0025207158
0.0036644621,-0.012308863,15.812683,-0.20254767,-0.25095063,-46.2265,-2.5302172e-05,0.0,-0.021477873,3.0517578e-05,0.00018310547,-4.7454834,0.0011529922,9.8033905,-0.007171631,-0.2536316,9.803415,-0.00029375218
0.0035844827,-0.012343465,16.43219,-0.2023608,-0.25129363,-45.924377,-0.0006580353,1.5258789e-05,-0.01985234,4.5776367e-05,-6.1035156e-05,-5.278015,-0.0011444092,9.8033905,-0.035888672,-0.2536316,9.80341,0.0023823474
0.0036293352,-0.012332934,15.734863,-0.20247035,-0.2512717,-45.713806,3.966689e-05,-0.00010681152,-0.02072746,-3.0517578e-05,-6.1035156e-05,-4.7439575,0.00019359589,9.7986145,-0.011962891,-0.25842285,9.803409,-0.00128939
0.003627763,-0.01233228,16.233826,-0.20246597,-0.25125283,-45.378113,2.6524067e-05,0.0,-0.020700984,0.00010681152,0.0,-4.8797607,0.00044345856,9.800995,-0.04067993,-0.24645996,9.80341,-0.0005982332
0.0037194046,-0.012362463,15.814209,-0.20271741,-0.25220194,-45.729065,-0.0011816025,7.6293945e-05,-0.022276327,-3.0517578e-05,0.0,-5.786133,-0.0004911423,9.796219,-0.007171631,-0.25125122,9.803381,-0.0030820891
0.003701362,-0.0123625165,15.634155,-0.20267111,-0.2521302,-43.910217,0.00040146708,0.00012207031,-0.021941544,0.0004119873,-0.00018310547,-4.974365,-4.7683716e-05,9.796219,-0.009567261,-0.2416687,9.803384,-0.00030616112
0.0036065201,-0.012348742,15.843201,-0.2024202,-0.25148365,-46.688843,0.0012230277,-4.5776367e-05,-0.020239377,0.00010681152,-6.1035156e-05,-4.3441772,0.0026741028,9.800995,-0.033493042,-0.2536316,9.803405,0.0030145627
0.0036277669,-0.012352125,16.706848,-0.20247658,-0.25163412,-46.3562,-0.00030440092,0.0,-0.02061951,0.00022888184,6.1035156e-05,-4.4647217,3.33786e-05,9.791428,-0.011962891,-0.24406433,9.8034,-0.0009081941
0.0036402596,-0.012313575,15.266418,-0.20248805,-0.25094372,-45.262146,0.0009215474,-0.00010681152,-0.021009624,0.00035095215,6.1035156e-05,-5.1620483,-0.00045967102,9.8033905,-0.035888672,-0.2536316,9.803417,-0.0007626917
0.0036369478,-0.01227204,15.623474,-0.20245734,-0.25013232,-46.16089,0.0015704632,6.1035156e-05,-0.02111885,9.1552734e-05,-6.1035156e-05,-5.393982,0.002084732,9.805786,-0.062210083,-0.22970581,9.803436,0.0003100466
0.0037874894,-0.012313943,15.133667,-0.20286623,-0.25154454,-45.446777,-0.002547592,7.6293945e-05,-0.023738563,0.00010681152,6.1035156e-05,-5.0094604,-0.0018024445,9.796219,0.01914978,-0.27038574,9.803394,-0.0054488834
0.0036097427,-0.012347095,15.786743,-0.20242761,-0.25146496,-45.614624,0.00021356344,-0.00030517578,-0.02030591,0.00022888184,-6.1035156e-05,-5.062866,-0.0021591187,9.817749,-0.059814453,-0.25602722,9.803405,0.005474353
0.003676481,-0.01233383,16.015625,-0.20259188,-0.25147876,-44.67163,-0.0007225573,0.00018310547,-0.021598129,0.00016784668,0.00012207031,-4.801941,-0.00032520294,9.815353,0.01914978,-0.25125122,9.803401,-0.0016108379
0.0036949618,-0.012283116,16.426086,-0.20261219,-0.25057885,-44.57245,0.0015023053,0.00012207031,-0.022149405,0.00064086914,6.1035156e-05,-5.1864624,0.0021734238,9.805786,-0.033493042,-0.21057129,9.803424,0.0010943245
0.0036739812,-0.012353372,16.04309,-0.20259592,-0.25184417,-45.08972,-0.0022658706,0.0008544922,-0.021471413,0.0002746582,0.00012207031,-5.529785,-0.0011014938,9.8033905,-0.06939697,-0.21534729,9.803392,0.003039632
0.003796304,-0.012252954,15.776062,-0.20285617,-0.25040832,-48.043823,0.0039845407,-0.00030517578,-0.024153136,0.0002746582,-0.00024414062,-6.6116333,0.0021533966,9.7986145,0.021530151,-0.27038574,9.803423,-0.006467765
0.0036247682,-0.012328677,16.027832,-0.20245634,-0.25117153,-46.403503,-0.0012538135,6.1035156e-05,-0.020660248,0.00016784668,-0.00024414062,-4.815674,-0.0015935898,9.808182,-0.06700134,-0.2416687,9.8034115,0.0065471884
0.0037661875,-0.012270568,15.693665,-0.20278831,-0.2506251,-45.996094,0.0017900169,-0.0007324219,-0.023522064,9.1552734e-05,-6.1035156e-05,-5.3894043,0.000374794,9.7986145,0.01675415,-0.2416687,9.803419,-0.009496031
0.003555271,-0.012372001,16.337585,-0.20230103,-0.2517245,-45.932007,-0.0014405847,-0.0004272461,-0.019193398,-0.00021362305,-0.00018310547,-5.6030273,-0.0021352768,9.817749,-0.050247192,-0.2679901,9.8034,0.008420195
0.0037908368,-0.0123712495,15.539551,-0.20290552,-0.2526591,-44.924927,-0.0016858578,-0.00012207031,-0.023564637,4.5776367e-05,-0.00012207031,-6.513977,0.0019254684,9.805786,0.0047912598,-0.23928833,9.803366,-0.008736445
0.0035526557,-0.012389059,15.229797,-0.20230342,-0.25204176,-45.24536,0.0022205114,-0.00012207031,-0.01907485,0.000289917,-0.00012207031,-5.7266235,-0.0017404556,9.796219,-0.04067993,-0.25125122,9.803392,0.007828793
0.0037635106,-0.012359473,16.160583,-0.20282905,-0.2523225,-44.522095,-0.0008260906,-0.00012207031,-0.023106465,0.00010681152,-0.00012207031,-5.921936,0.0010757446,9.7986145,-0.01675415,-0.2632141,9.803376,-0.0077611506
0.0035864923,-0.012423075,16.384888,-0.20240851,-0.25283128,-44.628906,-0.000318408,-4.5776367e-05,-0.019562574,9.1552734e-05,0.0,-5.831909,-8.106232e-05,9.808182,-0.01914978,-0.24406433,9.80337,0.006639069
0.003717891,-0.012363642,16.906738,-0.20271416,-0.2522185,-44.53125,0.0009793043,1.5258789e-05,-0.022243405,0.00016784668,-0.00018310547,-5.647278,0.0002603531,9.808182,-0.026321411,-0.2632141,9.803381,-0.0045652296
0.003565613,-0.012371737,16.156006,-0.20232745,-0.251761,-45.721436,0.00026407838,1.5258789e-05,-0.019386277,0.000289917,0.00024414062,-6.0943604,-0.0022230148,9.808182,-0.011962891,-0.23928833,9.803399,0.005270604
0.0036708089,-0.012342938,15.55481,-0.2025822,-0.25163093,-45.277405,-6.54757e-05,0.00019836426,-0.021455484,0.00022888184,0.0,-5.232239,0.0034704208,9.8033905,-0.026321411,-0.25602722,9.803398,-0.0031850878
0.0035465052,-0.012349717,16.319275,-0.2022666,-0.25126114,-44.94934,0.000518471,-0.00012207031,-0.019122306,0.00016784668,0.00018310547,-5.758667,-0.0005674362,9.8033905,-0.007171631,-0.25602722,9.8034115,0.0038040243
0.0036370982,-0.012325777,15.808105,-0.20248646,-0.25116545,-44.900513,0.00042402744,0.0001373291,-0.020900842,9.1552734e-05,-0.00012207031,-5.7800293,0.00010204315,9.812973,-0.04547119,-0.24645996,9.8034115,-0.0030231513
0.0036067495,-0.012329159,16.18042,-0.20241033,-0.2511083,-44.53125,0.00011947751,-0.00022888184,-0.020324076,4.5776367e-05,6.1035156e-05,-5.5984497,-0.00024795532,9.796219,-0.009567261,-0.2536316,9.803413,0.00022972934
0.0036894486,-0.012326801,17.43927,-0.20262142,-0.25139597,-44.511414,-0.00032010674,0.0001373291,-0.02186752,9.1552734e-05,-6.1035156e-05,-5.302429,-0.00080394745,9.810577,-0.035888672,-0.24406433,9.803403,-0.0025458336
0.0036061665,-0.012292267,16.574097,-0.20238912,-0.25039712,-44.499207,0.000608474,0.00032043457,-0.020464798,-0.00015258789,0.0,-6.225586,0.0011281967,9.7986145,-0.047851562,-0.25842285,9.8034315,0.002750406
0.003643926,-0.012332839,15.997314,-0.20250776,-0.25132862,-45.7901,-0.0020732582,-0.00012207031,-0.020998448,-0.00015258789,0.00012207031,-5.215454,-0.0010099411,9.796219,0.0,-0.24645996,9.803407,-0.0014929362
0.0036307191,-0.012341566,16.549683,-0.20247851,-0.25144312,-44.232178,0.00020867586,0.0002593994,-0.02071765,-3.0517578e-05,0.0,-5.5023193,0.0012540817,9.820145,-0.04307556,-0.24885559,9.803404,0.0015692543
0.003656607,-0.012252742,16.204834,-0.2024975,-0.2498407,-45.24536,0.0029402226,-4.5776367e-05,-0.021562813,-9.1552734e-05,0.0,-6.4086914,0.0013113022,9.796219,-0.0047912598,-0.2536316,9.803444,-0.0023601633
0.003604237,-0.01228457,15.919495,-0.20238005,-0.25024146,-45.38269,-0.00075638294,7.6293945e-05,-0.020460617,-3.0517578e-05,0.0,-6.3415527,-0.0018415451,9.808182,-0.0382843,-0.25125122,9.803435,0.0029900596
0.003645373,-0.012259586,15.231323,-0.20247231,-0.24992695,-45.547485,0.00084495544,1.5258789e-05,-0.021326307,0.00022888184,0.0,-5.7296753,0.0006866455,9.808182,-0.0047912598,-0.25602722,9.803442,-0.0018807966
0.003598883,-0.012280107,16.200256,-0.20236392,-0.25013417,-44.38629,-0.00086534023,0.00019836426,-0.02037963,0.00022888184,0.0,-5.2764893,-0.0008172989,9.817749,-0.04547119,-0.24885559,9.803438,0.0026647933
0.0036740438,-0.012250197,15.701294,-0.20254089,-0.24986206,-44.647217,6.003678e-05,7.6293945e-05,-0.021896724,-9.1552734e-05,6.1035156e-05,-5.13916,0.00057029724,9.800995,-0.007171631,-0.24885559,9.803443,-0.0027449168
0.0036243142,-0.01226324,15.777588,-0.2024202,-0.24991241,-44.781494,-0.0005938113,0.0001373291,-0.02092065,0.00010681152,0.00024414062,-5.1361084,0.0010070801,9.8033905,-0.033493042,-0.2536316,9.803443,0.0024903622
0.003681523,-0.012253131,16.940308,-0.20256166,-0.24994853,-44.952393,-0.0005529821,7.6293945e-05,-0.022023402,0.00022888184,0.00012207031,-6.2942505,0.0003528595,9.796219,-0.007171631,-0.24885559,9.803439,-0.0014264882
0.003579014,-0.012292118,16.351318,-0.20231932,-0.25028506,-44.36035,-0.0011571646,0.0002593994,-0.019961752,4.5776367e-05,0.00012207031,-5.189514,0.0003938675,9.796219,-0.01914978,-0.25125122,9.803435,0.0044160653
0.0036268453,-0.012322994,16.235352,-0.20245863,-0.2510707,-44.73114,-0.0015749931,0.0,-0.020722121,-9.1552734e-05,6.1035156e-05,-5.92041,0.0001001358,9.812973,-0.011962891,-0.25125122,9.803414,-0.0010488834
0.0035535633,-0.012308156,16.204834,-0.20226254,-0.25049093,-45.170593,0.0007061362,7.6293945e-05,-0.019423822,0.00010681152,0.0,-6.4086914,-0.0005788803,9.7986145,-0.026321411,-0.2536316,9.803431,0.0021991376
0.003584201,-0.01229354,14.772034,-0.2023334,-0.25033325,-44.877625,7.6681376e-05,-0.00010681152,-0.020052131,0.00010681152,0.00012207031,-5.984497,0.0001001358,9.800995,-0.021530151,-0.25842285,9.803434,-0.0012464654
0.003562285,-0.012362989,16.677856,-0.20231423,-0.25157952,-44.570923,-0.0015482605,0.0,-0.01936048,0.00016784668,-0.00012207031,-5.819702,-0.00025081635,9.800995,-0.023925781,-0.25602722,9.803403,0.0014185142
0.0036497554,-0.012347002,16.633606,-0.20253031,-0.25162423,-45.19806,0.00039550662,0.00012207031,-0.021048348,0.00035095215,-0.00012207031,-5.4229736,-0.00064086914,9.8033905,-0.01914978,-0.25125122,9.8034,-0.0028755516
0.003567364,-0.012335978,15.617371,-0.20231284,-0.25108096,-45.407104,0.0005840361,-0.00016784668,-0.019565586,0.00015258789,-0.00012207031,-5.3878784,0.0011644363,9.805786,-0.0143585205,-0.24645996,9.803415,0.001380004
0.0035876255,-0.012285103,16.23993,-0.20233768,-0.2501849,-45.48645,0.0018332899,-0.00016784668,-0.02015029,0.00016784668,0.00018310547,-5.9265137,-0.0016241074,9.808182,-0.023925781,-0.24885559,9.803437,-0.001378594
0.003579575,-0.012267305,15.930176,-0.2023075,-0.24981058,-45.88318,0.0009750128,-0.00016784668,-0.020074027,0.00016784668,-0.00012207031,-5.13916,0.0003633499,9.805786,-0.007171631,-0.25842285,9.803448,-2.0191073e-05
0.0036051804,-0.012277934,15.983582,-0.20237893,-0.25011775,-45.40863,-0.00062182546,1.5258789e-05,-0.020505367,4.5776367e-05,0.0,-5.3726196,0.00024223328,9.800995,-0.01914978,-0.25125122,9.803438,-0.00079398975
0.003597225,-0.012295158,15.856934,-0.20236771,-0.2504167,-45.069885,-0.000577122,7.6293945e-05,-0.02028707,0.00016784668,6.1035156e-05,-5.055237,-0.0008049011,9.791428,-0.01675415,-0.25125122,9.8034315,0.0006653443
0.0036294588,-0.012299708,15.835571,-0.2024529,-0.2506338,-44.86847,-0.0003850162,6.1035156e-05,-0.020866271,-0.00015258789,-6.1035156e-05,-6.4224243,-0.0019712448,9.8033905,-0.03111267,-0.25842285,9.803425,-0.0009089969
0.0036050337,-0.012290601,15.612793,-0.20238532,-0.25036055,-45.404053,6.452203e-05,0.0,-0.020450627,0.00010681152,0.0,-5.46875,0.0004415512,9.7986145,-0.0143585205,-0.25125122,9.803432,0.0008273255
0.0036257145,-0.012276708,15.753174,-0.202431,-0.25017682,-44.80133,-0.0003555119,0.00012207031,-0.020891303,4.5776367e-05,0.00024414062,-6.587219,0.00060367584,9.805786,-0.028717041,-0.24406433,9.803436,-0.00016568229
0.003647018,-0.012281994,16.19873,-0.20248851,-0.25036412,-45.062256,-0.00038972497,6.1035156e-05,-0.021264745,4.5776367e-05,0.00018310547,-5.3604126,0.00056552887,9.800995,-0.011962891,-0.24885559,9.803431,-0.00050877593
0.0036407604,-0.012269462,16.513062,-0.20246574,-0.25009814,-44.44275,0.00053301454,0.00018310547,-0.021200165,0.00016784668,-0.00012207031,-6.0684204,-0.00010108948,9.810577,-0.028717041,-0.24885559,9.803437,0.00038782135
0.0036245193,-0.01227993,16.381836,-0.20242965,-0.2502339,-44.326782,0.00019693375,-0.00010681152,-0.020855902,0.00021362305,6.1035156e-05,-5.8303833,9.918213e-05,9.800995,-0.011962891,-0.24645996,9.803434,4.3647364e-05
0.0036436724,-0.012272237,15.284729,-0.20247471,-0.25016317,-44.773865,0.0003619492,0.0,-0.02124278,4.5776367e-05,-0.00018310547,-5.961609,0.0005464554,9.805786,-0.028717041,-0.25125122,9.803435,-0.00030129962
0.0036281876,-0.012269888,16.635132,-0.2024337,-0.25005573,-45.048523,0.00048276782,0.0,-0.02096519,-0.00021362305,0.0,-5.4244995,-0.0012311935,9.810577,-0.009567261,-0.24885559,9.803439,0.00013692677
0.0035651785,-0.012302993,16.127014,-0.20228961,-0.25043842,-44.657898,-8.395314e-05,-0.00010681152,-0.019660467,-3.0517578e-05,-0.00012207031,-6.4071655,0.00093460083,9.8033905,-0.03111267,-0.24645996,9.803432,0.0024342127
0.0036079427,-0.012324246,15.950012,-0.20241077,-0.25101867,-44.418335,-0.0004515946,-4.5776367e-05,-0.020366393,0.00016784668,-0.00024414062,-5.769348,-0.00016498566,9.7986145,-0.0143585205,-0.24645996,9.803415,-0.0014070999
0.0036071853,-0.01231653,15.989685,-0.20240471,-0.2508674,-44.3161,0.00032940507,0.0,-0.020384043,-9.1552734e-05,-0.00012207031,-6.25,-0.0010662079,9.805786,-0.021530151,-0.2416687,9.80342,-0.0002003815
0.0035721145,-0.012372492,15.406799,-0.20234455,-0.2518016,-45.755005,-0.0013414919,6.1035156e-05,-0.019503752,-9.1552734e-05,-6.1035156e-05,-5.3222656,-0.00083732605,9.8033905,-0.021530151,-0.24885559,9.803397,0.0025066566
0.0035969887,-0.012361235,15.9591675,-0.20240241,-0.25168532,-45.550537,0.0011694431,7.6293945e-05,-0.020011287,9.1552734e-05,-0.00024414062,-5.7785034,0.00024414062,9.808182,-0.011962891,-0.24406433,9.803399,-8.30926e-05
0.0035856555,-0.012264712,15.8706665,-0.20232174,-0.24978518,-44.430542,0.003580138,0.00018310547,-0.02019747,-0.00015258789,-6.1035156e-05,-5.8547974,-0.00047969818,9.805786,-0.0143585205,-0.25842285,9.803448,0.00033139624
0.003624713,-0.012273211,15.756226,-0.20242655,-0.2501056,-45.074463,-0.00088635087,0.00024414062,-0.020887092,0.00016784668,0.0,-5.4611206,0.0003194809,9.817749,-0.028717041,-0.26081848,9.803438,-0.00065705366
0.0036151682,-0.012270009,15.252686,-0.20240034,-0.25000566,-45.510864,-2.8371811e-05,1.5258789e-05,-0.02072319,4.5776367e-05,0.00018310547,-6.5322876,-0.0002670288,9.805786,-0.007171631,-0.24406433,9.803441,0.0003841985
0.0036066177,-0.0122638475,15.9210205,-0.2023751,-0.24985287,-45.533752,6.67274e-05,0.00018310547,-0.020589879,4.5776367e-05,0.0,-6.3430786,0.00029850006,9.820145,-0.026321411,-0.25602722,9.803445,0.00025119074
0.003635664,-0.012317829,15.684509,-0.20247853,-0.25100693,-44.067383,-0.0018743873,-0.00016784668,-0.020906905,-0.00021362305,0.0,-6.4224243,0.0013227463,9.800995,-0.0143585205,-0.24885559,9.803414,-0.0003916081
0.0036347162,-0.01232191,16.090393,-0.20247827,-0.25108153,-45.214844,0.00010046363,0.00024414062,-0.020872552,0.00010681152,-6.1035156e-05,-5.9295654,-0.0005502701,9.8033905,-0.03111267,-0.24885559,9.803412,0.001007773
0.0036085718,-0.012300616,15.606689,-0.20239976,-0.2505672,-45.133972,0.00054854155,1.5258789e-05,-0.02047512,4.5776367e-05,6.1035156e-05,-6.5933228,0.00010681152,9.7986145,-0.011962891,-0.24645996,9.803427,0.00038151257
0.0036217028,-0.0123131275,16.055298,-0.20244016,-0.25086045,-45.34912,-0.00011846423,6.1035156e-05,-0.02066728,-3.0517578e-05,-6.1035156e-05,-6.4971924,7.534027e-05,9.800995,-0.028717041,-0.26081848,9.80342,-0.0003875289
0.0036318046,-0.01234202,15.658569,-0.20248154,-0.25145623,-44.104004,-0.0011980832,-0.00010681152,-0.020735921,-3.0517578e-05,-0.00012207031,-5.6991577,0.00020313263,9.808182,-0.0143585205,-0.2368927,9.803405,-7.449277e-05
0.0036534949,-0.01235039,16.68396,-0.20254172,-0.25170437,-45.054626,-1.013279e-06,0.00012207031,-0.021103766,0.00010681152,6.1035156e-05,-6.869507,-0.0009698868,9.808182,-0.026321411,-0.25602722,9.803397,-0.0009130854
0.0036338314,-0.012341752,16.262817,-0.2024866,-0.25145924,-45.49408,0.00024595857,-0.00016784668,-0.02077461,4.5776367e-05,-0.00012207031,-5.604553,0.0003080368,9.7986145,-0.01675415,-0.25602722,9.803405,0.0009095408
0.0036306907,-0.012342026,15.863037,-0.20247869,-0.25145185,-44.87915,0.00047400594,0.00036621094,-0.020715233,4.5776367e-05,0.0,-6.0195923,0.00052547455,9.800995,-0.033493042,-0.25125122,9.803404,0.0013389792
0.0036270218,-0.012298068,16.360474,-0.20244576,-0.2505925,-45.14618,0.0022224486,0.00012207031,-0.020827807,-0.0002746582,-0.00012207031,-6.239319,-0.0012426376,9.812973,-0.0143585205,-0.24885559,9.803427,1.5860423e-05
0.0036168096,-0.012310487,16.947937,-0.20242618,-0.25079003,-44.577026,4.9471855e-05,6.1035156e-05,-0.020587372,0.00016784668,-6.1035156e-05,-6.1294556,0.0007724762,9.8033905,-0.01675415,-0.25602722,9.803422,0.0007222649
0.0036733071,-0.012314016,15.853882,-0.20257314,-0.25108528,-45.85266,-0.0003656447,0.00012207031,-0.021620732,4.5776367e-05,-0.00012207031,-6.2683105,0.00051784515,9.7986145,-0.01675415,-0.24645996,9.8034115,-0.0013564918
0.00363576,-0.012320243,15.380859,-0.20248006,-0.25105372,-45.144653,-0.00017002225,0.00012207031,-0.020898765,9.1552734e-05,0.0,-5.6396484,-0.00013446808,9.793823,-0.026321411,-0.24885559,9.803414,0.0012782495
0.0036280977,-0.012266991,16.773987,-0.20243192,-0.24999969,-45.39337,0.0018828213,1.5258789e-05,-0.020975424,0.00010681152,-6.1035156e-05,-5.581665,-0.00040721893,9.800995,-0.01675415,-0.25602722,9.80344,0.00016424432
0.0036175693,-0.012253332,15.849304,-0.20239758,-0.2496949,-45.24994,0.0010970384,0.0,-0.020836223,3.0517578e-05,6.1035156e-05,-6.263733,-0.00059223175,9.7986145,-0.028717041,-0.25125122,9.803449,0.0007415321
0.003624179,-0.012245299,16.015625,-0.20241027,-0.24956715,-46.098328,0.0009661019,-6.1035156e-05,-0.020991826,9.1552734e-05,-0.00018310547,-4.974365,-0.00022602081,9.805786,-0.0143585205,-0.25125122,9.803452,-0.0005527083
0.0036417188,-0.012274594,14.743042,-0.20247096,-0.2502006,-44.639587,-0.0010377169,6.1035156e-05,-0.021196855,-0.00015258789,-0.00012207031,-6.387329,0.000166893,9.7986145,-0.01914978,-0.24406433,9.803434,-0.0005763415
0.0036278456,-0.012262947,15.623474,-0.20242912,-0.24992096,-45.40863,0.0008211732,0.0,-0.02098736,0.00010681152,-0.00012207031,-5.3085327,-0.000995636,9.817749,-0.01675415,-0.24885559,9.803442,0.00064739026
0.003596647,-0.0122721745,16.171265,-0.20235394,-0.24997279,-45.576477,-0.0005656928,0.00012207031,-0.020370726,-9.1552734e-05,0.00012207031,-5.8502197,-0.00035190582,9.810577,-0.021530151,-0.25602722,9.803443,0.0017088652
0.0036613368,-0.012289315,15.582275,-0.20252919,-0.25056246,-45.466614,-0.0011708438,6.1035156e-05,-0.021500248,0.00010681152,6.1035156e-05,-5.9539795,-0.0003976822,9.8033905,-0.01914978,-0.25125122,9.803425,-0.0024263114
0.0036032468,-0.0122963125,15.988159,-0.20238379,-0.2504631,-44.66095,0.0004169345,-0.00010681152,-0.020394024,3.0517578e-05,-0.00012207031,-5.206299,0.0006933212,9.793823,-0.023925781,-0.26081848,9.80343,0.0026785377
0.0036501237,-0.012321004,16.789246,-0.20251735,-0.25112617,-43.971252,-0.0010774136,0.00030517578,-0.021162035,-3.0517578e-05,-0.00012207031,-5.168152,-0.0004911423,9.800995,-0.023925781,-0.2536316,9.8034115,-0.0010858122
0.003599362,-0.012328138,15.353394,-0.20239082,-0.251059,-46.229553,0.00031599402,-0.00010681152,-0.020191258,-0.00021362305,0.00012207031,-5.0857544,0.002064705,9.784256,-0.011962891,-0.22732544,9.803416,0.0015313625
0.003605927,-0.012318936,17.126465,-0.20240276,-0.25090858,-44.03839,0.0010760128,0.00012207031,-0.020350818,0.00016784668,-0.00018310547,-5.554199,-0.0027570724,9.827316,-0.04307556,-0.27038574,9.803419,9.579584e-06
0.0037893027,-0.012314439,16.853333,-0.20287114,-0.2515614,-45.8313,-0.00087586045,-4.5776367e-05,-0.023770152,0.00022888184,-0.00012207031,-5.4992676,0.0015134811,9.827316,-0.007171631,-0.21534729,9.803394,-0.005892545
0.0035237998,-0.012227504,16.955566,-0.20214306,-0.24882178,-44.625854,0.0061923116,-6.1035156e-05,-0.019202562,3.0517578e-05,-0.00018310547,-4.9224854,-0.000104904175,9.78186,-0.01675415,-0.2632141,9.803474,0.0079568755
0.0037464672,-0.012251094,16.590881,-0.20272727,-0.24993026,-45.629883,0.0010446757,0.00024414062,-0.020210074,-3.0517578e-05,6.1035156e-05,-6.1538696,-0.0036525726,9.796219,-0.033493042,-0.25842285,9.803444,0.005376106
0.00373704,-0.012232938,15.847778,-0.20269336,-0.24978441,-45.217896,0.0006905943,0.00019836426,-0.023136245,0.00016784668,-0.00012207031,-5.218506,0.0028295517,9.810577,-0.04067993,-0.275177,9.803441,-0.0046189446
0.0036061576,-0.012351688,15.625,-0.20242086,-0.25153878,-44.883728,-0.0028166473,-0.00012207031,-0.020220548,3.0517578e-05,-0.00018310547,-5.2246094,0.00014209747,9.793823,-0.011962891,-0.22970581,9.803403,0.004672531
0.0036912677,-0.012256404,16.752625,-0.20258842,-0.25005072,-44.978333,0.0036278665,0.0001373291,-0.022190707,-3.0517578e-05,-0.00018310547,-4.6936035,0.0023288727,9.800995,-0.033493042,-0.2679901,9.803437,-0.0031661075
0.0035676109,-0.012370023,16.442871,-0.20233166,-0.25173607,-43.977356,-0.0030877888,-0.00018310547,-0.01943037,0.00010681152,-0.00018310547,-4.8583984,-0.001955986,9.800995,-0.0023956299,-0.25602722,9.803399,0.0045998413
0.0036073406,-0.012372787,15.853882,-0.20243517,-0.25194895,-44.018555,-0.0009339154,7.6293945e-05,-0.0201558,0.00047302246,0.00012207031,-4.966736,0.001408577,9.812973,-0.04547119,-0.24885559,9.803393,-0.00089880265
0.0035975452,-0.01238651,15.652466,-0.20241734,-0.25217322,-43.800354,-0.00022858381,-0.00016784668,-0.01991777,3.0517578e-05,-6.1035156e-05,-5.7785034,0.00061511993,9.805786,-0.0047912598,-0.26081848,9.803388,5.3955242e-05
0.0036410363,-0.0123700425,15.808105,-0.20252024,-0.25203177,-44.900513,-0.00014516711,0.00032043457,-0.02079194,-9.1552734e-05,6.1035156e-05,-5.7800293,-0.0015058517,9.796219,-0.04067993,-0.2416687,9.803389,-0.00050765276
0.0035811458,-0.012361284,16.569519,-0.20236175,-0.2516226,-44.615173,0.0008586347,-0.00010681152,-0.019717272,0.000289917,0.00012207031,-5.2612305,-0.0016355515,9.805786,-0.0023956299,-0.2536316,9.803402,0.0010556951
0.0035824783,-0.012350205,16.210938,-0.20235926,-0.25141507,-43.71643,-6.374717e-05,0.00012207031,-0.019787483,0.00010681152,0.0,-5.029297,0.00017738342,9.808182,-0.04067993,-0.2416687,9.803407,0.0006378051
0.0035978893,-0.012331087,16.416931,-0.20238861,-0.2511097,-43.966675,0.001301378,-0.00010681152,-0.020151831,0.00016784668,0.0,-5.2627563,0.00060272217,9.7986145,-0.007171631,-0.24645996,9.803413,-0.0006604679
0.003578919,-0.012320325,16.184998,-0.20233415,-0.25082666,-43.77899,0.00031015277,0.00024414062,-0.019844176,0.000289917,0.0,-5.432129,0.0007162094,9.808182,-0.04307556,-0.24885559,9.803422,0.0014129486
0.003589577,-0.012300436,15.94696,-0.20235088,-0.25048736,-44.615173,0.0011658669,-0.00010681152,-0.020123534,0.00035095215,-0.00012207031,-4.727173,-0.000790596,9.800995,0.0,-0.23928833,9.80343,-0.00093302317
0.003585184,-0.012318752,16.744995,-0.2023494,-0.25082162,-44.326782,0.00052785873,0.00012207031,-0.01996684,0.000289917,-0.00018310547,-5.89447,-0.0008420944,9.810577,-0.03111267,-0.24645996,9.803422,0.00034373254
0.0036002046,-0.012296696,16.827393,-0.20237617,-0.25045824,-43.7912,0.0011489689,-0.00012207031,-0.020336023,0.00022888184,-0.00024414062,-5.645752,0.0018434525,9.8033905,-0.011962891,-0.24406433,9.803431,-0.0007195361
0.003590263,-0.012245684,15.750122,-0.2023234,-0.24943812,-44.169617,0.0018059313,0.00012207031,-0.020361053,0.000289917,-6.1035156e-05,-5.455017,-5.4359436e-05,9.812973,-0.033493042,-0.2536316,9.803456,0.00026669353
0.003583433,-0.0122688105,16.322327,-0.20231822,-0.249855,-43.821716,-0.00064095855,-0.00016784668,-0.020139413,0.00010681152,0.00012207031,-5.5877686,0.0015621185,9.805786,-0.007171631,-0.2536316,9.803446,-0.00019748323
0.0035513977,-0.012278631,16.352844,-0.20224121,-0.24991499,-45.187378,-0.000101700425,-6.1035156e-05,-0.019504827,4.5776367e-05,-0.00012207031,-5.2764893,-0.00070858,9.810577,-0.0382843,-0.24645996,9.803447,0.0010897387
0.0036249228,-0.012289239,16.317749,-0.20243566,-0.25041437,-44.12079,-0.00031104684,-4.5776367e-05,-0.020825142,0.00010681152,-0.00012207031,-5.671692,0.0006427765,9.796219,-0.0047912598,-0.2536316,9.80343,-0.0021362137
0.0035851586,-0.012283611,16.217041,-0.20233056,-0.25014633,-44.621277,0.00058579445,0.00024414062,-0.020110661,0.00016784668,0.0,-5.0354004,-0.001961708,9.808182,-0.035888672,-0.24885559,9.803439,0.0016790256
0.0036456275,-0.012264171,16.308594,-0.20247541,-0.25001606,-44.267273,0.00023850799,-0.00010681152,-0.021312186,4.5776367e-05,0.0,-5.834961,0.00092983246,9.8033905,-0.01675415,-0.2536316,9.803439,-0.0023674034
0.0036045047,-0.012227943,15.419006,-0.20235048,-0.24915452,-43.312073,0.0012733638,7.6293945e-05,-0.020698104,-3.0517578e-05,0.0,-5.944824,-0.00081825256,9.7986145,-0.028717041,-0.25125122,9.803463,0.0010763928
0.0036656563,-0.01223978,15.779114,-0.2025138,-0.24962811,-45.158386,-0.001384452,-4.5776367e-05,-0.021783939,0.0004119873,0.00018310547,-5.13916,-0.0015058517,9.800995,-0.011962891,-0.25125122,9.803449,-0.0016692989
0.003613366,-0.012249277,16.38794,-0.20238464,-0.24960007,-45.578003,0.0002732873,0.00018310547,-0.020774903,0.00022888184,6.1035156e-05,-4.7943115,0.00058460236,9.8033905,-0.026321411,-0.25602722,9.803452,0.0018694159
0.0036615103,-0.0122433845,16.355896,-0.20250508,-0.24968065,-43.115234,9.647012e-05,-0.00016784668,-0.021692222,0.00016784668,-6.1035156e-05,-6.063843,-0.001042366,9.805786,-0.01914978,-0.25125122,9.803448,-0.0019904114
0.00360104,-0.012312818,16.062927,-0.20238695,-0.25077137,-44.04602,-0.001931876,0.00012207031,-0.020285305,4.5776367e-05,-0.00018310547,-5.117798,-0.0005302429,9.800995,-0.026321411,-0.25602722,9.803423,0.0030566994
0.0036753225,-0.012292735,16.426086,-0.20256692,-0.25068453,-43.59436,0.0006286502,0.0,-0.021745596,0.00016784668,0.0,-5.0979614,0.00060749054,9.793823,-0.01914978,-0.25602722,9.803422,-0.0026693419
0.0036187172,-0.012318988,15.997314,-0.20243563,-0.25096104,-44.363403,-6.5267086e-05,-4.5776367e-05,-0.020587828,0.00010681152,-0.00012207031,-5.04303,-0.00071048737,9.810577,-0.021530151,-0.25125122,9.803417,0.0016806126
0.003627876,-0.012321676,16.781616,-0.20246059,-0.25104952,-44.343567,0.00027558208,0.0,-0.020746654,0.00016784668,-6.1035156e-05,-5.329895,0.0006494522,9.8033905,-0.01914978,-0.25125122,9.803414,-6.724335e-05
0.0036195444,-0.012338921,16.58783,-0.20244841,-0.25134736,-43.226624,-0.00037816167,0.0,-0.020521272,4.5776367e-05,-0.00018310547,-5.8929443,0.0007505417,9.808182,-0.021530151,-0.2536316,9.803408,0.00089836307
0.0036190804,-0.012373211,16.973877,-0.20246555,-0.2520043,-42.43927,-0.0008903146,0.00018310547,-0.020371767,-9.1552734e-05,0.0,-6.5948486,0.0016241074,9.8033905,-0.021530151,-0.24406433,9.8033905,0.0012235884
0.0035962365,-0.012348443,15.664673,-0.20239364,-0.25143653,-44.781494,0.0016394854,7.6293945e-05,-0.020049883,3.0517578e-05,-0.00018310547,-5.7037354,-0.0011405945,9.810577,-0.026321411,-0.24645996,9.803406,0.0009004697
0.0035944786,-0.012352242,16.05072,-0.20239116,-0.25150245,-45.317078,-0.00044623017,-0.00012207031,-0.020001676,0.00016784668,6.1035156e-05,-5.4489136,0.0016145706,9.8033905,-0.021530151,-0.24645996,9.803404,0.0022877883
0.0036159153,-0.012337937,15.809631,-0.20243856,-0.25131384,-43.759155,0.0008151233,-0.00010681152,-0.020458011,0.00022888184,-0.00012207031,-7.7819824,0.0012426376,9.805786,-0.01914978,-0.25602722,9.803409,-0.0010692608
0.003619646,-0.012338677,15.853882,-0.20244853,-0.25134304,-44.42444,0.00085675716,-4.5776367e-05,-0.020524157,0.00016784668,-0.00012207031,-6.097412,0.0009889603,9.8033905,-0.0143585205,-0.24885559,9.803407,-0.00030018948
0.0036274693,-0.012330414,15.748596,-0.20246421,-0.25121576,-44.543457,0.0007275343,6.1035156e-05,-0.020703204,0.00022888184,-0.00024414062,-5.5374146,-0.0001296997,9.815353,-0.021530151,-0.25602722,9.80341,-0.00010600872
0.0035825802,-0.012311257,16.259766,-0.20233871,-0.25066715,-43.345642,0.0006534755,-0.00010681152,-0.019949319,-3.0517578e-05,6.1035156e-05,-6.4712524,-0.0010461807,9.8033905,-0.009567261,-0.24885559,9.803426,0.0015192553
0.0035639876,-0.012311262,15.460205,-0.20229097,-0.2505925,-45.28351,0.00059220195,0.00018310547,-0.019604428,0.000289917,-6.1035156e-05,-5.557251,0.0010671616,9.810577,-0.021530151,-0.2536316,9.803428,0.0011753682
0.0035624718,-0.012285156,15.246582,-0.20227313,-0.25008485,-43.330383,0.0010360777,0.00012207031,-0.01968348,-9.1552734e-05,0.0,-6.3552856,-0.00073337555,9.8033905,-0.01675415,-0.24885559,9.803442,6.348826e-05
0.0036232935,-0.01227527,15.615845,-0.202424,-0.25013947,-41.604614,0.0006003082,6.1035156e-05,-0.020852303,4.5776367e-05,-6.1035156e-05,-6.085205,-0.00015735626,9.8033905,-0.023925781,-0.26081848,9.803438,-0.0013922118
0.0036336167,-0.012324467,16.441345,-0.20247681,-0.25112626,-44.60907,-0.0017490685,0.00012207031,-0.020841658,4.5776367e-05,-6.1035156e-05,-6.071472,0.000374794,9.796219,-0.023925781,-0.24406433,9.803412,0.0002607964
0.0036669606,-0.01231878,15.788269,-0.20255938,-0.25115123,-45.0119,0.00065520406,0.00012207031,-0.021483442,9.1552734e-05,-0.00024414062,-4.978943,-6.9618225e-05,9.805786,-0.023925781,-0.2536316,9.80341,-0.0012489017
0.0036512834,-0.01233984,15.200806,-0.2025304,-0.25149277,-44.18335,-0.001154989,-4.5776367e-05,-0.021106124,0.000289917,-0.00012207031,-6.0409546,-5.054474e-05,9.805786,-0.01675415,-0.25125122,9.803403,0.0012423526
0.0036234413,-0.012328966,15.415955,-0.20245309,-0.2511717,-45.03784,0.0004336834,7.6293945e-05,-0.020634454,0.00010681152,0.00024414062,-6.201172,-0.000992775,9.800995,-0.01675415,-0.24645996,9.803411,0.0005254168
0.0036084452,-0.012321452,15.684509,-0.20241056,-0.25096703,-44.641113,0.0011540353,-4.5776367e-05,-0.020387191,-3.0517578e-05,-0.00012207031,-5.380249,-0.0016126633,9.8033905,-0.01914978,-0.24645996,9.803417,0.00052056275
0.0036257417,-0.012288347,15.402222,-0.20243728,-0.25040054,-45.22705,0.0015672445,0.00018310547,-0.020844,4.5776367e-05,-0.00018310547,-5.317688,0.0014829636,9.805786,-0.023925781,-0.24885559,9.803431,-0.00045541488
0.0036355993,-0.01227568,16.174316,-0.20245582,-0.25019684,-43.70117,0.000644505,6.1035156e-05,-0.02107888,0.00010681152,0.0,-5.593872,-0.00012779236,9.808182,-0.021530151,-0.25125122,9.803435,2.3471192e-05
0.0036376491,-0.012248576,16.37268,-0.2024466,-0.24968433,-44.474792,0.0015424639,0.00012207031,-0.021228256,0.00022888184,-0.00018310547,-5.9921265,-0.001830101,9.805786,-0.023925781,-0.23928833,9.803449,0.00041497312
0.0036531256,-0.012214554,16.160583,-0.20246814,-0.2490929,-43.319702,0.0019044876,6.1035156e-05,-0.021655126,4.5776367e-05,-0.00012207031,-5.7525635,-0.00057315826,9.796219,-0.01914978,-0.25602722,9.803462,-0.0003642887
0.0036775786,-0.012275601,16.792297,-0.20256355,-0.2503644,-42.91992,-0.0023244023,0.00018310547,-0.021857878,0.00016784668,-0.00012207031,-4.9972534,0.0005760193,9.817749,-0.021530151,-0.2536316,9.80343,-0.00016083755
0.0036566467,-0.012265112,16.758728,-0.2025042,-0.25007856,-43.356323,0.0012384355,0.00012207031,-0.021512719,0.00016784668,-6.1035156e-05,-5.5664062,0.001499176,9.820145,-0.01914978,-0.25125122,9.803438,0.0011740811
0.0036374386,-0.012247333,16.02478,-0.20244539,-0.24965958,-45.45746,0.0012967288,0.0,-0.021229455,0.00021362305,-0.00012207031,-5.8547974,0.00037288666,9.805786,-0.01914978,-0.25842285,9.803449,0.00041814335
0.003682635,-0.012231372,16.630554,-0.20255288,-0.24953493,-45.07904,0.00023315847,0.0,-0.022133462,0.00022888184,-0.00018310547,-6.5490723,0.0005645752,9.805786,-0.01675415,-0.24885559,9.80345,-0.0013169162
0.0036553468,-0.012250598,15.9729,-0.20249312,-0.2497944,-45.06073,0.00022687018,6.1035156e-05,-0.021548249,0.00022888184,-6.1035156e-05,-6.576538,-0.0016927719,9.817749,-0.01914978,-0.25602722,9.803444,0.0012087338
0.0036702831,-0.01228126,15.794373,-0.20254785,-0.25044373,-44.36798,-0.0012831986,0.00018310547,-0.021699296,0.00022888184,-6.1035156e-05,-5.9387207,-0.0006494522,9.8033905,-0.023925781,-0.25125122,9.803428,0.001114957
0.0036843745,-0.012292363,16.19873,-0.20258996,-0.25071386,-44.340515,-5.930662e-05,0.00012207031,-0.02191502,0.00022888184,-0.00012207031,-6.402588,-0.00059223175,9.8033905,-0.021530151,-0.24885559,9.803421,-0.00057732686
0.0036704075,-0.012344563,15.232849,-0.20258203,-0.25166053,-44.34662,-0.0007778406,-4.5776367e-05,-0.021441363,-9.1552734e-05,-0.00012207031,-5.5603027,0.001080513,9.815353,-0.028717041,-0.24885559,9.803397,0.00085751526
0.0036683423,-0.012323027,15.41748,-0.20256521,-0.2512384,-44.665527,0.0012351573,6.1035156e-05,-0.021491604,9.1552734e-05,-0.00018310547,-6.1187744,0.0031147003,9.805786,-0.021530151,-0.2536316,9.803408,-0.00027905218
0.003640548,-0.012328051,16.33606,-0.20249653,-0.25122303,-42.84973,0.0002604723,0.0,-0.020955477,0.00010681152,0.0,-5.2597046,0.000166893,9.796219,-0.023925781,-0.25125122,9.80341,0.0018094089
0.0036379066,-0.012328362,16.096497,-0.20248991,-0.25121835,-44.46411,-0.0007018447,0.00024414062,-0.020905215,0.00035095215,-6.1035156e-05,-5.7632446,0.00026798248,9.7986145,-0.023925781,-0.24406433,9.80341,0.0008133985
0.00362827,-0.012331068,16.86554,-0.2024666,-0.25123155,-43.88275,0.00049236417,0.00012207031,-0.020715369,-0.00015258789,0.00018310547,-5.0811768,-0.0018920898,9.805786,-0.01914978,-0.25602722,9.80341,0.0008503832
0.003567967,-0.012392876,15.592957,-0.20234479,-0.2521766,-43.9682,-0.0014284551,6.1035156e-05,-0.01934312,0.00022888184,-0.00018310547,-5.619812,0.00017642975,9.808182,-0.028717041,-0.24885559,9.803389,0.0025910046
0.003623572,-0.012352165,15.52124,-0.20246583,-0.251618,-44.210815,0.0018265247,-4.5776367e-05,-0.020541547,-7.6293945e-05,-0.00012207031,-5.6274414,-3.9100647e-05,9.800995,-0.023925781,-0.24406433,9.8034,-0.0019478332
0.0036426953,-0.012279614,15.989685,-0.20247614,-0.250301,-44.88678,0.0026515424,0.00024414062,-0.021194343,4.5776367e-05,-0.00012207031,-5.2078247,-0.00066661835,9.810577,-0.023925781,-0.25125122,9.803432,-0.0010516215
0.0036322647,-0.012244711,16.378784,-0.20243071,-0.24958837,-43.875122,0.0009786487,-4.5776367e-05,-0.021144245,9.1552734e-05,6.1035156e-05,-5.8273315,-0.0010890961,9.796219,-0.023925781,-0.24645996,9.803451,0.0003314037
0.003667736,-0.012235696,15.911865,-0.20251694,-0.249558,-44.898987,0.00048328936,0.00012207031,-0.021839298,9.1552734e-05,-6.1035156e-05,-5.293274,0.0018415451,9.8033905,-0.023925781,-0.2536316,9.80345,-0.0008941088
0.003666194,-0.012290072,16.752625,-0.20254207,-0.25059655,-44.107056,-0.0018280149,0.00018310547,-0.02158723,0.00022888184,-6.1035156e-05,-5.732727,-0.00069236755,9.8033905,-0.01675415,-0.24645996,9.803424,0.0010045748
0.003630024,-0.012279421,16.29181,-0.20244351,-0.25024632,-44.606018,0.000934422,-4.5776367e-05,-0.020960096,0.000289917,-6.1035156e-05,-5.0323486,1.8119812e-05,9.800995,-0.026321411,-0.25602722,9.803435,0.0010945518
0.0036330938,-0.012258843,15.258789,-0.2024404,-0.24986325,-43.710327,0.0010161847,0.0,-0.021101577,4.5776367e-05,-0.00012207031,-6.196594,-0.0006170273,9.800995,-0.021530151,-0.24885559,9.803444,-0.0009161364
0.0036022547,-0.012272876,16.69159,-0.20236872,-0.2500088,-44.27643,0.00019308925,-0.00010681152,-0.020471869,0.00010681152,6.1035156e-05,-5.5740356,-0.00057029724,9.8033905,-0.026321411,-0.2416687,9.803441,0.0010933038
0.0036460115,-0.012247988,15.551758,-0.20246775,-0.24970667,-44.148254,0.00013424456,-4.5776367e-05,-0.021385795,0.00022888184,0.0,-5.142212,-6.866455e-05,9.808182,-0.023925781,-0.25602722,9.803447,-0.0011056345
0.003648732,-0.012286879,16.026306,-0.20249553,-0.25046492,-44.180298,-0.00055646896,0.00012207031,-0.021276468,-3.0517578e-05,-6.1035156e-05,-5.683899,-0.001156807,9.810577,-0.0143585205,-0.25602722,9.803429,0.0006911475
0.0036255792,-0.012292081,16.101074,-0.20243886,-0.25047162,-43.7912,-5.593896e-05,0.00012207031,-0.020825647,0.00016784668,-0.00018310547,-5.596924,0.0016298294,9.800995,-0.028717041,-0.24406433,9.803429,0.0007303618
0.003671569,-0.012287352,16.375732,-0.2025544,-0.25056598,-43.423462,0.00052413344,0.0,-0.021698104,-7.6293945e-05,-0.00012207031,-5.82428,-0.00018882751,9.808182,-0.023925781,-0.24885559,9.803425,-0.0015101712
0.0036341364,-0.012306096,15.437317,-0.20246832,-0.2507754,-44.221497,-0.0011678934,0.0,-0.020926785,0.00022888184,0.0,-5.7922363,0.001627922,9.815353,-0.026321411,-0.25125122,9.803422,0.0017790999
0.0036785014,-0.012321787,15.637207,-0.20259063,-0.2512555,-44.696045,-0.0002180636,0.00018310547,-0.02168511,-0.00015258789,6.1035156e-05,-6.1065674,-0.001461029,9.808182,-0.023925781,-0.25602722,9.803407,-0.0005769003
0.0036396477,-0.012328698,15.808105,-0.20249456,-0.25123182,-44.47937,7.301569e-06,0.00012207031,-0.02093612,4.5776367e-05,-0.00018310547,-6.8222046,0.0015792847,9.808182,-0.01914978,-0.24885559,9.803409,0.0013155434
0.0035952341,-0.012312694,15.515137,-0.20237197,-0.25074562,-44.28253,0.0012023151,0.0,-0.020178122,-3.0517578e-05,6.1035156e-05,-5.708313,0.00025081635,9.800995,-0.023925781,-0.23928833,9.803423,0.0017478745
0.0036464764,-0.012298116,15.811157,-0.20249574,-0.2506717,-43.833923,0.0013560355,7.6293945e-05,-0.021188453,4.5776367e-05,-0.00024414062,-7.7819824,-0.0012559891,9.805786,-0.01675415,-0.25125122,9.803423,-0.0013019089
0.0036428603,-0.012255028,16.3208,-0.20246342,-0.24982926,-43.74695,0.0019386858,0.00030517578,-0.021298414,-1.5258789e-05,-0.00012207031,-5.5862427,-0.0006723404,9.8033905,-0.01675415,-0.25602722,9.803444,0.00048574246