timestamp,rotationVector_x,rotationVector_y,rotationVector_z,accelerometer_x,accelerometer_y,accelerometer_z,magneticField_x,magneticField_y,magneticField_z,gravity_x,gravity_y,gravity_z,linearAcceleration_x,linearAcceleration_y,linearAcceleration_z,gyroscope_x,gyroscope_y,gyroscope_z
2019-07-01T19:19:39.000Z,-0.27453044,0.5637437,-0.08135441,-3.912262,-9.505249,4.6786804,16.810608,41.8808,1.5411377,-8.128051,-5.071022,2.095212,2.0580087,-5.5485597,2.0167637,0.3035736,0.6755676,1.6052704
2019-07-01T19:19:39.207Z,-0.3468012,-0.5626829,-0.0414062,5.2747345,3.407135,-1.8312378,-35.134888,-3.6636353,23.997498,8.550614,-4.639496,1.2379296,-8.222415,-7.353542,4.196262,-1.7736206,-5.4121094,-12.110657
2019-07-01T19:19:39.407Z,-0.15587132,-0.67810935,-0.38761908,10.549484,0.34838867,-0.7874756,-41.22162,-14.431763,16.165161,9.227071,3.3067584,0.3112989,2.4431705,2.3822398,-2.437227,-0.087127686,1.8241882,0.357193
2019-07-01T19:19:39.611Z,-0.16316006,-0.5853531,-0.34264946,10.9787445,-0.69918823,2.0197754,-46.987915,-2.319336,2.7832031,9.322118,1.6410708,2.5642543,5.31547,-0.40514147,-1.9155866,0.28256226,1.6190491,1.5419769
2019-07-01T19:19:39.813Z,-0.15967144,-0.4860483,-0.14527765,11.86409,0.12705994,3.862976,-46.299744,12.95166,-5.2352905,8.528004,-1.267136,4.673106,6.4077034,-0.31152105,-0.34990692,1.4628296,0.52389526,1.7215118
2019-07-01T19:19:40.034Z,-0.048201576,-0.5450874,0.08780532,9.2487335,1.1188812,4.5640717,-40.571594,28.367615,-7.38678,8.815869,-1.7256432,3.933571,6.2835464,1.6186036,1.6216302,3.073883,-1.4878235,2.4427643
2019-07-01T19:19:40.226Z,0.14119563,-0.5920644,0.4455363,7.426605,-0.9949341,3.2126007,-32.980347,32.05719,-13.970947,8.857582,-3.3556035,2.540384,3.7876124,2.9182005,2.8972228,3.6273804,-2.295761,1.5363617
2019-07-01T19:19:40.430Z,0.36098516,-0.55350024,0.5710451,8.847946,-1.8843536,4.129532,-37.72888,23.243713,-17.182922,9.33065,-2.750755,1.2420554,1.7582335,0.49479198,2.4688141,2.2999725,-1.751236,-0.23760986
2019-07-01T19:19:40.630Z,0.4297927,-0.4608822,0.6125701,11.30011,-1.1540527,3.9840546,-35.50415,16.90216,-26.419067,9.476455,-1.5154977,2.0175388,3.3307147,-0.9744764,3.2995377,1.2198181,0.79652405,-0.25032043
2019-07-01T19:19:40.825Z,0.46240127,-0.37240934,0.65980494,9.208786,-1.1449585,4.9040833,-28.877258,15.132141,-32.940674,9.348228,-0.6420369,2.89289,4.6643605,-0.4595672,1.6412174,0.7980194,0.618454,0.27729797
2019-07-01T19:19:41.036Z,0.41682842,-0.31494856,0.75782883,6.1617584,-0.59103394,3.8696747,-26.126099,7.2631836,-38.204956,8.609837,-1.4859688,4.453425,3.0840878,0.042291045,2.0098627,2.1192017,0.60983276,1.2113037
2019-07-01T19:19:41.234Z,0.449465,-0.18641973,0.85658246,5.7913513,-1.7749939,7.195938,-22.659302,2.1835327,-39.60724,8.179138,-1.6179351,5.1627874,0.4090891,0.2705617,0.3638978,2.2519531,-0.1073761,1.9704895
2019-07-01T19:19:41.433Z,-0.35655364,0.059849083,-0.916803,6.3424225,-5.638214,10.11351,-15.272522,-8.113098,-43.060303,6.2123127,-2.262136,7.2429485,1.4410005,-0.55683994,2.273354,3.2665405,1.1577301,3.5081177
2019-07-01T19:19:41.643Z,-0.25205547,0.04037861,-0.8789922,5.9483185,-2.8658905,5.654236,-14.511108,-12.806702,-42.686462,4.026457,-2.6871924,8.528601,3.4702396,-3.6157198,3.7807083,0.94773865,-0.22235107,1.5475922
2019-07-01T19:19:41.842Z,-0.2057002,0.011143663,-0.89295125,4.935913,-0.17970276,7.668762,-8.964539,-12.797546,-43.13965,3.5150952,-1.8099657,8.974325,3.378061,-1.3202758,-0.7485142,0.3116455,0.64471436,0.1736908
2019-07-01T19:19:42.048Z,-0.19505352,0.05440112,-0.9181746,5.1225586,-3.3236237,10.320969,-9.159851,-5.8685303,-45.34607,3.1492848,-2.282365,9.002399,2.5643814,1.4424028,1.4091187,-0.42781067,-0.00047302246,-0.49038696
2019-07-01T19:19:42.247Z,-0.2361032,0.092554435,-0.94623977,3.0065765,-2.790039,7.2976227,-10.560608,-4.18396,-48.872375,4.0173063,-2.647549,8.545299,2.0489643,-1.5148728,3.7333922,-0.7417908,0.009414673,-1.1900177
2019-07-01T19:19:42.454Z,-0.23124637,0.12532933,-0.9621153,3.1011047,-1.6912384,9.1085205,-9.249878,-7.0007324,-50.405884,4.1872435,-2.6905382,8.449757,-0.4338169,-0.51215076,0.50030136,-0.5287781,0.2064209,-0.80210876
2019-07-01T19:19:42.654Z,0.2166057,-0.12040903,0.96848035,4.8588715,-1.5443268,11.883484,-12.072754,-15.620422,-44.267273,4.1736956,-2.1805964,8.602073,-0.1127646,0.19441319,2.5917277,0.32447815,-0.09901428,-0.50057983
2019-07-01T19:19:42.855Z,0.25604194,-0.07467103,0.96366316,5.703293,-0.92100525,6.530258,-20.79773,-24.700928,-29.07257,4.861076,-1.3368311,8.411492,1.1622114,-0.6851144,5.306748,0.8047943,-0.6277771,-0.05722046
2019-07-01T19:19:43.062Z,0.4059142,0.054783374,0.9118587,6.27063,1.6962738,3.398056,-26.14746,-27.163696,-20.367432,7.230243,1.1972609,6.516175,-0.12580681,-1.528043,0.51702595,0.75250244,-1.6889191,-0.653183
2019-07-01T19:19:43.265Z,-0.4501234,-0.07692185,-0.88964224,11.168976,1.4060211,5.6121216,-25.299072,-21.983337,-23.121643,7.8585496,1.3162898,5.716727,0.3138008,0.7270087,-1.2451925,0.040481567,-0.080566406,0.16378784
2019-07-01T19:19:43.470Z,0.45506644,-0.06665827,0.885597,7.7733307,-0.31896973,5.5365143,-27.972412,-20.405579,-23.899841,7.988887,-0.58013755,5.6578727,4.909886,1.5069798,1.4886484,-1.4589539,-0.16339111,-0.057281494
2019-07-01T19:19:43.672Z,0.48817596,-0.085385196,0.8575227,6.48143,0.3108368,4.71817,-29.570007,-21.136475,-18.470764,8.441692,-0.11461603,4.9894986,0.08824968,-0.051642917,1.1328783,-0.26263428,-0.45159912,-0.37376404
2019-07-01T19:19:43.877Z,0.5424758,-0.03199716,0.83399236,11.25441,-0.041870117,4.701416,-28.756714,-23.217773,-15.983582,8.933503,0.49452645,4.014768,-0.7452364,-0.14123347,1.2467773,0.9808502,-0.35624695,-0.052642822
2019-07-01T19:19:44.110Z,0.5039695,0.06171838,0.85938686,6.321594,2.1437378,4.681076,-29.927063,-23.861694,-17.878723,8.421384,1.6382626,4.7504506,4.3236666,-1.2803782,0.6938987,0.6874542,1.0140533,-0.31829834
2019-07-01T19:19:44.276Z,0.4539062,0.11119154,0.88301164,6.3464813,3.233902,5.938263,-41.107178,-22.970581,-12.483215,7.766137,2.3133507,5.523215,-0.9087925,0.30086946,-0.19434929,0.54566956,0.45736694,0.09170532
2019-07-01T19:19:44.476Z,-0.5084447,-0.24289933,-0.74432814,7.9128265,-2.4055023,4.3539886,-55.72357,-12.249756,2.458191,9.130146,-0.028167086,3.5791118,0.9504976,0.8535201,3.0420005,1.6098633,-0.4993744,2.0686646
2019-07-01T19:19:44.683Z,-0.44568914,-0.29687938,-0.6267366,7.142105,-2.0867767,4.500656,-58.992004,1.5426636,0.94451904,8.774628,-1.298834,4.1820226,0.09925985,-1.3394644,0.5801401,1.8508453,0.24661255,1.2764282
2019-07-01T19:19:44.880Z,-0.33466035,-0.35899627,-0.4468713,7.8398438,-3.5863647,8.190872,-60.316467,22.903442,-10.583496,8.199568,-1.7629274,5.082279,0.113235,-0.6079377,0.21877813,2.3476715,0.15162659,1.6757507
2019-07-01T19:19:45.091Z,-0.1947213,-0.36336768,-0.14383213,6.5276184,-2.6239777,6.9968567,-54.318237,54.039,-35.447693,6.9609337,-2.4107876,6.4733214,1.6569276,-1.485909,2.5663943,1.9212189,0.28663635,1.9285889
2019-07-01T19:19:45.302Z,-0.08640547,-0.34141076,0.0765742,5.382416,-2.033661,6.8760223,-41.638184,49.79706,-56.539917,6.116414,-2.0935624,7.3740673,0.8443203,-0.64325964,0.32606125,1.4639893,0.30734253,1.1439209
2019-07-01T19:19:45.499Z,-0.04073623,-0.22539991,0.17478515,2.198288,-0.80566406,10.189835,-30.227661,46.514893,-80.78308,4.0937157,-1.5377867,8.777646,1.3911641,-0.5535705,-0.32313776,0.95103455,1.2211456,0.862442
2019-07-01T19:19:45.698Z,0.036807396,-0.10893342,0.31341743,-0.09690857,-0.6501312,10.027847,-4.145813,33.51288,-98.316956,2.2402275,0.01086699,9.547338,0.15285778,-0.84177756,1.2356129,0.8352814,1.5951691,0.9560852
2019-07-01T19:19:45.897Z,0.0026651197,0.00010474828,0.37833983,0.086380005,-0.20770264,9.834747,16.204834,29.457092,-96.57898,0.017874762,0.04916334,9.80651,-0.11098577,-0.5478403,1.2761126,-0.019866943,0.15089417,0.5984802
2019-07-01T19:19:46.103Z,0.005631949,-0.016242318,0.43845317,0.017471313,-0.24359131,9.775879,16.496277,28.669739,-95.99609,0.33469164,-0.040416837,9.800854,-0.42475718,-0.22011408,0.8426542,-0.016693115,-0.10334778,0.6921234
2019-07-01T19:19:46.311Z,0.0041057398,-0.015222851,0.46723926,-0.042114258,-0.22492981,9.803162,16.511536,26.9104,-94.61975,0.30155873,-0.06831861,9.801775,-0.25969028,-0.16109544,0.8208084,0.0009460449,-0.006286621,0.22409058
2019-07-01T19:19:46.513Z,0.00324221,-0.015310461,0.4788029,0.032546997,-0.2311554,9.801956,16.519165,27.133179,-94.72504,0.29403555,-0.08796048,9.8018465,-0.31287274,-0.14225417,0.7760649,-0.0011901855,-0.0025024414,0.03404236
2019-07-01T19:19:46.712Z,0.0026300484,-0.015013678,0.47861978,0.03565979,-0.22970581,9.804108,15.861511,28.54309,-94.410706,0.2831994,-0.09565309,9.8020935,-0.23030525,-0.14124984,0.73667336,-0.0002746582,-0.0030517578,-0.0005950928
2019-07-01T19:19:46.913Z,-0.0016398161,-0.012258082,0.47784677,-0.04019165,-0.24191284,9.800766,16.52832,27.352905,-94.83185,0.19580704,-0.14313447,9.80365,-0.15199095,-0.09592727,0.49335194,0.002960205,0.025054932,0.015777588
2019-07-01T19:19:47.114Z,-0.006452432,-0.00711494,0.4882412,0.033737183,-0.21990967,9.806992,17.396545,25.228882,-95.529175,0.059988283,-0.17857046,9.804841,-0.13693318,-0.07869184,0.32501602,-0.0043029785,-0.02748108,0.2406311
2019-07-01T19:19:47.318Z,-0.0059913816,-0.009834451,0.49881265,0.036849976,-0.23474121,9.804596,17.89856,25.546265,-94.80133,0.10854561,-0.19805275,9.8040495,-0.027628966,-0.017417029,0.22201252,-0.00033569336,-0.0014038086,-0.0012054443
2019-07-01T19:19:47.520Z,-0.0071655647,-0.009020175,0.49843365,0.032058716,-0.23043823,9.8022,17.5766,25.675964,-95.59479,0.08330929,-0.21000822,9.804049,-0.0490477,-0.025711268,0.14594173,-0.00015258789,-6.1035156e-05,-0.00015258789
2019-07-01T19:19:47.728Z,-0.007908647,-0.008390456,0.49804738,0.028961182,-0.22779846,9.803162,18.101501,26.582336,-95.12787,0.06543505,-0.21645668,9.804042,-0.03366769,-0.015414819,0.09600544,0.00015258789,0.00024414062,-0.0002746582
2019-07-01T19:19:47.923Z,-0.008410575,-0.007969155,0.49774477,0.033737183,-0.23114014,9.805069,18.421936,26.454163,-94.56329,0.053444274,-0.22085841,9.804018,-0.022936668,-0.0098465085,0.065439224,-0.00021362305,6.1035156e-05,-0.0002746582
2019-07-01T19:19:48.146Z,-0.008737825,-0.0077885203,0.49770626,0.0335083,-0.23258972,9.801727,18.843079,26.846313,-94.50073,0.047186732,-0.22465897,9.803963,-0.012033667,-0.008200243,0.043149948,9.1552734e-05,6.1035156e-05,-0.0005340576
2019-07-01T19:19:48.338Z,-0.008984004,-0.0076529407,0.49772066,0.025360107,-0.2230072,9.805313,19.84253,25.668335,-93.725586,0.042473443,-0.22752345,9.803918,-0.008837227,-0.0071858317,0.028281212,0.0005187988,0.00032043457,-0.00047302246
2019-07-01T19:19:48.594Z,-0.009050356,-0.0074526025,0.49737313,0.039245605,-0.23521423,9.805069,19.813538,26.756287,-93.50281,0.03850899,-0.22668117,9.803954,-0.008999433,0.001551941,0.020771027,-0.00033569336,-0.0004272461,-4.5776367e-05
2019-07-01T19:19:48.742Z,-0.009164115,-0.0074256714,0.4974563,0.03302002,-0.23570251,9.804825,18.292236,26.948547,-93.551636,0.03691902,-0.2283573,9.803922,-0.0031355135,-0.003786549,0.0136938095,-3.0517578e-05,-0.00012207031,-9.1552734e-05
2019-07-01T19:19:48.944Z,-0.009277628,-0.0074075335,0.49755815,0.029678345,-0.22612,9.806274,18.458557,25.20752,-93.23425,0.035475757,-0.23011544,9.8038845,-0.0021840185,-0.004087493,0.009278297,0.00021362305,0.00048828125,-0.00039672852
2019-07-01T19:19:49.146Z,-0.009274374,-0.007272751,0.4972646,0.034210205,-0.23138428,9.803146,18.301392,25.424194,-94.23981,0.033292234,-0.22873375,9.8039255,-0.0035983846,0.0022631139,0.006181717,-9.1552734e-05,0.0,-0.00021362305
2019-07-01T19:19:49.352Z,-0.009325233,-0.0073035406,0.49739382,0.029907227,-0.23066711,9.8029175,18.943787,25.543213,-94.696045,0.03328571,-0.22990425,9.803899,0.00046259165,-0.0025181472,0.0025224686,3.0517578e-05,0.00012207031,-3.0517578e-05
2019-07-01T19:19:49.554Z,-0.009369328,-0.0073065152,0.4974549,0.03302002,-0.22732544,9.803879,18.563843,26.179504,-95.68329,0.032889847,-0.23068568,9.803882,-0.00033420697,-0.0012475103,0.0013685226,-9.1552734e-05,6.1035156e-05,-3.0517578e-05
2019-07-01T19:19:49.754Z,-0.009314367,-0.0072031748,0.49716467,0.03111267,-0.22994995,9.8033905,19.174194,25.419617,-95.484924,0.031744704,-0.22873202,9.80393,-0.0020601116,0.0037571937,0.0013895035,3.0517578e-05,0.0,-0.00021362305
2019-07-01T19:19:49.954Z,-0.009356461,-0.007240572,0.49729726,0.03326416,-0.23234558,9.803635,19.158936,26.644897,-94.10248,0.031935368,-0.22981772,9.803905,0.0003716536,-0.0020848066,0.0012521744,3.0517578e-05,0.00012207031,-0.00015258789
2019-07-01T19:19:50.160Z,-0.009374867,-0.007298568,0.4974447,0.03541565,-0.23474121,9.803635,18.917847,26.705933,-94.607544,0.032703295,-0.230702,9.803882,0.0015249588,-0.0019074231,0.000834465,-3.0517578e-05,0.0,-3.0517578e-05
2019-07-01T19:19:50.362Z,-0.009411919,-0.0073670545,0.4976378,0.031585693,-0.2328186,9.8033905,18.659973,26.168823,-93.34717,0.033455163,-0.23200782,9.803848,0.0019622743,-0.0027457923,0.00055503845,0.00021362305,0.00018310547,-0.00015258789
2019-07-01T19:19:50.560Z,-0.009431538,-0.0072930963,0.49750325,0.03565979,-0.23162842,9.8033905,19.291687,27.745056,-93.43109,0.03204158,-0.2316148,9.803862,-0.002131652,0.00021101534,-0.00059223175,-3.0517578e-05,-6.1035156e-05,-0.00021362305
2019-07-01T19:19:50.763Z,-0.009362462,-0.007347505,0.49753445,0.036849976,-0.2328186,9.8029175,18.643188,27.549744,-93.06488,0.03363296,-0.23097183,9.803872,0.003520105,-0.00021956861,7.915497e-05,-9.1552734e-05,6.1035156e-05,-0.00021362305
2019-07-01T19:19:50.965Z,-0.009355512,-0.007418364,0.497678,0.0335083,-0.23330688,9.805313,19.252014,26.794434,-93.47229,0.034867812,-0.23155074,9.803854,0.0022279695,-0.0005617589,-0.00022411346,-3.0517578e-05,-6.1035156e-05,-0.00015258789
2019-07-01T19:19:51.167Z,-0.009395442,-0.007386274,0.49765864,0.032302856,-0.23042297,9.803879,18.907166,26.25885,-93.33954,0.03393735,-0.23191594,9.803848,-0.0021089688,-0.00089274347,0.0017623901,9.1552734e-05,0.0,-0.0002746582
2019-07-01T19:19:51.375Z,-0.009404515,-0.0073405197,0.49757162,0.031341553,-0.23187256,9.802673,17.254639,25.42572,-94.122314,0.033093777,-0.23162042,9.803859,-0.0012646206,0.00024089217,-0.00042533875,-3.0517578e-05,0.00012207031,-0.00039672852
2019-07-01T19:19:51.577Z,-0.00940045,-0.007312739,0.4975069,0.03326416,-0.23091125,9.802673,17.732239,27.210999,-94.45648,0.032678153,-0.23127776,9.803868,-0.00037413463,0.00035826862,-0.0010900497,9.1552734e-05,0.0,-0.00015258789
2019-07-01T19:19:51.773Z,-0.009390018,-0.0073236134,0.49751732,0.032546997,-0.23138428,9.8033905,18.078613,26.145935,-95.51849,0.032962173,-0.2312068,9.803869,0.00030464306,0.00027690828,-0.00087833405,-9.1552734e-05,6.1035156e-05,-0.00021362305
2019-07-01T19:19:51.976Z,-0.009399546,-0.007317366,0.4975157,0.03302002,-0.23019409,9.806259,17.741394,25.68512,-95.29877,0.032763332,-0.23130788,9.803867,-0.00045873225,-0.00033284724,0.00053310394,3.0517578e-05,-1.5258789e-05,-4.5776367e-05
2019-07-01T19:19:52.178Z,-0.009377016,-0.007305321,0.4974619,0.03302002,-0.23138428,9.803635,18.31665,25.712585,-93.95599,0.032792643,-0.23080507,9.803879,0.00047085434,0.0010886639,0.0014648438,-3.0517578e-05,0.00010681152,-0.00010681152
2019-07-01T19:19:52.378Z,-0.009394595,-0.0073223095,0.49752018,0.03326416,-0.2311554,9.804825,18.429565,26.446533,-93.58368,0.03289455,-0.23127204,9.803867,0.0003691353,-0.00058193505,-0.0001296997,3.0517578e-05,4.5776367e-05,7.6293945e-05
2019-07-01T19:19:52.583Z,-0.009389206,-0.007322553,0.49751404,0.034454346,-0.23162842,9.802673,18.818665,26.338196,-94.75403,0.032952935,-0.23118252,9.803869,0.00030957162,0.00028286874,0.00070762634,-0.00015258789,0.00010681152,-0.00010681152
2019-07-01T19:19:52.792Z,-0.009398697,-0.007350485,0.4975858,0.03277588,-0.23114014,9.8033905,18.844604,26.615906,-93.037415,0.033316284,-0.23161922,9.803858,0.0008944124,-0.000256747,-0.0012836456,-9.1552734e-05,-7.6293945e-05,0.0001373291
2019-07-01T19:19:53.006Z,-0.009389879,-0.0073450278,0.49756315,0.03492737,-0.23162842,9.804596,17.75055,27.194214,-92.12189,0.033315577,-0.23141512,9.803863,-5.218014e-05,0.0005091876,0.00075244904,9.1552734e-05,-1.5258789e-05,-0.00010681152
2019-07-01T19:19:53.198Z,-0.0093804905,-0.0073639615,0.49759215,0.033981323,-0.2328186,9.805542,17.704773,26.246643,-92.53693,0.03372153,-0.2314413,9.803861,0.0007320009,-0.00041042268,1.04904175e-05,-9.1552734e-05,4.5776367e-05,-0.00016784668
2019-07-01T19:19:53.401Z,-0.009407608,-0.0073823226,0.49766526,0.032791138,-0.22947693,9.805786,18.09082,26.05896,-93.573,0.033749606,-0.23208456,9.803845,-1.4662743e-05,-0.00048975646,0.0008172989,-0.00021362305,4.5776367e-05,-0.00016784668
2019-07-01T19:19:53.604Z,-0.009361481,-0.0073115244,0.49745592,0.034225464,-0.23042297,9.802429,18.089294,26.44043,-95.684814,0.033051345,-0.23060113,9.803884,-0.0007517338,0.0030694455,0.0006971359,3.0517578e-05,-1.5258789e-05,-6.1035156e-05
2019-07-01T19:19:53.807Z,-0.00937606,-0.0073742494,0.49760875,0.03302002,-0.22994995,9.8033905,18.148804,25.93689,-95.94116,0.03393535,-0.231467,9.80386,0.0012352653,-0.0013455003,-0.0014448166,-3.0517578e-05,-7.6293945e-05,0.0001373291
2019-07-01T19:19:54.015Z,-0.009345408,-0.007333164,0.49748248,0.03277588,-0.23114014,9.801483,18.772888,25.541687,-96.12427,0.03356927,-0.23053981,9.803883,-0.0005484186,0.0015302002,-0.0009660721,-3.0517578e-05,4.5776367e-05,0.00018310547
2019-07-01T19:19:54.211Z,-0.009374551,-0.007316665,0.4974832,0.031585693,-0.22970581,9.802444,18.328857,26.235962,-95.13397,0.033004012,-0.23087461,9.803877,-0.0009428784,-0.00052656233,-0.0009584427,9.1552734e-05,0.00016784668,1.5258789e-05
2019-07-01T19:19:54.427Z,-0.009389781,-0.0072889496,0.49744254,0.033737183,-0.23019409,9.804825,19.47937,26.669312,-94.63806,0.03239472,-0.2308618,9.803879,-0.00080506876,0.00016647577,-0.0009536743,-0.00021362305,4.5776367e-05,-4.5776367e-05
2019-07-01T19:19:54.623Z,-0.009363509,-0.0073062074,0.497447,0.032302856,-0.23138428,9.8033905,19.326782,26.725769,-93.56384,0.032943483,-0.23058338,9.803884,0.0015117116,0.0011004955,0.001912117,-9.1552734e-05,4.5776367e-05,1.5258789e-05
2019-07-01T19:19:54.820Z,-0.00939723,-0.0072953394,0.49746552,0.033981323,-0.23019409,9.802429,19.714355,26.390076,-93.722534,0.032424618,-0.23105168,9.803874,-0.001081448,-9.995699e-05,-0.0004682541,-0.00015258789,4.5776367e-05,0.00024414062
2019-07-01T19:19:55.025Z,-0.009368944,-0.0073203407,0.49748412,0.0335083,-0.22994995,9.801239,17.999268,25.76294,-93.403625,0.033120997,-0.23081514,9.803878,0.0015799552,0.00060385466,-0.00047397614,3.0517578e-05,4.5776367e-05,0.0001373291
2019-07-01T19:19:55.233Z,-0.0093560815,-0.0073121344,0.49745053,0.031341553,-0.2280426,9.802673,18.658447,26.094055,-93.20984,0.033115856,-0.23051499,9.8038845,0.00039760768,0.0002849549,-0.0015907288,3.0517578e-05,0.00010681152,1.5258789e-05
2019-07-01T19:19:55.435Z,-0.009325587,-0.0072537577,0.49728727,0.032546997,-0.23091125,9.803162,17.098999,25.561523,-94.31305,0.03246352,-0.22942068,9.803912,-0.0011166334,0.0025458336,-0.00010204315,-0.00015258789,4.5776367e-05,0.00018310547
2019-07-01T19:19:55.638Z,-0.00936709,-0.007253046,0.49733722,0.030151367,-0.23091125,9.805786,18.011475,26.359558,-95.095825,0.03203331,-0.23012167,9.803898,-0.0004435964,-0.0015356243,0.0007238388,0.00015258789,0.00010681152,1.5258789e-05
2019-07-01T19:19:55.840Z,-0.009376853,-0.007264635,0.49737424,0.033981323,-0.23210144,9.805069,18.759155,25.17395,-95.895386,0.032125384,-0.23040214,9.80389,0.00042141974,-0.0009807646,0.0025548935,9.1552734e-05,6.1035156e-05,-0.00016784668
2019-07-01T19:19:56.046Z,-0.00938955,-0.0072631785,0.49738687,0.03302002,-0.22947693,9.8029175,17.645264,25.466919,-95.94269,0.03197336,-0.23060443,9.803886,0.00057193637,-0.0010116994,0.00090408325,0.00015258789,0.00010681152,1.5258789e-05
2019-07-01T19:19:56.238Z,-0.009368906,-0.007258178,0.4973505,0.032302856,-0.23066711,9.803635,18.56842,26.098633,-94.71588,0.032099374,-0.23020312,9.803896,-3.9931387e-05,0.0007209778,-0.0014734268,3.0517578e-05,0.00010681152,1.5258789e-05
2019-07-01T19:19:56.447Z,-0.00936576,-0.007276033,0.497385,0.031585693,-0.23162842,9.8029175,18.59436,26.835632,-95.32471,0.032424677,-0.230325,9.803891,0.00083995983,-0.0008337796,0.00013160706,9.1552734e-05,-7.6293945e-05,0.0001373291
2019-07-01T19:19:56.649Z,-0.009396066,-0.0072888527,0.4974501,0.03326416,-0.22994995,9.8029175,19.407654,26.88446,-94.44275,0.032329727,-0.23096804,9.803877,-2.5268644e-05,-0.0013889968,-0.0007171631,9.1552734e-05,4.5776367e-05,-4.5776367e-05
2019-07-01T19:19:56.856Z,-0.009354175,-0.007259158,0.49733436,0.031585693,-0.23066711,9.800049,18.88733,25.897217,-93.78967,0.03226404,-0.22996147,9.803901,-0.00043200701,0.0019032061,-0.0003156662,3.0517578e-05,-6.1035156e-05,-0.00010681152
2019-07-01T19:19:57.045Z,-0.009403407,-0.007279261,0.4974386,0.029678345,-0.23043823,9.8033905,19.39087,26.138306,-92.62848,0.03209799,-0.23099892,9.803877,-3.56324e-05,6.145239e-05,0.00087070465,-3.0517578e-05,4.5776367e-05,-4.5776367e-05
2019-07-01T19:19:57.245Z,-0.009420368,-0.0072755255,0.49745163,0.030151367,-0.22923279,9.8033905,19.406128,26.733398,-93.86902,0.03186546,-0.23125148,9.803871,-0.0005212389,7.672608e-05,0.00058460236,3.0517578e-05,-1.5258789e-05,1.5258789e-05
2019-07-01T19:19:57.468Z,-0.009426186,-0.007250228,0.4974045,0.034454346,-0.23187256,9.80603,17.85431,26.191711,-93.76221,0.031390898,-0.23110197,9.803877,-0.0007645041,-0.00029706955,0.00038433075,-3.0517578e-05,-1.5258789e-05,1.5258789e-05
2019-07-01T19:19:57.665Z,-0.009420951,-0.007247586,0.49739233,0.03111267,-0.23138428,9.804596,18.148804,25.630188,-94.11621,0.031400267,-0.23098668,9.803879,0.00042964146,0.00031903386,0.0012130737,3.0517578e-05,0.00016784668,-0.00010681152
2019-07-01T19:19:57.863Z,-0.009390982,-0.007210111,0.49727458,0.03086853,-0.2270813,9.805313,17.375183,26.383972,-94.23218,0.031086374,-0.23010713,9.803901,-0.00022001378,0.0011345595,0.0014448166,0.0002746582,0.00010681152,-4.5776367e-05
2019-07-01T19:19:58.063Z,-0.009350786,-0.007230253,0.49726802,0.032791138,-0.22994995,9.802673,17.585754,25.66681,-94.31305,0.03182291,-0.22961947,9.80391,0.0011954159,0.00039888918,-0.0003232956,3.0517578e-05,-0.0001373291,0.00024414062
2019-07-01T19:19:58.267Z,-0.009359925,-0.0071986653,0.49721146,0.032546997,-0.22994995,9.800278,17.504883,25.967407,-95.832825,0.031211289,-0.22946487,9.803915,-0.00081506,0.00022679567,-0.0014886856,3.0517578e-05,6.1035156e-05,-0.00010681152
2019-07-01T19:19:58.473Z,-0.009352194,-0.007275619,0.49736726,0.03302002,-0.23162842,9.806992,18.659973,26.472473,-94.87152,0.032554686,-0.23008953,9.803896,0.002147723,-0.0013224632,-0.0019493103,-9.1552734e-05,-1.5258789e-05,0.00018310547
2019-07-01T19:19:58.679Z,-0.009349999,-0.0072995047,0.49741587,0.03302002,-0.23091125,9.802673,19.320679,26.88446,-95.34454,0.032969564,-0.230287,9.80389,0.0010101199,-0.0001245439,0.0033311844,9.1552734e-05,-7.6293945e-05,-0.00016784668
2019-07-01T19:19:58.882Z,-0.009373061,-0.0072534056,0.49734542,0.028961182,-0.23138428,9.803162,18.60199,26.753235,-93.98193,0.03197899,-0.23022705,9.803895,-0.002299849,0.00027136505,-0.0014505386,-9.1552734e-05,-1.5258789e-05,-0.00016784668
2019-07-01T19:19:59.081Z,-0.009395722,-0.0072415266,0.497348,0.03086853,-0.22994995,9.8033905,19.654846,26.817322,-93.33191,0.031555124,-0.23049681,9.80389,-0.00044167787,-0.0008931458,-1.4305115e-05,0.00021362305,0.00010681152,-6.1035156e-05
2019-07-01T19:19:59.282Z,-0.009386756,-0.0072523006,0.49736002,0.033981323,-0.23019409,9.801727,18.930054,26.846313,-93.59894,0.0318227,-0.23044983,9.803891,0.00048171356,-0.00071683526,-0.0004940033,0.00015258789,-1.5258789e-05,6.1035156e-05
2019-07-01T19:19:59.500Z,-0.009352565,-0.0072279433,0.49726528,0.034454346,-0.22994995,9.804825,19.132996,25.985718,-93.93463,0.031766985,-0.22962709,9.803909,6.6265464e-05,0.0010867566,-0.0011281967,3.0517578e-05,0.00010681152,6.1035156e-05
2019-07-01T19:19:59.694Z,-0.009350247,-0.007237672,0.4972833,0.029907227,-0.22755432,9.804825,18.16864,25.91858,-93.30444,0.03195034,-0.2296832,9.803908,0.00059742853,0.00020073354,0.0016412735,-3.0517578e-05,-6.1035156e-05,-0.00022888184
2019-07-01T19:19:59.895Z,-0.009333791,-0.0072458433,0.49728045,0.036132812,-0.23066711,9.804825,17.982483,25.473022,-93.992615,0.032250635,-0.22948281,9.803911,5.1748008e-05,0.00049751997,0.0007696152,9.1552734e-05,-7.6293945e-05,-6.1035156e-05
2019-07-01T19:20:00.099Z,-0.009309496,-0.0072913175,0.49734804,0.031829834,-0.2311554,9.8029175,17.520142,26.104736,-94.74945,0.033243433,-0.22951554,9.803907,0.001698073,-0.00042666495,0.00035762787,-0.00015258789,-7.6293945e-05,6.1035156e-05
2019-07-01T19:20:00.304Z,-0.009343321,-0.0073085693,0.49742705,0.031829834,-0.22898865,9.804596,17.555237,25.010681,-94.4458,0.033185948,-0.23026226,9.80389,-0.0006391518,-0.0008917153,-0.0005598068,-0.00015258789,-0.0001373291,7.6293945e-05
2019-07-01T19:20:00.504Z,-0.009335755,-0.007306517,0.49741325,0.03541565,-0.22970581,9.803635,18.954468,26.065063,-96.17462,0.033228528,-0.230113,9.803893,3.471598e-05,0.00064240396,0.00043296814,3.0517578e-05,4.5776367e-05,-4.5776367e-05
2019-07-01T19:20:00.704Z,-0.009345607,-0.0072809146,0.49737048,0.030151367,-0.22994995,9.803162,19.38324,26.376343,-94.77081,0.032708198,-0.23002926,9.803898,-0.0006484464,0.0005450547,-0.0011434555,-9.1552734e-05,0.00010681152,1.5258789e-05
2019-07-01T19:20:00.899Z,-0.009354676,-0.007274485,0.49736792,0.033737183,-0.23066711,9.800766,18.313599,25.868225,-95.05615,0.032511022,-0.23012072,9.803896,3.6682934e-05,0.00016576052,0.00019645691,-9.1552734e-05,-1.5258789e-05,0.0002593994
2019-07-01T19:20:01.120Z,-0.009368073,-0.0073407176,0.49752682,0.03565979,-0.23162842,9.805786,18.589783,26.45874,-93.81561,0.033464767,-0.23100077,9.803872,0.0009924769,-0.0016089529,-0.0013113022,9.1552734e-05,-0.0001373291,6.1035156e-05
2019-07-01T19:20:01.319Z,-0.009349538,-0.0073411423,0.49750474,0.033737183,-0.23042297,9.803635,18.939209,27.067566,-93.93158,0.03365876,-0.23068877,9.803879,0.00079699233,0.0004849881,0.0008840561,-0.00015258789,0.00010681152,0.0001373291
2019-07-01T19:20:01.519Z,-0.0093635805,-0.0073281946,0.49749434,0.032546997,-0.22970581,9.805786,19.996643,27.201843,-92.9657,0.03330423,-0.2308009,9.803877,-0.00028354302,-0.00011497736,0.0004272461,9.1552734e-05,4.5776367e-05,7.6293945e-05
2019-07-01T19:20:01.723Z,-0.009329806,-0.0073122717,0.49741825,0.033493042,-0.2280426,9.803162,18.196106,26.652527,-93.68286,0.033383153,-0.23006812,9.803894,-0.000120114535,0.0015602261,0.0010900497,3.0517578e-05,-7.6293945e-05,0.0001373291
2019-07-01T19:20:01.916Z,-0.009304606,-0.0073008197,0.49736238,0.034942627,-0.22923279,9.8033905,19.485474,26.663208,-93.65845,0.033448998,-0.22952558,9.803906,0.00028910488,0.00028647482,-0.0011920929,9.1552734e-05,-1.5258789e-05,-0.00016784668
2019-07-01T19:20:02.118Z,-0.00929088,-0.0073674577,0.4974885,0.034454346,-0.2318573,9.804352,17.755127,25.976562,-95.0119,0.03468318,-0.22994705,9.803892,0.002167154,-0.00049358606,0.00031757355,-0.00015258789,-7.6293945e-05,7.6293945e-05
2019-07-01T19:20:02.339Z,-0.009331862,-0.007388914,0.49758542,0.03541565,-0.22947693,9.804596,17.43927,26.098633,-94.89899,0.034622423,-0.23085739,9.803871,-0.0003970228,-0.0009994954,0.00021839142,-0.00015258789,-1.5258789e-05,1.5258789e-05
2019-07-01T19:20:02.533Z,-0.0093157645,-0.0073329424,0.49744523,0.031585693,-0.2311554,9.800278,17.520142,26.25885,-95.62378,0.033864662,-0.23003194,9.803893,-0.0015623197,0.0017639548,0.00030994415,3.0517578e-05,-7.6293945e-05,0.00018310547
2019-07-01T19:20:02.733Z,-0.009320791,-0.0073770904,0.4975463,0.036132812,-0.23162842,9.804352,18.278503,25.294495,-96.45538,0.034539774,-0.23055214,9.803879,0.0006350018,-0.0013422072,-0.0021858215,9.1552734e-05,-6.1035156e-05,-0.00010681152
2019-07-01T19:20:02.938Z,-0.009339944,-0.007383938,0.49758476,0.034942627,-0.23042297,9.8029175,17.65747,25.6073,-95.38422,0.034459073,-0.23094629,9.80387,-0.0002320297,-0.0011657476,0.00093078613,9.1552734e-05,-1.5258789e-05,-4.5776367e-05
2019-07-01T19:20:03.143Z,-0.009326873,-0.0073531964,0.49750254,0.032058716,-0.23187256,9.8029175,19.85321,26.113892,-94.69147,0.034085587,-0.23042075,9.803884,-0.0005753897,0.0007021278,-0.00017642975,3.0517578e-05,-1.5258789e-05,-0.00016784668
2019-07-01T19:20:03.341Z,-0.009356394,-0.007331443,0.4974924,0.030395508,-0.2311554,9.802444,18.629456,25.741577,-94.86847,0.033430137,-0.23071028,9.803879,-0.0013691001,-0.00068998337,-0.00028133392,-3.0517578e-05,4.5776367e-05,1.5258789e-05
2019-07-01T19:20:03.546Z,-0.009415523,-0.0073331185,0.49756938,0.033981323,-0.23187256,9.804108,19.529724,26.017761,-94.47174,0.03286103,-0.23173536,9.803857,0.00087730214,-0.0010913461,0.0013113022,-0.00015258789,0.00010681152,-4.5776367e-05
2019-07-01T19:20:03.741Z,-0.009403974,-0.007345599,0.49758187,0.03302002,-0.22923279,9.805069,19.577026,26.887512,-93.38989,0.033182725,-0.23166117,9.803858,0.0007996224,2.5600195e-05,7.915497e-05,9.1552734e-05,4.5776367e-05,-0.00022888184
2019-07-01T19:20:03.952Z,-0.009360927,-0.0072928327,0.4974151,0.031341553,-0.22947693,9.803635,18.95752,27.430725,-93.55774,0.032749627,-0.2304078,9.803888,-0.0009203814,0.0018963367,0.001004219,0.00015258789,-7.6293945e-05,7.6293945e-05
2019-07-01T19:20:04.151Z,-0.009355563,-0.007274738,0.49736956,0.032058716,-0.22994995,9.801956,18.658447,26.246643,-93.93616,0.032506235,-0.23013832,9.803895,-0.0011650324,0.00066386163,-0.00012207031,-3.0517578e-05,-7.6293945e-05,0.00024414062
2019-07-01T19:20:04.356Z,-0.009382777,-0.007283747,0.49742267,0.03302002,-0.23042297,9.803635,17.623901,26.470947,-94.000244,0.03237986,-0.23069113,9.803883,-7.488951e-05,-0.0009523332,-0.0015153885,-3.0517578e-05,0.00010681152,0.00018310547
2019-07-01T19:20:04.562Z,-0.009364728,-0.0072769932,0.49738577,0.03062439,-0.23019409,9.805069,17.655945,25.454712,-94.28406,0.03245087,-0.23031685,9.803891,0.00056954846,0.0006082207,0.0010538101,-3.0517578e-05,4.5776367e-05,0.00018310547
2019-07-01T19:20:04.762Z,-0.009380643,-0.0072413036,0.49732882,0.03086853,-0.23138428,9.801712,17.582703,25.975037,-96.28754,0.03170353,-0.23023741,9.803896,-0.001306951,0.0005238205,-0.00040340424,-3.0517578e-05,-7.6293945e-05,-4.5776367e-05
2019-07-01T19:20:04.967Z,-0.0093794605,-0.0072541614,0.49735498,0.032546997,-0.23019409,9.804596,17.555237,25.39215,-96.632385,0.031926885,-0.23034365,9.803893,0.00037747994,-9.019673e-05,-0.00026798248,-9.1552734e-05,0.00010681152,-0.00010681152
2019-07-01T19:20:05.169Z,-0.009417326,-0.007203981,0.4972941,0.0284729,-0.23162842,9.800766,19.015503,25.253296,-94.303894,0.030719917,-0.23049624,9.803893,-0.001284482,-0.00042425096,0.00013446808,-3.0517578e-05,0.00022888184,0.00030517578
2019-07-01T19:20:05.370Z,-0.00944588,-0.0072401892,0.49740735,0.034225464,-0.23138428,9.801483,19.33899,27.095032,-94.32068,0.03102719,-0.23133914,9.803871,0.00031868927,-0.001282841,-0.001982689,3.0517578e-05,-0.0001373291,-4.5776367e-05
2019-07-01T19:20:05.579Z,-0.009414388,-0.0072622616,0.49741572,0.03086853,-0.22923279,9.800522,18.97583,26.197815,-94.33594,0.031707745,-0.23101906,9.803878,0.0010736696,0.00054048,-0.00068187714,9.1552734e-05,0.00010681152,7.6293945e-05
2019-07-01T19:20:05.776Z,-0.009400962,-0.007247895,0.4973682,0.032546997,-0.23114014,9.8022,18.86444,27.204895,-93.522644,0.031606987,-0.23064879,9.803886,0.00045877695,0.00064741075,-0.00093460083,-3.0517578e-05,4.5776367e-05,0.00030517578
2019-07-01T19:20:05.980Z,-0.009395177,-0.0072546275,0.4973755,0.03541565,-0.22994995,9.804825,18.696594,27.04773,-93.54706,0.031776026,-0.2306163,9.803886,0.00053155795,-8.5130334e-05,0.0014505386,3.0517578e-05,4.5776367e-05,7.6293945e-05
2019-07-01T19:20:06.177Z,-0.009395248,-0.007308505,0.49749133,0.029907227,-0.23042297,9.804108,18.667603,26.239014,-92.72919,0.032661043,-0.23114738,9.803871,0.0010793582,-0.00025966763,0.0009737015,-0.00021362305,-0.00012207031,0.0001373291
2019-07-01T19:20:06.381Z,-0.009365203,-0.007259745,0.4973493,0.03135681,-0.23234558,9.801239,17.14325,26.356506,-92.793274,0.032162488,-0.23015533,9.803896,-0.0010473691,0.0016222149,0.00048351288,0.00015258789,-7.6293945e-05,1.5258789e-05
2019-07-01T19:20:06.580Z,-0.009406056,-0.007269856,0.4974217,0.031341553,-0.23043823,9.803635,17.427063,25.578308,-93.71948,0.031916644,-0.23095164,9.803879,-0.0005546212,-0.0019046813,-0.0017557144,-9.1552734e-05,-0.0001373291,7.6293945e-05
2019-07-01T19:20:06.801Z,-0.009415484,-0.007287516,0.49747133,0.032791138,-0.23019409,9.801483,17.919922,25.982666,-94.488525,0.032111835,-0.23128611,9.80387,-0.0005234331,0.000111192465,0.0015535355,3.0517578e-05,-7.6293945e-05,0.0001373291
2019-07-01T19:20:07.050Z,-0.009364872,-0.0072715757,0.4973743,0.03277588,-0.22779846,9.803162,17.610168,24.661255,-95.95337,0.03236034,-0.23026603,9.803893,0.0011529811,0.0012416691,-0.0013618469,0.00015258789,-1.5258789e-05,0.0001373291
2019-07-01T19:20:07.251Z,-0.00932935,-0.0072543183,0.49729314,0.032058716,-0.23162842,9.8029175,18.269348,26.58844,-94.529724,0.0324348,-0.22949037,9.80391,-0.0001279898,0.0009467751,0.00067424774,3.0517578e-05,0.00010681152,0.00018310547
2019-07-01T19:20:07.447Z,-0.009346201,-0.00725334,0.49731195,0.031829834,-0.22827148,9.804596,18.424988,26.45111,-94.11163,0.03224879,-0.22976823,9.8039055,-0.00041606277,-0.00091950595,0.0006093979,9.1552734e-05,-7.6293945e-05,0.00018310547
2019-07-01T19:20:07.655Z,-0.009345279,-0.0072403206,0.49728283,0.034698486,-0.22970581,9.804352,18.341064,26.374817,-94.42749,0.032043993,-0.2296245,9.803909,-0.00021297857,0.00038324296,0.0010480881,3.0517578e-05,0.00010681152,1.5258789e-05
2019-07-01T19:20:07.854Z,-0.009303725,-0.0072795223,0.49731553,0.032058716,-0.22972107,9.8033905,19.102478,27.227783,-94.28558,0.033107653,-0.2293011,9.803913,0.002309654,0.00030097365,-0.0002603531,0.00015258789,4.5776367e-05,0.0001373291
2019-07-01T19:20:08.060Z,-0.00933928,-0.007276533,0.4973532,0.03277588,-0.23258972,9.803635,19.859314,26.109314,-94.088745,0.03234393,-0.23034212,9.803891,-0.000513643,-0.0008165091,0.00035381317,3.0517578e-05,4.5776367e-05,0.00018310547
2019-07-01T19:20:08.261Z,-0.009368592,-0.00727286,0.4973817,0.032073975,-0.23187256,9.804825,18.66455,26.242065,-93.18085,0.032396186,-0.23041414,9.803889,-0.0005663,-0.00049747527,0.00023365021,-3.0517578e-05,-0.00024414062,0.00036621094
2019-07-01T19:20:08.452Z,-0.009387198,-0.0072764447,0.49741247,0.032302856,-0.22947693,9.802673,17.988586,27.365112,-93.60657,0.032215208,-0.23069474,9.803884,-0.00063026324,-0.00021116436,0.00048446655,-0.00015258789,-1.5258789e-05,0.00036621094
2019-07-01T19:20:08.670Z,-0.009382581,-0.007319587,0.49749944,0.031585693,-0.23138428,9.803162,18.255615,26.069641,-93.50128,0.03297101,-0.23104033,9.803872,0.0010097884,-9.612739e-05,-0.00014972687,-3.0517578e-05,-0.00018310547,0.0001373291
2019-07-01T19:20:08.870Z,-0.009399731,-0.0072985464,0.4974755,0.033493042,-0.22947693,9.804825,18.154907,25.779724,-94.23828,0.03245211,-0.23112588,9.803872,-0.001338739,-0.00050753355,-0.0007429123,3.0517578e-05,4.5776367e-05,-0.00010681152
2019-07-01T19:20:09.072Z,-0.009335802,-0.0072674593,0.49732938,0.032546997,-0.22947693,9.804108,17.697144,26.254272,-93.592834,0.032585826,-0.22972967,9.803905,0.0006775819,0.0026536882,0.00093746185,9.1552734e-05,-1.5258789e-05,-4.5776367e-05
2019-07-01T19:20:09.274Z,-0.009340911,-0.0072706337,0.49734256,0.03111267,-0.23066711,9.801483,18.527222,25.378418,-95.84503,0.032586507,-0.22984806,9.803903,-0.00052747503,-0.000104129314,-0.0006456375,-9.1552734e-05,4.5776367e-05,0.0001373291
2019-07-01T19:20:09.477Z,-0.009376739,-0.00725909,0.4973622,0.031585693,-0.23019409,9.801727,17.49878,25.592041,-94.625854,0.032035355,-0.23034567,9.803891,-0.00044606626,-0.0005914569,-0.0020256042,-9.1552734e-05,4.5776367e-05,1.5258789e-05
2019-07-01T19:20:09.675Z,-0.009365893,-0.0072690113,0.49737006,0.03302002,-0.2311554,9.804108,18.798828,25.823975,-94.4046,0.032307886,-0.23025824,9.803894,0.00024234131,0.00028528273,0.00024795532,-3.0517578e-05,-7.6293945e-05,1.5258789e-05
2019-07-01T19:20:09.877Z,-0.009400755,-0.007298978,0.4974777,0.03062439,-0.23138428,9.803146,19.33136,25.204468,-94.781494,0.03244886,-0.23114762,9.803872,-0.0003880225,-0.0012131035,0.00064849854,-0.00015258789,-0.00024414062,0.0
2019-07-01T19:20:10.080Z,-0.009417678,-0.0072742836,0.49744564,0.03086853,-0.23138428,9.802673,18.933105,26.922607,-93.96057,0.031872183,-0.2311934,9.803873,-0.0014739782,3.3691525e-05,-0.00037002563,9.1552734e-05,4.5776367e-05,-0.00016784668
2019-07-01T19:20:10.280Z,-0.009419726,-0.0072662625,0.49743095,0.031341553,-0.22994995,9.802673,18.417358,26.306152,-94.36798,0.031719662,-0.23114944,9.803874,-0.00037475675,0.00021374226,-0.0004081726,-9.1552734e-05,-7.6293945e-05,1.5258789e-05
2019-07-01T19:20:10.498Z,-0.009417249,-0.0072581596,0.49741045,0.03277588,-0.22779846,9.803635,18.800354,25.89569,-94.54193,0.031611454,-0.23102751,9.803878,-0.000496272,0.0005861968,0.0005350113,-9.1552734e-05,-1.5258789e-05,7.6293945e-05
2019-07-01T19:20:10.691Z,-0.009353166,-0.0072486424,0.4973105,0.0335083,-0.23019409,9.8033905,18.572998,27.841187,-93.38226,0.032101296,-0.22984086,9.803904,0.0009215586,0.002495125,-0.000120162964,-3.0517578e-05,-7.6293945e-05,-4.5776367e-05
2019-07-01T19:20:10.895Z,-0.009351696,-0.0072584357,0.4973297,0.03277588,-0.22970581,9.806259,18.63861,27.40326,-92.944336,0.032277167,-0.22991207,9.803902,0.0005153753,-4.787743e-05,0.0008764267,-3.0517578e-05,0.00016784668,1.5258789e-05
2019-07-01T19:20:11.103Z,-0.009348965,-0.007258521,0.49732652,0.029678345,-0.23066711,9.805069,18.084717,25.839233,-93.39142,0.032306116,-0.22986634,9.803904,0.0007122606,0.00040110946,0.0018577576,-9.1552734e-05,4.5776367e-05,-4.5776367e-05
2019-07-01T19:20:11.312Z,-0.0093888305,-0.0072358283,0.4973272,0.033981323,-0.23066711,9.8033905,17.918396,25.831604,-93.76221,0.03153095,-0.23032324,9.803895,-0.0013819374,-0.0010438561,0.00044345856,3.0517578e-05,4.5776367e-05,-0.00010681152
2019-07-01T19:20:11.511Z,-0.009372564,-0.007281297,0.49740472,0.029190063,-0.22779846,9.8033905,17.662048,25.602722,-94.77997,0.032442585,-0.23049285,9.803887,0.0017673261,-0.00066044927,-0.0013036728,9.1552734e-05,4.5776367e-05,1.5258789e-05
2019-07-01T19:20:11.713Z,-0.009356539,-0.0072457865,0.49730855,0.0335083,-0.22972107,9.802673,18.939209,25.700378,-96.32263,0.032020334,-0.22987032,9.803904,-0.0009077899,0.0015997291,-6.2942505e-05,-3.0517578e-05,-1.5258789e-05,6.1035156e-05
2019-07-01T19:20:11.914Z,-0.009348666,-0.0072285547,0.49726173,0.029434204,-0.23091125,9.800995,18.688965,25.387573,-95.62378,0.03181635,-0.22956662,9.803911,-0.00047175214,-0.00040529668,-0.0019626617,0.0002746582,-1.5258789e-05,1.5258789e-05
2019-07-01T19:20:12.108Z,-0.009352356,-0.007183843,0.4971702,0.03326416,-0.22875977,9.801483,18.33496,26.229858,-94.45648,0.031043816,-0.2291901,9.803922,-0.0013621598,0.00040587783,-0.00020313263,-9.1552734e-05,4.5776367e-05,0.0002593994
2019-07-01T19:20:12.314Z,-0.009364019,-0.00718815,0.49719393,0.030151367,-0.22875977,9.805069,19.14978,26.501465,-94.281006,0.030997097,-0.2294314,9.803918,0.00012135506,-8.830428e-05,-0.0015668869,9.1552734e-05,-0.00012207031,0.00036621094
2019-07-01T19:20:12.525Z,-0.009350337,-0.0071924417,0.49718618,0.032546997,-0.22827148,9.8029175,18.734741,26.179504,-94.255066,0.031205602,-0.22924016,9.803921,-9.026937e-05,-1.21593475e-05,0.0019845963,9.1552734e-05,4.5776367e-05,6.1035156e-05
2019-07-01T19:20:12.724Z,-0.009293232,-0.007263167,0.49726737,0.03302002,-0.23066711,9.804108,18.461609,27.102661,-93.299866,0.03294447,-0.22896124,9.803922,0.0036630183,0.00018996,0.0006790161,3.0517578e-05,4.5776367e-05,-4.5776367e-05
2019-07-01T19:20:12.929Z,-0.00932858,-0.007239213,0.49725974,0.032058716,-0.23138428,9.801956,18.856812,26.83258,-92.61627,0.03219414,-0.22932877,9.803916,-0.0010806136,-0.0006272942,0.0004529953,-9.1552734e-05,4.5776367e-05,0.00024414062
2019-07-01T19:20:13.132Z,-0.009327374,-0.0072511896,0.497284,0.033737183,-0.22875977,9.809143,18.130493,26.860046,-93.03284,0.03240326,-0.22942592,9.803912,0.00037428364,-6.2823296e-05,-0.0004901886,-3.0517578e-05,-1.5258789e-05,0.0001373291
2019-07-01T19:20:13.331Z,-0.009373694,-0.0072143828,0.49726233,0.03111267,-0.2311554,9.801712,18.989563,26.339722,-93.47687,0.031330947,-0.22985421,9.8039055,-0.0014264472,-0.00056402385,0.0027065277,-3.0517578e-05,0.00024414062,-0.00010681152
2019-07-01T19:20:13.532Z,-0.009377392,-0.0072327256,0.49730635,0.032302856,-0.23066711,9.8022,18.745422,26.246643,-93.26019,0.031595286,-0.23009762,9.8039,0.00070730224,-0.0005675405,-0.0015535355,-3.0517578e-05,4.5776367e-05,-4.5776367e-05
2019-07-01T19:20:13.738Z,-0.009388154,-0.0072795334,0.49742028,0.034454346,-0.23162842,9.802673,16.789246,25.909424,-94.532776,0.03225633,-0.23074144,9.803883,0.0014832653,-0.0011330992,-0.001666069,-3.0517578e-05,-0.00018310547,1.5258789e-05
2019-07-01T19:20:13.944Z,-0.009338253,-0.0073032384,0.4974093,0.03062439,-0.23162842,9.803635,18.374634,25.662231,-96.30737,0.03314943,-0.23012337,9.803894,0.0008344017,0.0011173338,8.583069e-06,3.0517578e-05,-6.1035156e-05,-0.00022888184
2019-07-01T19:20:14.149Z,-0.009396828,-0.007216413,0.49729538,0.031341553,-0.22947693,9.806503,18.434143,25.230408,-96.473694,0.031131051,-0.23026879,9.803897,-0.0036178716,-0.000654161,0.00048065186,0.00015258789,0.00010681152,0.00030517578
2019-07-01T19:20:14.347Z,-0.009360763,-0.0072794887,0.49738622,0.032791138,-0.22851562,9.8022,18.003845,24.543762,-96.14258,0.032531884,-0.23027377,9.803892,0.0012072884,-0.00016325712,-0.0022830963,3.0517578e-05,-1.5258789e-05,1.5258789e-05
2019-07-01T19:20:14.547Z,-0.009360412,-0.0072953375,0.49741983,0.029907227,-0.22875977,9.804825,20.043945,26.783752,-95.01648,0.032796007,-0.23042364,9.803887,0.0009401217,8.0913305e-06,0.00182724,-0.00015258789,4.5776367e-05,1.5258789e-05
2019-07-01T19:20:14.789Z,-0.0093752295,-0.0072084977,0.49725157,0.03062439,-0.22779846,9.802429,18.02826,26.571655,-94.374084,0.031218687,-0.22982259,9.803907,-0.0025027562,0.0008421391,9.536743e-05,0.00015258789,0.00016784668,1.5258789e-05
2019-07-01T19:20:14.988Z,-0.009341497,-0.00724459,0.4972873,0.03302002,-0.23210144,9.804108,19.308472,26.437378,-94.151306,0.03215234,-0.22960195,9.803909,0.0015856922,0.00011895597,-0.0012207031,0.00021362305,-0.00018310547,0.0001373291
2019-07-01T19:20:15.215Z,-0.009363199,-0.007271742,0.4973726,0.034698486,-0.23019409,9.8029175,18.362427,26.73645,-93.59741,0.03237996,-0.23023911,9.803893,-7.6808035e-05,-0.0016355366,0.00030326843,-9.1552734e-05,-1.5258789e-05,-0.00010681152
2019-07-01T19:20:15.412Z,-0.009361241,-0.0072705625,0.49736762,0.033737183,-0.2318573,9.803162,18.206787,26.794434,-93.27698,0.032380313,-0.23019414,9.803895,0.0001690276,0.00047166646,-0.0012292862,-3.0517578e-05,-7.6293945e-05,0.00012207031
2019-07-01T19:20:15.614Z,-0.009315375,-0.00728893,0.4973502,0.029190063,-0.22994995,9.801239,18.55011,25.65918,-94.503784,0.033144888,-0.22959235,9.803906,0.0013102926,0.0005979389,0.0009355545,9.1552734e-05,-6.1035156e-05,-0.00010681152
2019-07-01T19:20:15.813Z,-0.009383668,-0.007221676,0.49729037,0.028961182,-0.23066711,9.80603,17.57965,25.52185,-94.34204,0.0313503,-0.23009606,9.803901,-0.0038348585,-0.0013164282,-0.0019321442,-3.0517578e-05,0.0,1.5258789e-05
2019-07-01T19:20:16.025Z,-0.009425473,-0.007243653,0.49738947,0.03062439,-0.23114014,9.80484,17.404175,25.221252,-94.62433,0.031289995,-0.23102516,9.803879,5.2303076e-05,-0.0010817945,0.001912117,0.00015258789,0.00010681152,-0.00016784668
2019-07-01T19:20:16.219Z,-0.009431797,-0.007264527,0.4974422,0.032302856,-0.23257446,9.801727,17.90924,25.839233,-94.96918,0.031569354,-0.23133826,9.80387,0.00048828125,-0.0012435466,0.0011072159,3.0517578e-05,-1.5258789e-05,-0.00016784668
2019-07-01T19:20:16.427Z,-0.009441885,-0.0072629307,0.49745128,0.034225464,-0.23210144,9.803635,18.382263,25.654602,-95.40405,0.03144133,-0.23149464,9.803867,0.0006194562,-0.0006220788,-0.0019817352,9.1552734e-05,0.00022888184,1.5258789e-05
2019-07-01T19:20:16.628Z,-0.009437752,-0.0072697005,0.4974607,0.03111267,-0.23043823,9.805313,18.136597,27.314758,-95.207214,0.031594317,-0.2314907,9.803866,0.00070914254,0.00010199845,0.0009174347,-9.1552734e-05,4.5776367e-05,-4.5776367e-05
2019-07-01T19:20:16.832Z,-0.009424907,-0.007267261,0.4974395,0.032302856,-0.22898865,9.8033905,18.199158,26.95465,-94.98291,0.03168381,-0.23124765,9.803873,-9.925291e-05,0.00034467876,0.0010890961,3.0517578e-05,-7.6293945e-05,1.5258789e-05
2019-07-01T19:20:17.036Z,-0.009361815,-0.0072330018,0.4972876,0.031341553,-0.2280426,9.804825,18.24646,26.07727,-94.706726,0.031756897,-0.22983463,9.8039055,7.3835254e-05,0.0025026798,-0.0011987686,9.1552734e-05,-1.5258789e-05,0.00012207031
2019-07-01T19:20:17.237Z,-0.009347515,-0.007216469,0.49723434,0.03111267,-0.23091125,9.804825,18.936157,27.069092,-94.31,0.0316292,-0.22942817,9.803915,-0.0002885498,0.00020191073,0.00111866,0.0002746582,-7.6293945e-05,6.1035156e-05
2019-07-01T19:20:17.445Z,-0.0093665775,-0.007236555,0.49730116,0.03302002,-0.23042297,9.805069,19.554138,26.377869,-93.49213,0.03176731,-0.2299508,9.803903,-0.0006567836,-0.00094491243,0.00074768066,-0.00021362305,-0.00018310547,0.00012207031
2019-07-01T19:20:17.645Z,-0.009366171,-0.007281675,0.4973976,0.03062439,-0.23043823,9.803162,17.965698,26.853943,-93.63098,0.032513283,-0.23038754,9.80389,0.0009780303,-0.00051148236,-0.00030231476,3.0517578e-05,-0.00018310547,0.00018310547
2019-07-01T19:20:17.845Z,-0.009327701,-0.007240314,0.49726102,0.036849976,-0.22779846,9.80603,17.866516,26.486206,-93.85681,0.03222111,-0.22932456,9.803915,-0.00088166073,0.0012969226,0.00026988983,0.00015258789,-7.6293945e-05,7.6293945e-05
2019-07-01T19:20:18.045Z,-0.009307273,-0.0072679017,0.49729496,0.029190063,-0.22970581,9.803162,17.84668,26.123047,-94.381714,0.032880783,-0.22924735,9.803916,0.0015711226,0.000504598,0.0001821518,-9.1552734e-05,0.00022888184,0.0
2019-07-01T19:20:18.252Z,-0.00935329,-0.007240944,0.4972941,0.03062439,-0.23091125,9.80603,18.565369,26.101685,-95.018005,0.031973463,-0.2297673,9.803906,-0.0018226169,-0.0008960664,-0.0011491776,-9.1552734e-05,-0.00012207031,-4.5776367e-05
2019-07-01T19:20:18.453Z,-0.009399941,-0.0072578946,0.49738842,0.034698486,-0.23042297,9.804352,18.554688,26.036072,-95.86182,0.03178168,-0.23072971,9.8038845,-0.0001979135,-0.0013577491,0.0008354187,-3.0517578e-05,0.00016784668,6.1035156e-05
2019-07-01T19:20:18.654Z,-0.009365653,-0.00730243,0.49744156,0.03062439,-0.23187256,9.800766,18.771362,25.543213,-96.2738,0.03285975,-0.23058279,9.803884,0.0027976632,0.0004053712,0.00023174286,-0.00015258789,0.00016784668,-0.00010681152
2019-07-01T19:20:18.861Z,-0.00939721,-0.0072150845,0.497293,0.029190063,-0.22827148,9.804352,18.322754,26.164246,-95.60089,0.031105356,-0.23026223,9.803897,-0.002861254,0.0010288209,-0.0014410019,-3.0517578e-05,4.5776367e-05,0.00024414062
2019-07-01T19:20:19.063Z,-0.009395138,-0.0071812966,0.4972178,0.031585693,-0.23066711,9.8022,17.886353,27.075195,-94.566345,0.030570647,-0.22989485,9.803907,-0.00089070015,0.00040587783,-0.00096416473,3.0517578e-05,0.00010681152,-0.00010681152
2019-07-01T19:20:19.268Z,-0.009394886,-0.007212858,0.49728534,0.031341553,-0.23091125,9.804596,19.319153,26.80664,-94.83185,0.031092184,-0.23020074,9.803899,0.0012127683,-0.0009549111,-0.00032043457,0.00021362305,4.5776367e-05,-0.00010681152
2019-07-01T19:20:19.481Z,-0.009387739,-0.00718591,0.49721855,0.029907227,-0.23091125,9.802444,19.223022,26.132202,-93.22662,0.030721117,-0.22981398,9.803909,-0.0003237594,0.0012845099,-0.00088977814,-9.1552734e-05,0.00010681152,-6.1035156e-05
2019-07-01T19:20:19.683Z,-0.009408207,-0.0071929726,0.4972591,0.03541565,-0.23091125,9.801483,19.993591,27.128601,-93.055725,0.03063088,-0.2302325,9.8039,-3.5073608e-06,-0.00070115924,-0.00074481964,-3.0517578e-05,-1.5258789e-05,7.6293945e-05
2019-07-01T19:20:19.891Z,-0.009395426,-0.007220125,0.49730164,0.030395508,-0.23091125,9.804108,19.67926,27.40326,-93.515015,0.03120622,-0.23028135,9.803896,0.0011012126,-0.00019066036,-0.0009756088,-3.0517578e-05,-6.1035156e-05,7.6293945e-05
2019-07-01T19:20:20.127Z,-0.0093786735,-0.0072815577,0.49741286,0.032073975,-0.2290039,9.802444,18.605042,25.154114,-94.5343,0.032385252,-0.23059963,9.803885,0.002070941,-0.0003248006,0.0017433167,9.1552734e-05,4.5776367e-05,0.00012207031
2019-07-01T19:20:20.321Z,-0.00938165,-0.0072198976,0.49728405,0.03326416,-0.2280426,9.801956,18.374634,25.509644,-95.28351,0.031341404,-0.23004413,9.803901,-0.001903668,0.0007854104,-0.0010690689,-9.1552734e-05,-1.5258789e-05,1.5258789e-05
2019-07-01T19:20:20.531Z,-0.009326052,-0.0072697764,0.4973223,0.032302856,-0.2328186,9.802444,18.241882,25.852966,-93.92395,0.03272226,-0.22958614,9.803908,0.0029421821,0.0012820214,-0.0005578995,-0.00015258789,-7.6293945e-05,0.0
2019-07-01T19:20:20.734Z,-0.009354431,-0.007246146,0.4973067,0.03302002,-0.22587585,9.804825,17.69867,26.405334,-94.31763,0.0320475,-0.2298379,9.803905,-0.001418747,-0.00086051226,0.0001039505,9.1552734e-05,0.00016784668,-4.5776367e-05
2019-07-01T19:20:20.937Z,-0.009329935,-0.00724607,0.49727616,0.029434204,-0.23114014,9.804108,18.003845,26.062012,-94.55109,0.032293256,-0.22941926,9.803913,0.00072819367,0.0013817698,0.0018339157,-0.00015258789,4.5776367e-05,7.6293945e-05
2019-07-01T19:20:21.142Z,-0.009394052,-0.007238447,0.4973393,0.034454346,-0.23138428,9.805069,17.027283,26.156616,-96.37909,0.03152134,-0.23043805,9.803892,-0.001123894,-0.0016775578,-0.00037193298,3.0517578e-05,4.5776367e-05,1.5258789e-05
2019-07-01T19:20:21.340Z,-0.009367322,-0.00728751,0.49741158,0.03302002,-0.22898865,9.802444,17.791748,25.108337,-95.643616,0.032597624,-0.23046452,9.803887,0.001856219,2.9847026e-05,0.0015029907,3.0517578e-05,-0.00018310547,6.1035156e-05
2019-07-01T19:20:21.541Z,-0.009324834,-0.0073246025,0.49743858,0.029678345,-0.22923279,9.8033905,19.00177,26.783752,-94.29321,0.03363605,-0.2301046,9.803892,0.0017809272,0.00086274743,-0.0010614395,-0.00015258789,0.00010681152,-4.5776367e-05
2019-07-01T19:20:21.745Z,-0.0093742525,-0.007270814,0.4973843,0.03565979,-0.23019409,9.805069,18.841553,26.771545,-94.062805,0.03225321,-0.23041856,9.80389,-0.0025732107,-3.1515956e-05,-0.00022506714,-0.00015258789,-1.5258789e-05,0.00012207031
2019-07-01T19:20:21.943Z,-0.0093580745,-0.007253552,0.49732715,0.03277588,-0.22851562,9.804352,18.370056,26.881409,-93.71948,0.032132532,-0.22997285,9.803901,-0.0003025867,0.0014564246,0.0009737015,-9.1552734e-05,4.5776367e-05,-4.5776367e-05
2019-07-01T19:20:22.149Z,-0.009326954,-0.0072534382,0.4972883,0.03302002,-0.22923279,9.805786,19.740295,26.972961,-93.67981,0.032444477,-0.22944087,9.803912,0.0008187853,0.0014046133,0.0006418228,-9.1552734e-05,-1.5258789e-05,0.00030517578
2019-07-01T19:20:22.351Z,-0.009312387,-0.007290559,0.49734998,0.034942627,-0.22947693,9.805786,19.488525,26.585388,-92.92145,0.033201806,-0.22955738,9.803906,0.0010056496,-0.000373587,0.0010681152,3.0517578e-05,-7.6293945e-05,0.0001373291
2019-07-01T19:20:22.552Z,-0.009292427,-0.0072855214,0.49731442,0.030151367,-0.22972107,9.800049,18.655396,26.25122,-94.31152,0.033320233,-0.22916736,9.803916,0.00018521026,0.0004272461,6.866455e-05,9.1552734e-05,-0.0001373291,1.5258789e-05
2019-07-01T19:20:22.762Z,-0.0093245795,-0.007285996,0.4973553,0.03302002,-0.23042297,9.8022,18.29834,25.42572,-94.46716,0.033003815,-0.22972052,9.803904,-0.0007009506,-0.00071775913,-0.001701355,-0.00015258789,0.00010681152,-0.00010681152
2019-07-01T19:20:22.962Z,-0.0093531925,-0.007266666,0.49734926,0.031585693,-0.23138428,9.8029175,18.513489,26.602173,-94.16046,0.0323974,-0.2300185,9.803898,-0.0008082576,-0.00042894483,-0.0020895004,-3.0517578e-05,4.5776367e-05,7.6293945e-05
2019-07-01T19:20:23.168Z,-0.009383205,-0.0072648935,0.4973827,0.03277588,-0.22994995,9.8029175,17.082214,25.427246,-95.70007,0.032065567,-0.23051305,9.803888,-0.0007211976,-0.00017429888,0.0003633499,-0.00015258789,-1.5258789e-05,-6.1035156e-05
2019-07-01T19:20:23.370Z,-0.009375341,-0.0073049637,0.49745902,0.031829834,-0.23162842,9.802444,18.460083,25.663757,-95.784,0.03280366,-0.23077297,9.803879,0.0011809207,-0.00016120076,-0.00023269653,3.0517578e-05,-7.6293945e-05,1.5258789e-05
2019-07-01T19:20:23.575Z,-0.009371612,-0.0072163017,0.49726388,0.03302002,-0.22994995,9.801956,18.551636,25.808716,-95.00275,0.031383485,-0.22983757,9.8039055,-0.0026630126,0.0010526776,-0.00016117096,9.1552734e-05,0.00010681152,-6.1035156e-05
2019-07-01T19:20:23.775Z,-0.009371384,-0.007323576,0.4974941,0.03062439,-0.22851562,9.804596,18.04657,27.011108,-94.43512,0.033149563,-0.23088858,9.803875,0.0034610517,-0.0017344207,-0.0007352829,-9.1552734e-05,-0.0001373291,1.5258789e-05
2019-07-01T19:20:23.975Z,-0.009393113,-0.0072311177,0.49732238,0.030395508,-0.22972107,9.800049,18.074036,25.846863,-94.4458,0.031410303,-0.23034996,9.803894,-0.0028136224,0.0014420301,0.0010938644,3.0517578e-05,4.5776367e-05,-6.1035156e-05
2019-07-01T19:20:24.177Z,-0.009417824,-0.0072749956,0.49744734,0.031829834,-0.23043823,9.8033905,17.927551,26.127625,-94.38324,0.031882413,-0.23120287,9.803872,0.00042221323,-0.0013996959,0.0019845963,-0.00015258789,-7.6293945e-05,-6.1035156e-05
2019-07-01T19:20:24.376Z,-0.009400264,-0.007259473,0.4973922,0.031829834,-0.22875977,9.805069,19.485474,26.58844,-93.37311,0.03180438,-0.23075072,9.803884,0.00049994513,0.001019001,0.0002040863,3.0517578e-05,0.00010681152,0.0001373291
2019-07-01T19:20:24.579Z,-0.009377236,-0.007227187,0.49729425,0.03086853,-0.2280426,9.804596,19.464111,26.074219,-92.94739,0.031505782,-0.23004049,9.803901,-0.00063698366,0.0015229285,0.00077819824,-3.0517578e-05,-0.0001373291,0.00024414062
2019-07-01T19:20:24.779Z,-0.00935072,-0.007208737,0.4972217,0.032058716,-0.23066711,9.8022,19.062805,28.018188,-93.515015,0.031469733,-0.22940685,9.803916,-0.00035758317,0.001139164,0.00051784515,3.0517578e-05,-1.5258789e-05,-4.5776367e-05
2019-07-01T19:20:24.979Z,-0.009347844,-0.0072542843,0.49731603,0.032546997,-0.22851562,9.801956,18.281555,26.72882,-93.748474,0.032247756,-0.22980554,9.803905,0.0010181554,-0.001118198,-0.0014162064,-3.0517578e-05,-7.6293945e-05,1.5258789e-05
2019-07-01T19:20:25.193Z,-0.00935594,-0.0072420775,0.49729982,0.031585693,-0.23091125,9.8029175,17.588806,25.665283,-93.785095,0.031965382,-0.22982362,9.803905,-0.0008494146,0.000811249,-0.00093746185,-9.1552734e-05,-7.6293945e-05,0.0001373291
2019-07-01T19:20:25.394Z,-0.009362651,-0.007239272,0.49730211,0.030395508,-0.2280426,9.801239,17.848206,26.274109,-94.87915,0.03185157,-0.22991054,9.803904,-0.0005075447,-0.0003014207,0.0004930496,-3.0517578e-05,4.5776367e-05,0.00012207031
2019-07-01T19:20:25.600Z,-0.009346282,-0.0072349175,0.49727246,0.03302002,-0.23138428,9.804108,17.1875,25.790405,-94.64722,0.031945027,-0.22958851,9.803911,0.00011877343,0.0005633086,-0.001584053,9.1552734e-05,-7.6293945e-05,-4.5776367e-05
2019-07-01T19:20:25.802Z,-0.009350999,-0.0072512445,0.4973134,0.03277588,-0.23066711,9.804352,17.64679,25.465393,-95.71533,0.032165952,-0.22982949,9.803905,0.00061282143,-0.0011024326,0.001329422,9.1552734e-05,4.5776367e-05,-0.00010681152
2019-07-01T19:20:26.002Z,-0.009351944,-0.007265116,0.49734437,0.032058716,-0.22875977,9.8033905,19.490051,27.114868,-95.60547,0.03238451,-0.22998199,9.8039,0.00016313419,-0.00021672249,0.0013656616,3.0517578e-05,-0.00018310547,0.00018310547
2019-07-01T19:20:26.207Z,-0.00934028,-0.00725731,0.49731314,0.031829834,-0.22898865,9.802673,18.336487,26.379395,-95.03021,0.032373782,-0.22970627,9.803906,-0.0005416125,0.00092992187,-0.000998497,-3.0517578e-05,-1.5258789e-05,0.00018310547
2019-07-01T19:20:26.411Z,-0.009333025,-0.0072427588,0.49727288,0.032302856,-0.23042297,9.802673,18.774414,27.05841,-94.30542,0.03220764,-0.22943944,9.803913,-0.0003751628,0.00018778443,-0.00018978119,-3.0517578e-05,-7.6293945e-05,1.5258789e-05
2019-07-01T19:20:26.613Z,-0.009352734,-0.007286995,0.4973924,0.03277588,-0.23043823,9.801956,18.952942,27.359009,-93.722534,0.03273629,-0.23021063,9.803893,0.0007593259,-0.0011917353,3.9100647e-05,-9.1552734e-05,4.5776367e-05,7.6293945e-05
2019-07-01T19:20:26.815Z,-0.009355258,-0.007247264,0.49731013,0.032302856,-0.22923279,9.801956,18.36853,26.730347,-92.76886,0.032057542,-0.22986299,9.803904,-0.00071216375,0.0008316636,-0.00077724457,3.0517578e-05,-1.5258789e-05,1.5258789e-05
2019-07-01T19:20:27.011Z,-0.0093337465,-0.00726961,0.49733147,0.032546997,-0.23162842,9.805786,18.055725,26.852417,-92.50488,0.032641932,-0.22971576,9.8039055,0.00087219104,-3.1009316e-05,-0.0011615753,9.1552734e-05,-1.5258789e-05,1.5258789e-05
2019-07-01T19:20:27.216Z,-0.009361098,-0.0072804666,0.49738872,0.03277588,-0.23066711,9.801712,18.24646,26.152039,-94.92035,0.0325446,-0.23028909,9.803892,-0.00024130568,-0.00086940825,0.0032157898,-3.0517578e-05,0.00010681152,-4.5776367e-05
2019-07-01T19:20:27.420Z,-0.00937629,-0.0072571817,0.49735755,0.031585693,-0.22923279,9.804596,17.921448,26.133728,-95.288086,0.032008506,-0.23031928,9.803893,-0.0006640591,-0.00061281025,-0.0015230179,3.0517578e-05,-1.5258789e-05,0.00018310547
2019-07-01T19:20:27.624Z,-0.009364959,-0.0072764666,0.4973849,0.032302856,-0.23187256,9.803635,18.553162,25.88501,-95.288086,0.03243988,-0.23031563,9.803892,0.00058186054,0.00010932982,0.0007352829,-3.0517578e-05,-7.6293945e-05,6.1035156e-05
2019-07-01T19:20:27.830Z,-0.009349559,-0.007278251,0.49736965,0.03277588,-0.22732544,9.8033905,18.023682,24.98169,-96.0556,0.032624535,-0.23007049,9.803897,-0.00032128394,0.00059078634,0.0008172989,3.0517578e-05,0.0,0.00018310547
2019-07-01T19:20:28.030Z,-0.009335474,-0.007254505,0.49730116,0.029907227,-0.23019409,9.801712,18.478394,26.026917,-95.259094,0.032376114,-0.22959669,9.803908,0.00017173961,0.0010749996,-0.00025844574,-9.1552734e-05,-1.5258789e-05,7.6293945e-05
2019-07-01T19:20:28.231Z,-0.009396357,-0.007248042,0.4973628,0.03302002,-0.23258972,9.803162,18.922424,26.779175,-94.21539,0.03165584,-0.2305717,9.803888,-0.0019738562,-0.0015562326,-0.0017662048,-3.0517578e-05,-0.0001373291,0.0001373291
2019-07-01T19:20:28.438Z,-0.009373184,-0.0072721485,0.49738586,0.034698486,-0.22660828,9.8022,20.124817,26.71051,-94.27948,0.032285925,-0.23041347,9.80389,0.0012256503,0.00019600987,0.00026607513,3.0517578e-05,-1.5258789e-05,0.00024414062
2019-07-01T19:20:28.642Z,-0.009296761,-0.007289578,0.4973285,0.031585693,-0.22851562,9.800049,19.670105,27.107239,-93.04657,0.033343248,-0.22928119,9.803913,0.0016041733,0.0026399344,-0.0007753372,-0.00015258789,-6.1035156e-05,0.00024414062
2019-07-01T19:20:28.845Z,-0.009343147,-0.0072306585,0.4972594,0.029434204,-0.2290039,9.804596,18.21289,27.018738,-93.91174,0.031906594,-0.22949316,9.803913,-0.0022367723,-0.00027635694,-0.0013208389,3.0517578e-05,0.00016784668,-6.1035156e-05
2019-07-01T19:20:29.049Z,-0.00935355,-0.007207448,0.49722242,0.034225464,-0.22732544,9.800293,18.597412,26.83258,-94.947815,0.03142,-0.22944245,9.803915,-0.0005475022,0.00018069148,0.0016736984,-3.0517578e-05,0.00010681152,1.5258789e-05
2019-07-01T19:20:29.252Z,-0.009314125,-0.0072027296,0.49716341,0.03086853,-0.22970581,9.800278,17.83905,25.901794,-94.04907,0.03173982,-0.22872354,9.803931,0.0008138083,0.0015944391,-0.0015897751,-3.0517578e-05,-7.6293945e-05,7.6293945e-05
2019-07-01T19:20:29.454Z,-0.009315633,-0.0073131896,0.49740264,0.037322998,-0.2349701,9.803635,18.133545,25.187683,-93.45093,0.033541195,-0.22983538,9.803899,0.0026003532,-0.0020817816,-0.0010681152,9.1552734e-05,-0.00018310547,-4.5776367e-05
2019-07-01T19:20:29.655Z,-0.00936744,-0.0072810757,0.4973979,0.029190063,-0.22683716,9.801239,17.662048,25.602722,-94.63043,0.03249064,-0.23040326,9.803889,-0.0018598475,-0.0019877255,0.001203537,9.1552734e-05,6.1035156e-05,1.5258789e-05
2019-07-01T19:20:29.859Z,-0.009310908,-0.0072396095,0.49723867,0.033493042,-0.22851562,9.803162,17.83905,26.054382,-94.99817,0.03237884,-0.22903116,9.803922,-6.9223344e-05,0.0028633326,-0.00016307831,-9.1552734e-05,0.00010681152,-0.00022888184
2019-07-01T19:20:30.059Z,-0.009325044,-0.0072429082,0.49726328,0.033493042,-0.23091125,9.800766,17.297363,26.605225,-95.3186,0.03229057,-0.22930473,9.803915,0.00026174262,-0.00020994246,0.00086021423,9.1552734e-05,0.00010681152,0.00030517578
2019-07-01T19:20:30.264Z,-0.009315479,-0.0072968416,0.49736732,0.034454346,-0.23138428,9.803162,17.852783,26.271057,-94.3512,0.03327394,-0.22967193,9.803904,0.0021491386,-0.0015194863,-0.0011930466,3.0517578e-05,-7.6293945e-05,0.0001373291
2019-07-01T19:20:30.467Z,-0.009348408,-0.0073178085,0.4974532,0.031829834,-0.22923279,9.8033905,18.591309,26.609802,-94.46411,0.03328654,-0.23043992,9.803885,-0.00026184693,-0.001220867,0.0015983582,-9.1552734e-05,-1.5258789e-05,0.00019836426
2019-07-01T19:20:30.680Z,-0.009342886,-0.0072679752,0.49733928,0.03086853,-0.22875977,9.802673,18.492126,26.242065,-94.76166,0.032522876,-0.2298556,9.803903,-0.00021472946,0.00082956254,-0.0008239746,-0.00015258789,4.5776367e-05,-0.00010681152
2019-07-01T19:20:30.882Z,-0.009342604,-0.0072353696,0.4972689,0.034454346,-0.22970581,9.802444,19.769287,26.034546,-94.77997,0.031989545,-0.22953022,9.803912,-0.001116693,0.0012277216,0.00057411194,-0.00015258789,4.5776367e-05,7.6293945e-05
2019-07-01T19:20:31.192Z,-0.009332632,-0.007280843,0.4973542,0.033981323,-0.23043823,9.803162,18.321228,27.604675,-93.418884,0.032837883,-0.22980718,9.803902,0.00186624,-0.00065521896,-0.00073719025,9.1552734e-05,0.00016784668,-0.00016784668
2019-07-01T19:20:31.325Z,-0.009329518,-0.007287695,0.4973651,0.03277588,-0.2290039,9.804352,19.134521,27.731323,-93.04962,0.032981943,-0.22982147,9.803901,0.00028656423,7.0124865e-05,0.00078105927,-3.0517578e-05,-0.0001373291,7.6293945e-05
2019-07-01T19:20:31.532Z,-0.009327428,-0.007283527,0.49735352,0.032302856,-0.23138428,9.805313,18.103027,26.428223,-93.951416,0.03293449,-0.22974484,9.803904,0.0003323406,0.00024928153,0.0009994507,9.1552734e-05,0.00010681152,7.6293945e-05
2019-07-01T19:20:31.735Z,-0.009361793,-0.0072739357,0.49737555,0.03086853,-0.23187256,9.804825,17.228699,26.58844,-93.88275,0.032430198,-0.23023671,9.803893,-0.0006007217,-0.0011450201,0.0017843246,-3.0517578e-05,0.00010681152,-0.00022888184
2019-07-01T19:20:31.936Z,-0.009384419,-0.0072532287,0.49735913,0.033493042,-0.23210144,9.801956,17.700195,26.254272,-93.44177,0.031861536,-0.23041905,9.803891,-0.0005210079,-0.0012019575,0.00038909912,0.00015258789,0.00016784668,-0.00022888184
2019-07-01T19:20:32.140Z,-0.00941084,-0.0072946255,0.49748087,0.03277588,-0.23114014,9.802429,17.781067,24.96643,-96.20056,0.03227556,-0.23127684,9.80387,0.0012190863,-0.0017974079,-0.0016546249,3.0517578e-05,4.5776367e-05,-0.000289917
2019-07-01T19:20:32.339Z,-0.009376854,-0.007314571,0.49748155,0.031829834,-0.23187256,9.803635,17.901611,25.77362,-95.66193,0.03294635,-0.23089331,9.803877,0.0007938035,-3.8728118e-05,-0.00079345703,0.0002746582,-6.1035156e-05,6.1035156e-05
2019-07-01T19:20:32.544Z,-0.009398193,-0.0072820564,0.49743816,0.033737183,-0.22947693,9.801727,18.069458,25.778198,-94.98901,0.032196533,-0.23093748,9.803878,-0.00085305795,-0.0004605949,0.0005865097,-3.0517578e-05,0.00010681152,-0.00018310547
2019-07-01T19:20:32.749Z,-0.00936937,-0.0072872983,0.49741367,0.032302856,-0.22898865,9.804108,18.563843,26.026917,-94.581604,0.032573484,-0.23049736,9.803886,0.0006936006,0.0012438744,-0.00056266785,3.0517578e-05,-1.5258789e-05,-4.5776367e-05
2019-07-01T19:20:32.952Z,-0.00935478,-0.007274345,0.49736774,0.03326416,-0.23114014,9.8029175,19.502258,27.256775,-94.82269,0.032507658,-0.23012112,9.803896,0.0002709888,0.00039573014,0.0001001358,0.00015258789,0.00022888184,-4.5776367e-05
2019-07-01T19:20:33.156Z,-0.0093687605,-0.007289834,0.49741837,0.03277588,-0.23210144,9.805313,19.456482,26.081848,-94.003296,0.03262131,-0.23051193,9.803886,0.0006454736,-0.0011350214,6.389618e-05,-3.0517578e-05,-1.5258789e-05,7.6293945e-05
2019-07-01T19:20:33.353Z,-0.009399074,-0.0072933096,0.49746343,0.031341553,-0.23066711,9.803162,19.328308,26.802063,-94.00177,0.032372642,-0.23106317,9.803874,-0.00054319575,-0.00079135597,0.0017948151,-9.1552734e-05,-1.5258789e-05,0.00024414062
2019-07-01T19:20:33.561Z,-0.009410803,-0.007353801,0.49760795,0.037094116,-0.23162842,9.805313,19.05365,27.6474,-92.533875,0.0332486,-0.23185837,9.803853,0.0016953126,-0.001213342,-0.0010290146,3.0517578e-05,4.5776367e-05,-4.5776367e-05
2019-07-01T19:20:33.763Z,-0.009364013,-0.007341074,0.49752256,0.032058716,-0.23091125,9.804123,18.875122,27.500916,-93.91632,0.033511586,-0.23093499,9.803873,0.0014300384,0.0014649779,0.0013751984,-3.0517578e-05,0.00024414062,0.00012207031
2019-07-01T19:20:33.963Z,-0.009396661,-0.007229909,0.4973242,0.026794434,-0.22755432,9.801712,18.501282,26.234436,-93.55621,0.031354632,-0.23039861,9.803893,-0.0036002211,0.0014197081,0.00028800964,-9.1552734e-05,0.00012207031,0.0001373291
2019-07-01T19:20:34.170Z,-0.009382356,-0.0072128363,0.49726975,0.037322998,-0.2359314,9.801727,17.756653,25.897217,-94.19861,0.03121818,-0.22998679,9.803904,-0.00034793466,0.0009855032,-0.0018815994,-9.1552734e-05,0.00010681152,-0.00022888184
2019-07-01T19:20:34.371Z,-0.00938781,-0.007336674,0.49754262,0.030151367,-0.22875977,9.8033905,18.421936,26.454163,-94.63806,0.033199143,-0.23129764,9.803866,0.004126601,-0.0022572428,-0.00061130524,-9.1552734e-05,-1.5258789e-05,1.5258789e-05
2019-07-01T19:20:34.569Z,-0.00939415,-0.007187927,0.49723083,0.030395508,-0.22898865,9.802673,18.417358,26.45874,-95.24078,0.03068964,-0.22994317,9.803906,-0.004121037,0.0023659915,-0.00025844574,9.1552734e-05,0.00010681152,0.0001373291
2019-07-01T19:20:34.777Z,-0.009388222,-0.0072524357,0.49736214,0.031341553,-0.22636414,9.8033905,18.040466,26.940918,-94.7525,0.03181014,-0.23047614,9.80389,0.0019306801,-0.0011786073,-0.00032520294,9.1552734e-05,-1.5258789e-05,-4.5776367e-05
2019-07-01T19:20:34.978Z,-0.009340938,-0.00721508,0.4972232,0.03326416,-0.22994995,9.801956,17.964172,25.184631,-94.65332,0.031672664,-0.22930233,9.803918,-0.00032910705,0.0022065341,0.0010538101,9.1552734e-05,-1.5258789e-05,1.5258789e-05
2019-07-01T19:20:35.181Z,-0.009331984,-0.0072429636,0.497272,0.033981323,-0.22827148,9.804108,18.736267,26.486206,-95.85419,0.0322215,-0.22942372,9.803914,0.000574179,-0.0005585551,-0.001537323,-3.0517578e-05,-0.0001373291,-4.5776367e-05
2019-07-01T19:20:35.386Z,-0.009322111,-0.0072495528,0.49727395,0.03326416,-0.22994995,9.805069,19.859314,26.338196,-95.17517,0.032429416,-0.22932002,9.803914,0.00059424713,0.0007786304,0.00057697296,-9.1552734e-05,0.00010681152,7.6293945e-05
2019-07-01T19:20:35.590Z,-0.0093420865,-0.0072522135,0.49730444,0.0335083,-0.22947693,9.806503,19.613647,25.942993,-93.73474,0.03227176,-0.22968698,9.803907,0.0019551963,-0.0021962076,0.00042533875,-3.0517578e-05,-6.1035156e-05,-4.5776367e-05
2019-07-01T19:20:35.793Z,-0.009353477,-0.0072271405,0.49726468,0.032073975,-0.23306274,9.801956,18.518066,26.597595,-93.48297,0.03174459,-0.22963475,9.803909,-0.00040512532,-0.00030007958,0.0021924973,-3.0517578e-05,0.00018310547,-4.5776367e-05
2019-07-01T19:20:36.002Z,-0.00931471,-0.0073747206,0.49753368,0.037094116,-0.23019409,9.804825,18.005371,26.060486,-94.32373,0.034562167,-0.23042509,9.803882,0.005644303,-0.0012003928,-0.0010890961,-0.00015258789,-6.1035156e-05,0.0001373291
2019-07-01T19:20:36.201Z,-0.009397229,-0.0073407385,0.49756303,0.03086853,-0.23425293,9.803146,18.351746,24.998474,-95.536804,0.03317089,-0.23149829,9.803861,-0.0025468245,-0.0010891855,-7.724762e-05,-9.1552734e-05,0.00022888184,-6.1035156e-05
2019-07-01T19:20:36.400Z,-0.009410794,-0.007294369,0.49748024,0.032302856,-0.23091125,9.803162,17.271423,25.942993,-94.77234,0.03227182,-0.23127349,9.803869,-0.0011583082,0.00011207163,-0.00069618225,3.0517578e-05,0.00010681152,1.5258789e-05
2019-07-01T19:20:36.662Z,-0.009401816,-0.007334477,0.4975553,0.035888672,-0.2328186,9.8033905,17.167664,25.505066,-95.462036,0.033021685,-0.23151493,9.803862,0.0016775988,-0.00083626807,1.04904175e-05,9.1552734e-05,-7.6293945e-05,-0.00016784668
2019-07-01T19:20:36.860Z,-0.009364588,-0.007439406,0.49773446,0.033737183,-0.2290039,9.80101,18.032837,26.794434,-94.781494,0.035122015,-0.23191276,9.803844,0.0036513507,-0.00068211555,8.583069e-06,3.0517578e-05,-7.6293945e-05,1.5258789e-05
2019-07-01T19:20:37.070Z,-0.009394373,-0.007256125,0.4973777,0.031585693,-0.23114014,9.806503,18.29834,25.72937,-96.21735,0.031808756,-0.23061734,9.803887,-0.0064436756,0.002538681,-0.0025491714,3.0517578e-05,6.1035156e-05,6.1035156e-05
2019-07-01T19:20:37.267Z,-0.00937565,-0.007307943,0.49746582,0.033493042,-0.22994995,9.803162,18.811035,26.115417,-94.57245,0.03284953,-0.23080757,9.803879,0.0020930283,-0.0010492653,0.003077507,0.00015258789,-1.5258789e-05,1.5258789e-05
2019-07-01T19:20:37.471Z,-0.009334299,-0.0073307003,0.4974634,0.029434204,-0.23091125,9.804596,18.986511,26.341248,-93.777466,0.03364083,-0.23032607,9.803887,0.0015306436,0.00037635863,-1.8119812e-05,9.1552734e-05,-1.5258789e-05,0.0001373291
2019-07-01T19:20:37.674Z,-0.009408579,-0.0072338027,0.49734735,0.033493042,-0.23162842,9.804108,19.041443,27.507019,-93.392944,0.03129846,-0.23064016,9.803887,-0.004977297,-0.0005134046,0.00014209747,-9.1552734e-05,6.1035156e-05,1.5258789e-05
2019-07-01T19:20:37.878Z,-0.009393047,-0.0073706955,0.49762222,0.035888672,-0.23043823,9.804108,19.02008,26.99585,-93.34564,0.033705495,-0.23172174,9.803854,0.004822124,-0.0020525008,0.00025844574,3.0517578e-05,-6.1035156e-05,0.00019836426
2019-07-01T19:20:38.074Z,-0.00935264,-0.0073608314,0.49755087,0.03326416,-0.23258972,9.804596,17.939758,26.345825,-94.036865,0.033951126,-0.23093544,9.803872,0.0002738163,0.0014620572,-0.00014400482,-3.0517578e-05,-0.00018310547,7.6293945e-05
2019-07-01T19:20:38.278Z,-0.0093787545,-0.00733447,0.49752665,0.03111267,-0.22851562,9.800278,18.36853,26.730347,-92.76886,0.033254288,-0.2311215,9.80387,-0.0016697496,-2.5868416e-05,0.00038528442,-3.0517578e-05,4.5776367e-05,0.00024414062
2019-07-01T19:20:38.477Z,-0.009360652,-0.0073006204,0.4974315,0.03326416,-0.23234558,9.803635,17.80243,26.997375,-94.8822,0.032880444,-0.23047969,9.803885,-0.00057455525,0.0012256503,-0.0024604797,3.0517578e-05,0.00010681152,-4.5776367e-05
2019-07-01T19:20:38.698Z,-0.00938231,-0.007322916,0.49750626,0.028717041,-0.22779846,9.801483,17.718506,25.172424,-95.173645,0.033028472,-0.23106848,9.803872,0.00071150437,-0.0012966394,0.000118255615,9.1552734e-05,-7.6293945e-05,6.1035156e-05
2019-07-01T19:20:38.881Z,-0.0093555385,-0.00728865,0.49739942,0.038528442,-0.23257446,9.803635,18.54248,25.971985,-97.15881,0.032735214,-0.23027474,9.803891,-0.0013738386,0.0012539923,-0.001042366,-3.0517578e-05,-1.5258789e-05,-0.00016784668
2019-07-01T19:20:39.085Z,-0.0093790265,-0.007377869,0.49762022,0.032546997,-0.2337799,9.8033905,17.956543,25.19226,-95.55817,0.033964902,-0.23155323,9.803858,0.0028870404,-0.0022401065,0.0015354156,9.1552734e-05,0.0,0.00012207031
2019-07-01T19:20:39.296Z,-0.009401195,-0.0072661876,0.4974078,0.028717041,-0.23162842,9.802444,18.330383,26.383972,-95.7077,0.03190538,-0.23083264,9.803882,-0.0031860434,0.0001489371,-0.0002593994,0.0002746582,0.000289917,1.5258789e-05
2019-07-01T19:20:39.497Z,-0.009436866,-0.007244174,0.49740472,0.029434204,-0.22827148,9.800766,18.888855,25.97351,-94.15283,0.031183632,-0.2312246,9.803874,-0.0015022904,-0.00065492094,-0.00048732758,-3.0517578e-05,4.5776367e-05,-0.00016784668
2019-07-01T19:20:39.703Z,-0.009415541,-0.0072365743,0.49736193,0.036132812,-0.23187256,9.805786,18.493652,26.316833,-94.89746,0.031273812,-0.23078616,9.8038845,0.0010343865,0.0010256916,-0.0014438629,3.0517578e-05,6.1035156e-05,-0.00010681152
2019-07-01T19:20:39.900Z,-0.009392823,-0.007316226,0.49750492,0.032546997,-0.23353577,9.805069,19.700623,26.248169,-94.732666,0.03281244,-0.23118198,9.80387,0.0028497018,-0.0014243275,0.0019016266,9.1552734e-05,-1.5258789e-05,0.0001373291
2019-07-01T19:20:40.102Z,-0.009420884,-0.0072857453,0.49747425,0.034454346,-0.23162842,9.805069,20.7016,26.73645,-92.7887,0.032028258,-0.23136078,9.803868,-0.0009156428,-0.0007402599,0.0014276505,3.0517578e-05,0.00016784668,-4.5776367e-05
2019-07-01T19:20:40.300Z,-0.009374598,-0.0073251314,0.49750143,0.034454346,-0.23306274,9.801956,19.432068,27.319336,-93.826294,0.033142705,-0.23095872,9.803874,0.00059348345,0.0007715374,-6.0081482e-05,-3.0517578e-05,4.5776367e-05,0.0001373291
2019-07-01T19:20:40.515Z,-0.009390601,-0.0073578814,0.49759164,0.03111267,-0.2311554,9.802429,17.93518,26.121521,-93.47839,0.03351956,-0.23155393,9.803859,0.0009362623,-0.0008018315,-0.0014715195,9.1552734e-05,-7.6293945e-05,0.00012207031
2019-07-01T19:20:40.768Z,-0.00940457,-0.0073413514,0.49757347,0.03302002,-0.23066711,9.8022,18.057251,25.405884,-94.08264,0.033106897,-0.23162954,9.803859,-0.0017627589,-1.6972423e-05,-0.0006637573,-9.1552734e-05,-0.0001373291,1.5258789e-05
2019-07-01T19:20:40.965Z,-0.009412048,-0.0072776605,0.4974459,0.032073975,-0.22779846,9.801956,17.89093,25.170898,-93.51959,0.03198449,-0.23113056,9.803873,-0.0020721778,0.0013879985,-0.0015487671,-3.0517578e-05,0.00016784668,-0.00010681152
2019-07-01T19:20:41.166Z,-0.009347168,-0.0072979727,0.49740908,0.03302002,-0.22947693,9.804825,17.658997,25.605774,-95.15839,0.032972928,-0.23022366,9.803892,0.0022026747,0.0016794354,0.0007162094,3.0517578e-05,-0.0001373291,-4.5776367e-05
2019-07-01T19:20:41.369Z,-0.009331241,-0.007271076,0.4973315,0.032546997,-0.23091125,9.805313,17.570496,25.531006,-95.47424,0.032691296,-0.22968744,9.8039055,-0.00038673356,0.0006868243,0.0014305115,-3.0517578e-05,-1.5258789e-05,-4.5776367e-05
2019-07-01T19:20:41.572Z,-0.009349325,-0.0072756954,0.49736387,0.036376953,-0.23091125,9.804825,18.315125,25.8667,-94.90662,0.03258488,-0.23004133,9.803897,-0.00028247386,-0.0006226152,0.0012807846,3.0517578e-05,4.5776367e-05,-0.00016784668
2019-07-01T19:20:41.773Z,-0.0093331365,-0.007304943,0.49740663,0.02822876,-0.22827148,9.805313,18.771362,27.061462,-94.68231,0.033229068,-0.23005284,9.803895,0.0012249835,-0.00013920665,-0.000102996826,-3.0517578e-05,-7.6293945e-05,-0.00010681152
2019-07-01T19:20:41.980Z,-0.009355488,-0.007233133,0.49728006,0.030395508,-0.22947693,9.805313,18.487549,26.168823,-94.92798,0.031822853,-0.22972798,9.803907,-0.002878867,0.00026504695,0.0010375977,3.0517578e-05,-1.5258789e-05,7.6293945e-05
2019-07-01T19:20:42.179Z,-0.009368829,-0.0072520943,0.49733734,0.036605835,-0.22755432,9.805786,19.624329,26.161194,-93.61572,0.03200011,-0.23014197,9.803897,0.00029965118,-0.00025874376,0.00069618225,9.1552734e-05,6.1035156e-05,-4.5776367e-05
2019-07-01T19:20:42.384Z,-0.009302103,-0.007300247,0.49735805,0.0335083,-0.23306274,9.801483,18.304443,27.31781,-94.15588,0.033464827,-0.22947724,9.803907,0.002908934,0.0007393807,-1.8119812e-05,-3.0517578e-05,-6.1035156e-05,-0.000289917
2019-07-01T19:20:42.587Z,-0.009335693,-0.007328067,0.49745947,0.03302002,-0.23043823,9.8029175,18.77594,26.902771,-93.05115,0.033583466,-0.23032394,9.803887,0.00039760768,-0.0013027638,-0.0017595291,3.0517578e-05,0.00016784668,-0.00010681152
2019-07-01T19:20:42.785Z,-0.0093357265,-0.0072791777,0.49735448,0.032302856,-0.22898865,9.801483,19.296265,25.993347,-93.48602,0.03277929,-0.22984362,9.803902,-0.0014373027,0.0008518994,-0.00038051605,-3.0517578e-05,4.5776367e-05,-4.5776367e-05
2019-07-01T19:20:42.988Z,-0.009330185,-0.007355054,0.4975106,0.033981323,-0.23210144,9.801483,18.145752,25.787354,-95.217896,0.03408271,-0.23049553,9.803882,0.002526451,-0.0009112656,-0.0016851425,-9.1552734e-05,6.1035156e-05,-0.00016784668
2019-07-01T19:20:43.194Z,-0.009404817,-0.0072535556,0.49738514,0.029678345,-0.22898865,9.804825,17.167664,25.352478,-94.810486,0.03166116,-0.2307702,9.803884,-0.0041446537,-0.00040574372,-0.0011234283,-9.1552734e-05,6.1035156e-05,1.5258789e-05
2019-07-01T19:20:43.399Z,-0.009365048,-0.0072239125,0.49727207,0.03277588,-0.22923279,9.806259,18.655396,26.402283,-95.18738,0.031574834,-0.22980042,9.803906,1.1652708e-05,0.0019961745,0.0025987625,9.1552734e-05,0.00010681152,-0.00010681152
2019-07-01T19:20:43.604Z,-0.009348814,-0.0072442847,0.49729574,0.03086853,-0.23138428,9.801483,18.675232,25.09613,-95.75806,0.032073528,-0.22972377,9.803906,0.0014187582,-0.00069379807,0.0009317398,9.1552734e-05,0.00010681152,0.00018310547
2019-07-01T19:20:43.808Z,-0.009354077,-0.00729731,0.4974162,0.037094116,-0.23066711,9.801727,19.438171,25.796509,-94.96765,0.032892346,-0.230335,9.80389,0.001563888,-0.00083363056,-0.0016145706,-9.1552734e-05,-7.6293945e-05,-0.00022888184
2019-07-01T19:20:44.011Z,-0.009344202,-0.007202453,0.4972001,0.027999878,-0.22994995,9.803635,19.412231,26.879883,-93.914795,0.0314321,-0.22923388,9.80392,-0.0027106963,0.0016477406,-0.0015497208,0.00015258789,6.1035156e-05,-0.00016784668
2019-07-01T19:20:44.213Z,-0.009382699,-0.00724373,0.49733657,0.03326416,-0.23162842,9.80484,18.99414,26.48468,-93.59894,0.031722706,-0.23029634,9.803895,0.00058203936,-0.0015746802,0.0015144348,-3.0517578e-05,6.1035156e-05,1.5258789e-05
2019-07-01T19:20:44.416Z,-0.009395013,-0.0073117726,0.49749807,0.034225464,-0.23210144,9.803879,19.69757,27.69165,-92.77954,0.032717127,-0.23117551,9.80387,0.0022109337,-0.002365172,0.00068950653,3.0517578e-05,4.5776367e-05,-6.1035156e-05
2019-07-01T19:20:44.622Z,-0.009384202,-0.0073418566,0.4975493,0.03326416,-0.23091125,9.801956,19.244385,26.644897,-93.351746,0.03332074,-0.2312871,9.803866,0.0016231574,0.00013814867,-0.000330925,-9.1552734e-05,4.5776367e-05,-0.00016784668
2019-07-01T19:20:44.820Z,-0.009399374,-0.007307969,0.4974953,0.03062439,-0.22923279,9.802444,18.43872,26.437378,-92.22565,0.0326106,-0.2312125,9.80387,-0.0010222048,0.00075511634,-0.0008573532,-9.1552734e-05,4.5776367e-05,-6.1035156e-05
2019-07-01T19:20:45.082Z,-0.009395204,-0.0072758854,0.4974212,0.03326416,-0.23043823,9.804596,18.136597,25.186157,-93.2251,0.03212525,-0.2308258,9.803881,-0.0005367696,0.001099959,0.0003604889,-9.1552734e-05,4.5776367e-05,0.00018310547
2019-07-01T19:20:45.275Z,-0.009386188,-0.0072649806,0.49738657,0.031585693,-0.23162842,9.800278,17.547607,26.23291,-92.00592,0.032036908,-0.23056479,9.803887,2.2388995e-05,0.0006106347,0.0013599396,3.0517578e-05,-1.5258789e-05,-4.5776367e-05
2019-07-01T19:20:45.477Z,-0.009400588,-0.007266586,0.49740788,0.0284729,-0.22875977,9.804825,17.652893,25.610352,-95.83588,0.031918045,-0.23082621,9.803882,-8.393079e-05,-0.000589028,-0.0022888184,-3.0517578e-05,0.00010681152,1.5258789e-05
2019-07-01T19:20:45.684Z,-0.009399119,-0.007225939,0.4973187,0.03326416,-0.22923279,9.801956,17.819214,25.616455,-95.162964,0.031264573,-0.2304015,9.803893,-0.0011123978,0.0009186119,0.002146721,3.0517578e-05,0.0,0.00012207031
2019-07-01T19:20:45.881Z,-0.009362132,-0.0072729797,0.4973739,0.03111267,-0.23138428,9.801483,19.470215,26.449585,-94.306946,0.03241106,-0.23023312,9.803894,0.0020472966,0.0004988164,-0.0019140244,-3.0517578e-05,-7.6293945e-05,-0.000289917
2019-07-01T19:20:46.090Z,-0.009404786,-0.0072109806,0.4972936,0.033737183,-0.22994995,9.803162,19.216919,26.293945,-95.23468,0.030961478,-0.23035112,9.803895,-0.0034455378,-0.00034829974,-0.00032043457,-3.0517578e-05,-7.6293945e-05,-0.00010681152
2019-07-01T19:20:46.289Z,-0.009332022,-0.0072954404,0.49738485,0.03517151,-0.23187256,9.802444,18.585205,26.463318,-94.26575,0.033084057,-0.22994035,9.803898,0.004013464,0.0011569113,0.0007457733,9.1552734e-05,-0.00018310547,0.0001373291
2019-07-01T19:20:46.498Z,-0.009358773,-0.007311456,0.49745244,0.0335083,-0.23162842,9.8029175,18.63556,25.813293,-94.40155,0.03307754,-0.23055422,9.803884,-5.3931028e-05,-0.0015722364,-0.00014591217,-9.1552734e-05,0.00010681152,0.0002593994
2019-07-01T19:20:46.690Z,-0.009353948,-0.0073039993,0.4974304,0.031829834,-0.23019409,9.803162,18.771362,26.911926,-93.95599,0.033003625,-0.2303986,9.803888,0.00026430562,0.00066645443,-9.441376e-05,-9.1552734e-05,0.00016784668,-0.00010681152
2019-07-01T19:20:46.895Z,-0.009398534,-0.007240452,0.49734917,0.031341553,-0.22923279,9.804352,18.704224,27.11792,-93.08014,0.03150909,-0.2305342,9.803889,-0.0027888678,-0.00015620887,0.0002632141,3.0517578e-05,4.5776367e-05,0.00036621094
2019-07-01T19:20:47.104Z,-0.009371817,-0.0073764203,0.49760816,0.03565979,-0.23162842,9.805542,18.580627,26.239014,-93.707275,0.03401385,-0.23141599,9.803861,0.0049901158,-0.0011907518,0.00049495697,-9.1552734e-05,6.1035156e-05,-0.0004119873
2019-07-01T19:20:47.307Z,-0.009376043,-0.0073299133,0.4975135,0.031585693,-0.23042297,9.803635,19.11621,25.466919,-92.97943,0.03320673,-0.23103042,9.803872,-0.0004316494,0.00036884844,0.0019226074,-3.0517578e-05,0.00010681152,0.0
2019-07-01T19:20:47.509Z,-0.009389682,-0.0072582974,0.49737653,0.029434204,-0.22660828,9.802673,18.23883,26.00708,-94.94934,0.031891786,-0.23055865,9.803887,-0.0024567358,0.0013197362,-0.0009536743,-9.1552734e-05,0.00010681152,-0.00018310547
2019-07-01T19:20:47.707Z,-0.009345065,-0.0072214985,0.49724212,0.036132812,-0.22972107,9.804596,19.296265,26.220703,-94.64722,0.031736623,-0.2294358,9.803914,-0.00039464608,0.0028244406,0.00032520294,-9.1552734e-05,-6.1035156e-05,-0.00022888184
2019-07-01T19:20:47.910Z,-0.009334612,-0.0073093735,0.497418,0.033981323,-0.23402405,9.803635,18.891907,26.426697,-96.24939,0.03328703,-0.23012158,9.803893,0.002845794,-0.001262784,0.00021839142,-9.1552734e-05,-0.00012207031,-0.00018310547
2019-07-01T19:20:48.117Z,-0.009381468,-0.0073394733,0.49754077,0.03326416,-0.22970581,9.8033905,18.560791,26.335144,-96.70715,0.033309147,-0.23121701,9.803867,0.00019938499,-0.0016031861,-0.00016498566,9.1552734e-05,4.5776367e-05,-0.00010681152
2019-07-01T19:20:48.351Z,-0.009351977,-0.00731185,0.49744484,0.03326416,-0.23066711,9.804352,18.399048,25.942993,-94.74182,0.033152573,-0.2304422,9.803886,-0.0003762357,0.00073321164,-0.00011634827,3.0517578e-05,0.00016784668,-0.00016784668
2019-07-01T19:20:48.523Z,-0.009352562,-0.007306207,0.49743345,0.03277588,-0.23043823,9.804825,19.132996,26.367188,-95.817566,0.0330539,-0.23039664,9.803887,-3.382191e-05,0.00020211935,0.00023841858,-3.0517578e-05,-1.5258789e-05,-0.00018310547
2019-07-01T19:20:48.725Z,-0.009355029,-0.0072988016,0.49742058,0.034210205,-0.22970581,9.803635,18.489075,26.319885,-95.50171,0.032907262,-0.2303659,9.803889,-0.00013158098,0.0001732111,0.00015926361,-9.1552734e-05,-1.5258789e-05,-0.00022888184
2019-07-01T19:20:48.931Z,-0.009339021,-0.0073413667,0.49749216,0.033493042,-0.23091125,9.802429,19.221497,26.364136,-94.540405,0.033768564,-0.23051156,9.803883,0.0016474947,-0.00040249527,-0.00037288666,9.1552734e-05,-1.5258789e-05,-0.00016784668
2019-07-01T19:20:49.133Z,-0.00935229,-0.0073362137,0.49749756,0.032058716,-0.23138428,9.805786,18.634033,27.48413,-93.984985,0.033549964,-0.23068722,9.803879,-0.00052940473,-0.00047188997,-8.678436e-05,3.0517578e-05,-1.5258789e-05,-0.0004272461
2019-07-01T19:20:49.332Z,-0.009379688,-0.0073147835,0.49748552,0.031341553,-0.23138428,9.803864,18.125916,26.78833,-93.12439,0.03292125,-0.23094372,9.803875,-0.0010926761,-0.00018757582,0.0010633469,-3.0517578e-05,0.00016784668,-4.5776367e-05
2019-07-01T19:20:49.536Z,-0.009396491,-0.0072798915,0.4974314,0.03277588,-0.22994995,9.805069,18.33191,25.927734,-93.08319,0.03223848,-0.23068449,9.803884,0.0003060773,0.0005078763,0.0006866455,-0.00015258789,4.5776367e-05,1.5258789e-05
2019-07-01T19:20:49.735Z,-0.009401673,-0.0072603836,0.4973959,0.032058716,-0.22947693,9.805313,17.985535,25.546265,-93.82477,0.031805128,-0.23078372,9.803883,-0.00046671927,0.00013941526,0.0004606247,-9.1552734e-05,0.00010681152,-0.00016784668
2019-07-01T19:20:49.934Z,-0.009372603,-0.0072538094,0.49734572,0.03302002,-0.22947693,9.804108,18.013,26.283264,-94.506836,0.031990252,-0.23022322,9.803896,0.0005539097,0.0014838725,-0.00016880035,-3.0517578e-05,-1.5258789e-05,0.0
2019-07-01T19:20:50.143Z,-0.009365646,-0.0072527374,0.49733478,0.032546997,-0.23187256,9.802673,19.038391,26.145935,-96.53931,0.032042786,-0.230094,9.803898,0.00025846437,0.00015558302,-0.0007543564,9.1552734e-05,4.5776367e-05,-0.00010681152
2019-07-01T19:20:50.347Z,-0.0093777105,-0.007281064,0.49741063,0.032058716,-0.23091125,9.802673,18.23883,26.0849,-95.68787,0.03238685,-0.23057833,9.803885,0.00039004907,-0.00081320107,-0.0016202927,-3.0517578e-05,-0.0001373291,-0.00016784668
2019-07-01T19:20:50.542Z,-0.0093938755,-0.007300522,0.4974725,0.032058716,-0.23138428,9.805542,19.358826,25.8667,-95.1767,0.032543663,-0.23104545,9.803874,-0.00024015456,-0.001060605,0.00020122528,-9.1552734e-05,4.5776367e-05,-0.00016784668
2019-07-01T19:20:50.756Z,-0.009412826,-0.0072893403,0.49747196,0.03326416,-0.23162842,9.806259,19.747925,27.194214,-94.088745,0.032168645,-0.2312587,9.80387,-0.00011132285,0.00012858212,0.0012464523,-0.00015258789,0.00010681152,-0.00016784668
2019-07-01T19:20:50.956Z,-0.009414618,-0.007309395,0.4975173,0.032546997,-0.23091125,9.807465,19.16504,26.791382,-94.148254,0.032480225,-0.23148651,9.803864,0.0010250024,-0.00036413968,0.0009946823,0.00015258789,0.00010681152,0.0001373291
2019-07-01T19:20:51.157Z,-0.009397754,-0.0072865174,0.4974472,0.036132812,-0.23162842,9.805542,18.026733,26.3443,-93.13507,0.03227431,-0.23097387,9.803877,-0.00022312254,0.0006047785,0.002735138,-9.1552734e-05,4.5776367e-05,-0.00022888184
2019-07-01T19:20:51.362Z,-0.009383507,-0.0073531126,0.4975726,0.033737183,-0.22994995,9.804352,18.719482,25.662231,-93.377686,0.03351277,-0.23138599,9.803863,0.0028583892,-0.0004465729,-0.0012054443,-9.1552734e-05,0.00022888184,-0.00030517578
2019-07-01T19:20:51.567Z,-0.009377024,-0.0073504066,0.49755874,0.032058716,-0.23234558,9.805313,19.091797,26.782227,-93.16559,0.033533715,-0.2312488,9.803866,0.00044211745,0.0008637011,-0.00015830994,-3.0517578e-05,4.5776367e-05,-0.00018310547
2019-07-01T19:20:51.763Z,-0.009397385,-0.0073157405,0.49750954,0.034210205,-0.23162842,9.801727,17.608643,26.179504,-94.436646,0.032758422,-0.23125501,9.803868,-0.0007035695,-0.00081916153,-0.000916481,0.00015258789,0.00016784668,-0.000289917
2019-07-01T19:20:51.975Z,-0.009393469,-0.0073157125,0.49750462,0.033493042,-0.22994995,9.805542,18.208313,25.19989,-94.43207,0.03279747,-0.23118795,9.80387,0.00046489015,-0.00042779744,-0.0012464523,9.1552734e-05,0.00016784668,-0.00016784668
2019-07-01T19:20:52.172Z,-0.009358962,-0.0073269047,0.49748585,0.034942627,-0.23162842,9.801483,17.837524,25.90332,-94.2749,0.03332961,-0.23070943,9.803879,0.0011230148,0.0014885515,-3.33786e-05,-7.6293945e-05,-4.5776367e-05,6.1035156e-05
2019-07-01T19:20:52.374Z,-0.009364086,-0.007361239,0.49756595,0.034698486,-0.23353577,9.802444,18.133545,25.569153,-95.4895,0.03384233,-0.2311347,9.803868,0.00085825846,-0.0007369369,-0.0022497177,0.00016784668,-0.00010681152,0.00018310547
2019-07-01T19:20:52.575Z,-0.009376985,-0.007375392,0.49761236,0.03277588,-0.22851562,9.8033905,17.57965,25.674438,-95.29419,0.03394479,-0.23149401,9.803859,0.00026785955,-0.0015853941,-0.00023555756,-1.5258789e-05,7.6293945e-05,-0.00012207031
2019-07-01T19:20:52.777Z,-0.009344975,-0.0073407977,0.49749833,0.03517151,-0.23091125,9.804352,18.751526,26.696777,-94.83032,0.03369912,-0.23060755,9.803881,-0.00020331517,0.0016000122,-0.00015926361,0.00010681152,7.6293945e-05,6.1035156e-05
2019-07-01T19:20:52.981Z,-0.009339876,-0.0073614744,0.49753642,0.03326416,-0.23353577,9.801712,17.9245,27.723694,-93.37921,0.03409049,-0.230724,9.803876,0.00083845854,-0.00042681396,0.00068569183,-1.5258789e-05,1.5258789e-05,-0.00018310547
2019-07-01T19:20:53.181Z,-0.009386474,-0.007387229,0.49764958,0.034225464,-0.23402405,9.804352,18.504333,26.307678,-93.61572,0.03404356,-0.23177236,9.803851,-5.9321523e-05,-0.0017832518,-0.00081157684,-7.6293945e-05,1.5258789e-05,-0.00018310547
2019-07-01T19:20:53.389Z,-0.009428706,-0.0073915706,0.4977113,0.03111267,-0.23042297,9.805069,19.758606,27.33612,-93.30597,0.03368859,-0.23253544,9.803835,-0.00019453466,-0.0014955997,0.0010557175,4.5776367e-05,0.0001373291,-0.00012207031
2019-07-01T19:20:53.590Z,-0.0094166715,-0.007326003,0.49755552,0.032546997,-0.23042297,9.8033905,17.892456,26.919556,-93.089294,0.03273249,-0.23168495,9.803859,-0.001620736,0.0014973432,0.0011796951,0.00016784668,1.5258789e-05,-6.1035156e-05
2019-07-01T19:20:53.794Z,-0.009380558,-0.0073084836,0.49747306,0.034942627,-0.23019409,9.802673,17.997742,25.991821,-94.792175,0.032808907,-0.2308966,9.803877,-3.280118e-05,0.00094504654,-0.00066280365,0.00010681152,-4.5776367e-05,-0.00012207031
2019-07-01T19:20:53.992Z,-0.009368766,-0.0073239882,0.49749175,0.03111267,-0.23258972,9.803879,18.040466,25.115967,-94.670105,0.03318276,-0.230848,9.803877,0.0007995181,-6.990135e-05,-0.00043296814,-7.6293945e-05,7.6293945e-05,0.0
2019-07-01T19:20:54.203Z,-0.0093886135,-0.007350926,0.49757424,0.033737183,-0.23234558,9.8033905,18.235779,25.935364,-95.11566,0.03342529,-0.23145159,9.803862,0.00031328946,-0.0013767034,-0.000289917,0.00016784668,-4.5776367e-05,0.00018310547
2019-07-01T19:20:54.405Z,-0.009380356,-0.0073897736,0.49764743,0.033493042,-0.23330688,9.804352,17.668152,26.280212,-97.36328,0.034147143,-0.23169306,9.803853,0.0017426945,-0.0011334568,0.00011634827,-1.5258789e-05,3.0517578e-05,-6.1035156e-05
2019-07-01T19:20:54.610Z,-0.009435064,-0.0073266705,0.49757978,0.034454346,-0.22827148,9.804352,18.52417,26.972961,-94.766235,0.032557838,-0.23200521,9.803851,-0.0031234547,-0.0008146465,0.0005540848,0.00010681152,0.0001373291,-0.00012207031
2019-07-01T19:20:54.835Z,-0.009354848,-0.0073005734,0.4974242,0.031341553,-0.23019409,9.804596,18.585205,26.463318,-94.26575,0.032938216,-0.23038024,9.803888,0.0012869313,0.0033011734,0.00036907196,4.5776367e-05,0.0001373291,-0.00012207031
2019-07-01T19:20:55.002Z,-0.009380406,-0.0072834226,0.49741903,0.03277588,-0.23138428,9.801239,17.819214,26.829529,-91.81976,0.032398436,-0.2306475,9.803884,-0.0005698614,-0.0007278025,0.0005598068,4.5776367e-05,1.5258789e-05,-0.00018310547
2019-07-01T19:20:55.204Z,-0.009372803,-0.0073100408,0.4974668,0.032058716,-0.2328186,9.800766,20.043945,26.707458,-94.57855,0.032912735,-0.23077963,9.803879,0.0005981736,-0.00062292814,-0.0023355484,0.00010681152,-0.00016784668,0.0
2019-07-01T19:20:55.408Z,-0.009398772,-0.0072737886,0.49742112,0.032546997,-0.2280426,9.804352,18.312073,27.233887,-92.588806,0.03205478,-0.23086604,9.80388,-0.0016549788,-0.0007932931,-0.0010843277,0.00022888184,0.0001373291,0.0
2019-07-01T19:20:55.606Z,-0.009371373,-0.0072369557,0.49730796,0.031341553,-0.22779846,9.804108,17.24701,26.802063,-92.85889,0.031725533,-0.23003651,9.8039,-0.00013565272,0.0012463927,6.67572e-05,4.5776367e-05,0.0001373291,0.0
2019-07-01T19:20:55.809Z,-0.009325661,-0.0072338604,0.49724463,0.034454346,-0.23019409,9.8022,17.26532,27.238464,-92.91992,0.032135546,-0.22922632,9.803918,0.0011302084,0.0011723638,0.0016374588,0.00016784668,1.5258789e-05,-0.00012207031
2019-07-01T19:20:56.012Z,-0.009328799,-0.007272351,0.49733123,0.030151367,-0.23066711,9.802429,18.144226,25.40741,-93.55774,0.032736894,-0.22965832,9.803906,0.0010027215,-0.0007969588,-0.0005044937,-0.0001373291,1.5258789e-05,0.0
2019-07-01T19:20:56.214Z,-0.00937335,-0.007273766,0.49738953,0.03565979,-0.22875977,9.800766,16.918945,27.087402,-94.903564,0.03231084,-0.23043217,9.803888,-4.0195882e-06,-0.0009803623,-0.0004863739,4.5776367e-05,1.5258789e-05,-0.00012207031
2019-07-01T19:20:56.417Z,-0.009332617,-0.007292341,0.49737892,0.031341553,-0.22875977,9.805786,17.506409,25.889587,-95.17059,0.033027094,-0.22992003,9.803899,0.0019220375,0.0006419718,-0.0014467239,4.5776367e-05,1.5258789e-05,-0.00032043457
2019-07-01T19:20:56.624Z,-0.009340569,-0.007247103,0.49729156,0.03086853,-0.2311554,9.801483,17.140198,26.589966,-94.78607,0.03220302,-0.22961085,9.803909,-0.00204999,0.00061033666,0.0028715134,-1.5258789e-05,-4.5776367e-05,-7.6293945e-05
2019-07-01T19:20:56.898Z,-0.009354415,-0.007271674,0.49736154,0.03302002,-0.22970581,9.8033905,17.791748,26.856995,-95.43762,0.032467425,-0.2300886,9.803896,0.0008010231,-0.0010971725,-0.0016069412,4.5776367e-05,7.6293945e-05,-0.00018310547
2019-07-01T19:20:57.040Z,-0.009344278,-0.007246648,0.4972952,0.033737183,-0.22875977,9.800522,17.65747,26.96991,-92.46521,0.032158133,-0.22966962,9.803907,-0.0005690269,0.00041246414,0.0005226135,0.000289917,-0.00010681152,-0.00012207031
2019-07-01T19:20:57.232Z,-0.009291362,-0.0072726146,0.49728537,0.032546997,-0.23043823,9.8029175,18.682861,26.986694,-95.14618,0.03311871,-0.22902225,9.80392,0.00086906925,0.00069087744,-0.0017309189,-1.5258789e-05,-0.00021362305,0.00035095215
2019-07-01T19:20:57.436Z,-0.009321667,-0.0072871447,0.49735418,0.032302856,-0.23066711,9.800049,19.094849,26.930237,-93.58826,0.03305207,-0.22968212,9.803904,-0.00049997866,-0.0015086532,0.0007677078,4.5776367e-05,-0.00016784668,0.00022888184
2019-07-01T19:20:57.637Z,-0.009327247,-0.0072841262,0.4973546,0.031829834,-0.23162842,9.8022,20.057678,26.84784,-93.49365,0.032946173,-0.22974761,9.803903,-0.0008639693,-0.0007327795,-0.0018930435,0.000289917,-4.5776367e-05,6.1035156e-05
2019-07-01T19:20:57.839Z,-0.009351383,-0.0072849584,0.49738634,0.031585693,-0.22875977,9.803635,18.12439,26.716614,-93.36548,0.032716434,-0.23016754,9.803894,-0.00016265363,-0.001035586,0.00081157684,4.5776367e-05,1.5258789e-05,0.00012207031
2019-07-01T19:20:58.047Z,-0.009332185,-0.0072485306,0.49728423,0.034210205,-0.23019409,9.801956,18.327332,25.930786,-93.611145,0.03231103,-0.22948186,9.803912,-0.00096494704,0.0009340644,0.0013418198,-1.5258789e-05,1.5258789e-05,0.00018310547
2019-07-01T19:20:58.244Z,-0.009348949,-0.0072475965,0.497303,0.029190063,-0.22875977,9.802429,17.591858,26.042175,-95.59479,0.03212663,-0.22975866,9.803906,-0.00029089674,-0.00070649385,-0.00086688995,4.5776367e-05,1.5258789e-05,0.00024414062
2019-07-01T19:20:58.448Z,-0.009344752,-0.007232552,0.4972655,0.033981323,-0.23019409,9.800766,17.752075,25.90332,-95.103455,0.031921558,-0.22953914,9.803912,-0.0008030981,0.0007377565,6.580353e-05,-0.0001373291,-0.00016784668,0.00024414062
2019-07-01T19:20:58.651Z,-0.009339182,-0.0073165065,0.49743897,0.034454346,-0.23138428,9.804596,17.906189,25.920105,-95.86029,0.03335821,-0.23026974,9.80389,0.002063904,-0.0011591315,-0.0002784729,4.5776367e-05,-0.00016784668,0.0
2019-07-01T19:20:58.873Z,-0.00935507,-0.0072890567,0.49739972,0.031829834,-0.22947693,9.801956,18.231201,25.787354,-94.844055,0.032746628,-0.23027076,9.803892,-0.001155898,-0.00043176115,0.00077724457,4.5776367e-05,-9.1552734e-05,0.00035095215
2019-07-01T19:20:59.067Z,-0.00933672,-0.007280965,0.49735954,0.033981323,-0.23114014,9.8022,18.469238,25.730896,-94.94171,0.03279865,-0.22987814,9.803901,-1.802668e-05,0.000612095,0.00019168854,-7.6293945e-05,1.5258789e-05,0.00035095215
2019-07-01T19:20:59.271Z,-0.009343239,-0.0073317597,0.4974768,0.032302856,-0.23043823,9.800522,18.32428,26.16272,-95.37659,0.03356806,-0.23048899,9.803884,0.0016083308,-0.00045578182,-2.9563904e-05,-7.6293945e-05,7.6293945e-05,0.00012207031
2019-07-01T19:20:59.470Z,-0.009351274,-0.0073051066,0.4974295,0.0335083,-0.23162842,9.803162,18.927002,26.774597,-93.61267,0.033048797,-0.23036386,9.803888,-0.0007386841,-0.00012496114,-0.001458168,0.00010681152,1.5258789e-05,0.00035095215
2019-07-01T19:20:59.674Z,-0.009380815,-0.0073157353,0.49748898,0.031341553,-0.23066711,9.8022,19.424438,26.947021,-92.91992,0.032925535,-0.23097232,9.803875,-0.00086123496,-0.0014124215,0.0009498596,-1.5258789e-05,-0.00021362305,0.000289917
2019-07-01T19:20:59.880Z,-0.009386015,-0.007299918,0.49746144,0.034942627,-0.23066711,9.802673,19.17572,26.860046,-93.37921,0.03261304,-0.23090544,9.803878,-0.00030464306,-0.00027391315,-1.1444092e-05,0.00016784668,0.0001373291,0.000289917
2019-07-01T19:21:00.072Z,-0.009377003,-0.0073101097,0.49747214,0.03062439,-0.22898865,9.801239,18.666077,26.31836,-93.46771,0.032871507,-0.23085196,9.803878,-9.081885e-05,0.0003952384,0.00047397614,-1.5258789e-05,-0.00010681152,0.00035095215
2019-07-01T19:21:00.273Z,-0.009318433,-0.0072802682,0.49733537,0.031585693,-0.23091125,9.802673,18.533325,25.372314,-95.01648,0.03297162,-0.22955935,9.803908,5.410239e-05,0.0017211735,-0.00048446655,0.00016784668,-0.00021362305,0.000289917
2019-07-01T19:21:00.483Z,-0.009349333,-0.00728456,0.49738294,0.03326416,-0.23019409,9.800995,17.41333,25.36316,-94.140625,0.03273055,-0.23012863,9.803894,-0.00089456514,-0.0015430301,-0.00032520294,4.5776367e-05,1.5258789e-05,-6.1035156e-05
2019-07-01T19:21:00.679Z,-0.009345689,-0.007296957,0.49740505,0.035888672,-0.23210144,9.802444,17.088318,25.419617,-94.64569,0.032971144,-0.23018841,9.803892,-0.00017290935,-0.00028410554,-0.0005426407,4.5776367e-05,-0.00021362305,-6.1035156e-05
2019-07-01T19:21:00.899Z,-0.00935969,-0.0073487926,0.49753377,0.030151367,-0.22898865,9.803635,16.52832,25.605774,-95.414734,0.033682093,-0.23093723,9.803873,0.0012519844,-0.0012102276,0.00028133392,-1.5258789e-05,-4.5776367e-05,0.00012207031
2019-07-01T19:21:01.089Z,-0.009344997,-0.007286139,0.49738094,0.03111267,-0.22970581,9.803146,17.182922,25.869751,-95.53833,0.03280025,-0.23007022,9.803896,-0.0024005733,0.0015253574,0.001458168,-1.5258789e-05,-0.00010681152,-0.00019836426
2019-07-01T19:21:01.284Z,-0.009335725,-0.00725969,0.4973126,0.031341553,-0.22970581,9.800766,17.817688,25.694275,-95.67566,0.032458853,-0.22965196,9.803907,-0.00087008625,0.0006415844,0.00065517426,4.5776367e-05,-9.1552734e-05,0.0
2019-07-01T19:21:01.505Z,-0.009332775,-0.007263118,0.4973163,0.03326416,-0.2290039,9.8029175,18.899536,27.935791,-93.37463,0.032544967,-0.22963534,9.803907,-0.00023711473,-0.00034987926,-0.001162529,0.00022888184,-0.00010681152,0.00012207031
2019-07-01T19:21:01.703Z,-0.009325683,-0.007256889,0.49729413,0.029190063,-0.22875977,9.801956,18.522644,26.593018,-92.80243,0.032514036,-0.22945313,9.803912,-0.00045061484,0.00018714368,0.00018024445,4.5776367e-05,7.6293945e-05,0.00016784668
2019-07-01T19:21:01.906Z,-0.009337036,-0.0072097476,0.4972069,0.032302856,-0.22851562,9.801956,18.362427,26.73645,-93.59741,0.031624306,-0.22918335,9.803921,-0.001467254,0.0003823787,-0.0006752014,0.00010681152,-0.00010681152,0.000289917
2019-07-01T19:21:02.102Z,-0.009316963,-0.007209526,0.49718153,0.033737183,-0.23258972,9.801483,18.377686,27.024841,-93.38989,0.031822998,-0.22883876,9.803928,0.00024192408,0.0005226582,-0.00028896332,-1.5258789e-05,7.6293945e-05,0.00024414062
2019-07-01T19:21:02.319Z,-0.009360196,-0.0072734607,0.49737254,0.032546997,-0.23019409,9.8022,19.096375,26.92871,-93.43872,0.032438498,-0.2302048,9.803894,0.0010605305,-0.0036175847,0.00011634827,0.00010681152,-0.00010681152,6.1035156e-05
2019-07-01T19:21:02.520Z,-0.009339981,-0.007271442,0.49734315,0.032791138,-0.23138428,9.806747,18.833923,26.321411,-92.72003,0.032609187,-0.22984013,9.803903,0.00017259642,0.00032155216,7.43866e-05,0.00016784668,-4.5776367e-05,0.0
2019-07-01T19:21:02.705Z,-0.009401262,-0.0072900206,0.49745908,0.03277588,-0.23187256,9.801483,18.309021,25.567627,-93.90869,0.032296512,-0.23106813,9.803874,0.000251472,-0.0003232062,0.003645897,4.5776367e-05,0.0001373291,0.00012207031
2019-07-01T19:21:02.929Z,-0.009392862,-0.0073031196,0.49747682,0.03111267,-0.23042297,9.80603,18.362427,25.138855,-94.903564,0.032596588,-0.23105372,9.803874,0.0009000413,0.00036115944,-0.0015554428,-1.5258789e-05,7.6293945e-05,0.00012207031
2019-07-01T19:21:03.122Z,-0.009410052,-0.007276742,0.49744144,0.03086853,-0.22827148,9.8029175,18.399048,26.094055,-95.54138,0.03198954,-0.23108748,9.803875,-0.0011212751,-0.00029489398,0.0023183823,-7.6293945e-05,-0.00016784668,0.00035095215
2019-07-01T19:21:03.322Z,-0.009372016,-0.0072422014,0.49732003,0.031585693,-0.22779846,9.804596,17.16156,25.20752,-94.766235,0.031805303,-0.23009908,9.803899,-0.0014083311,0.002534166,-0.0010023117,-7.6293945e-05,-0.00021362305,0.00024414062
2019-07-01T19:21:03.526Z,-0.009351815,-0.0072580227,0.49732897,0.034454346,-0.23234558,9.803162,18.034363,24.822998,-94.2749,0.032269176,-0.22991003,9.803902,0.00052273646,0.00042757392,0.0004415512,-1.5258789e-05,-4.5776367e-05,-6.1035156e-05
2019-07-01T19:21:03.732Z,-0.009360365,-0.007286755,0.49740133,0.033737183,-0.22851562,9.804108,17.648315,27.207947,-94.75708,0.03265538,-0.23033842,9.80389,0.001082059,-0.0008035153,0.00029468536,-1.5258789e-05,1.5258789e-05,0.00035095215
2019-07-01T19:21:03.930Z,-0.0093348175,-0.007296246,0.49739003,0.03086853,-0.23043823,9.802429,18.560791,25.953674,-94.7464,0.033069104,-0.22999598,9.803897,0.0004396774,0.0005156994,-0.00011920929,-1.5258789e-05,-0.00010681152,0.00024414062
2019-07-01T19:21:04.144Z,-0.00935664,-0.0072680064,0.4973564,0.029434204,-0.22947693,9.803162,18.771362,26.9104,-93.80646,0.032384675,-0.23009048,9.803896,-0.0017580874,0.00036905706,-0.0010309219,-7.6293945e-05,1.5258789e-05,0.00024414062
2019-07-01T19:21:04.335Z,-0.009368677,-0.0072284113,0.49728626,0.032302856,-0.23138428,9.804108,19.08722,26.63269,-92.970276,0.03161223,-0.22990653,9.803904,-0.0012149923,0.00018815696,0.0002670288,4.5776367e-05,1.5258789e-05,0.000289917
2019-07-01T19:21:04.556Z,-0.009389719,-0.0072438344,0.4973455,0.033981323,-0.23066711,9.803635,18.740845,26.1734,-93.42651,0.031653624,-0.2304171,9.803892,-0.0003111586,-0.0005007833,0.000497818,-0.0001373291,-4.5776367e-05,0.000289917
2019-07-01T19:21:04.742Z,-0.0093771,-0.0072768074,0.4974007,0.031829834,-0.23258972,9.800522,18.591309,26.382446,-93.22662,0.03232303,-0.23052606,9.803887,0.0016591735,-0.0003914684,1.4305115e-05,4.5776367e-05,-4.5776367e-05,0.000289917
2019-07-01T19:21:04.947Z,-0.009417693,-0.007304705,0.49751103,0.031829834,-0.23187256,9.801712,18.16864,25.993347,-93.59131,0.03237211,-0.23149286,9.8038645,-0.00053856894,-0.0015963912,-0.0017471313,-7.6293945e-05,-0.00016784668,6.1035156e-05
2019-07-01T19:21:05.175Z,-0.009432925,-0.007311099,0.49754366,0.031829834,-0.22923279,9.8033905,17.938232,26.499939,-95.140076,0.0323235,-0.23181552,9.803856,-1.5307218e-05,-0.00032418966,-0.0009994507,-1.5258789e-05,0.0001373291,0.00024414062
2019-07-01T19:21:05.397Z,-0.009375654,-0.0072695045,0.49738324,0.03111267,-0.22732544,9.798843,18.15033,25.782776,-94.68994,0.032217532,-0.2304296,9.80389,-0.00038250163,0.0025939792,0.00013637543,4.5776367e-05,-4.5776367e-05,4.5776367e-05
2019-07-01T19:21:05.559Z,-0.009336074,-0.0072214035,0.49723077,0.033493042,-0.22970581,9.8022,16.423035,24.938965,-94.79065,0.031825706,-0.2292815,9.803918,-0.0004775189,0.0019082576,-0.0008792877,4.5776367e-05,7.6293945e-05,0.000289917
2019-07-01T19:21:05.762Z,-0.009325452,-0.007252033,0.4972834,0.032302856,-0.22947693,9.801956,18.533325,25.523376,-95.81604,0.032436512,-0.22940142,9.803913,0.0010650232,-0.00085270405,-0.0010690689,0.00022888184,-0.00016784668,0.00024414062
2019-07-01T19:21:05.962Z,-0.009321322,-0.007248727,0.49727118,0.03277588,-0.22970581,9.8029175,18.089294,26.365662,-95.32471,0.032423794,-0.22929847,9.803916,-0.00083080307,1.4066696e-05,0.0007209778,-1.5258789e-05,-0.00016784668,0.00018310547
2019-07-01T19:21:06.165Z,-0.009319172,-0.0072771516,0.4973296,0.032058716,-0.22923279,9.803635,18.771362,27.05841,-94.454956,0.032912903,-0.2295413,9.803908,0.0008303188,-0.0002066344,0.0008087158,-1.5258789e-05,-0.00010681152,0.0004119873
2019-07-01T19:21:06.369Z,-0.009330615,-0.0072648632,0.49731737,0.032302856,-0.23066711,9.801727,18.569946,25.944519,-93.39142,0.03259544,-0.22961566,9.803907,-0.0012503825,0.00011406839,0.0014982224,-7.6293945e-05,-0.00021362305,0.00024414062
2019-07-01T19:21:06.576Z,-0.00934165,-0.007269267,0.49734053,0.031829834,-0.23138428,9.8033905,19.075012,26.41449,-93.089294,0.032556582,-0.22984721,9.803903,-0.0007217452,-0.00038221478,-0.0009126663,-7.6293945e-05,1.5258789e-05,0.00012207031
2019-07-01T19:21:06.772Z,-0.009378788,-0.007276122,0.49740133,0.032302856,-0.23042297,9.8029175,19.869995,26.252747,-93.68286,0.03229473,-0.23054813,9.803887,0.0002563335,-0.0013534874,0.00051021576,-7.6293945e-05,0.0002593994,0.00018310547
2019-07-01T19:21:06.995Z,-0.00938413,-0.0072736265,0.4974026,0.032302856,-0.22756958,9.8033905,18.081665,25.767517,-93.55621,0.032199815,-0.23061468,9.8038845,0.00035095587,0.00039355457,0.00018119812,-7.6293945e-05,-4.5776367e-05,0.00012207031
2019-07-01T19:21:07.173Z,-0.009349873,-0.007248048,0.49730512,0.031585693,-0.22972107,9.804108,17.32788,27.108765,-94.236755,0.032124743,-0.22977884,9.8039055,-0.00029232726,0.0017177761,0.0007619858,-1.5258789e-05,1.5258789e-05,0.000289917
2019-07-01T19:21:07.384Z,-0.009361069,-0.00723738,0.4972961,0.031585693,-0.22994995,9.801956,17.745972,25.682068,-94.76929,0.031836424,-0.22986494,9.803905,-0.0007212348,0.0001257062,3.2424927e-05,-0.0001373291,1.5258789e-05,0.0004119873
2019-07-01T19:21:07.585Z,-0.009362634,-0.007241199,0.49730626,0.031341553,-0.23019409,9.804596,17.892456,25.248718,-94.03229,0.031883433,-0.22992918,9.803903,0.00017828122,-0.00053067505,-0.00030708313,0.00016784668,-4.5776367e-05,0.000289917
2019-07-01T19:21:07.789Z,-0.009353734,-0.0072426554,0.49729833,0.034454346,-0.23066711,9.805786,17.807007,25.476074,-95.7962,0.03199714,-0.22979167,9.8039055,0.00030672923,0.00030745566,0.0012302399,-1.5258789e-05,7.6293945e-05,0.00012207031
2019-07-01T19:21:07.990Z,-0.009349542,-0.0072644083,0.49733987,0.03326416,-0.22875977,9.803879,18.310547,25.718689,-94.70978,0.032397103,-0.22993405,9.803901,0.00110979,-0.0004941821,0.0014591217,0.00010681152,1.5258789e-05,0.00012207031
2019-07-01T19:21:08.190Z,-0.009306496,-0.0072539477,0.49726403,0.031829834,-0.22923279,9.803879,18.328857,26.234436,-95.20874,0.03265913,-0.22909687,9.80392,0.0003610812,0.001052931,-0.00094509125,0.00010681152,-4.5776367e-05,0.000289917
2019-07-01T19:21:08.390Z,-0.009316545,-0.0072592157,0.4972878,0.031585693,-0.22923279,9.802673,19.032288,25.617981,-94.081116,0.03264445,-0.2293201,9.803914,-0.00034249946,-0.000867635,0.0006389618,0.00016784668,-4.5776367e-05,0.00035095215
2019-07-01T19:21:08.596Z,-0.009339149,-0.0072452896,0.4972859,0.03302002,-0.2311554,9.804596,18.469238,27.24762,-92.96875,0.032187507,-0.2295688,9.80391,-0.0010733046,-0.00063622,-0.0014877319,4.5776367e-05,-0.00010681152,0.00018310547
2019-07-01T19:21:08.801Z,-0.009331758,-0.0072559817,0.49729973,0.033737183,-0.22923279,9.804352,18.765259,26.683044,-93.02063,0.032437865,-0.22954783,9.803909,0.00082549825,-0.00086949766,0.0013914108,0.00016784668,0.0001373291,0.0004119873
2019-07-01T19:21:09.004Z,-0.009372294,-0.0072177732,0.49726787,0.03086853,-0.22898865,9.800995,18.196106,26.730347,-94.348145,0.031400815,-0.22986367,9.8039055,-0.0007756017,-9.228289e-05,-0.00048732758,-7.6293945e-05,9.1552734e-05,0.00010681152
2019-07-01T19:21:09.205Z,-0.009340149,-0.00722377,0.4972409,0.0335083,-0.22612,9.801483,18.08014,25.917053,-94.055176,0.031823535,-0.2293743,9.803916,0.00048199669,0.00012223423,-0.0011348724,0.0004119873,1.5258789e-05,-7.6293945e-05
2019-07-01T19:21:09.413Z,-0.0093338145,-0.007219165,0.49722314,0.034698486,-0.23066711,9.801239,18.293762,25.35553,-94.78302,0.031811666,-0.22922094,9.803919,0.00049769133,0.00018545985,-0.0023555756,4.5776367e-05,7.6293945e-05,6.1035156e-05
2019-07-01T19:21:09.612Z,-0.009288374,-0.0073015788,0.4973439,0.034698486,-0.23042297,9.800278,17.16156,25.20752,-94.766235,0.033625174,-0.22925615,9.803913,0.0032310449,-1.9207597e-05,0.0003528595,-0.0001373291,-9.1552734e-05,4.5776367e-05
2019-07-01T19:21:09.826Z,-0.009314602,-0.007284742,0.49734023,0.031829834,-0.22851562,9.801483,17.82074,25.91858,-96.38672,0.03308381,-0.22953796,9.803907,-0.0010166503,-0.00047057867,-0.0013713837,-7.6293945e-05,1.5258789e-05,0.00024414062
2019-07-01T19:21:10.016Z,-0.0093136355,-0.007247874,0.49725983,0.031341553,-0.23234558,9.801239,17.874146,25.11139,-95.34302,0.03248726,-0.22915894,9.803918,-0.0006486587,0.00082562864,-0.0002632141,-1.5258789e-05,-4.5776367e-05,6.1035156e-05
2019-07-01T19:21:10.219Z,-0.009358357,-0.007265638,0.49735346,0.032302856,-0.23187256,9.801483,18.948364,27.288818,-93.88733,0.032328427,-0.2300965,9.803897,-0.00049069524,-0.0020611435,0.00045394897,0.00010681152,0.0001373291,0.0
2019-07-01T19:21:10.422Z,-0.009369645,-0.007261158,0.49735785,0.031341553,-0.22755432,9.802429,19.32373,26.957703,-95.25452,0.032140907,-0.23024501,9.803894,-7.459894e-05,-0.00047647953,0.00014781952,0.00022888184,7.6293945e-05,0.0
2019-07-01T19:21:10.623Z,-0.009339832,-0.0072255777,0.4972444,0.032302856,-0.2311554,9.804108,19.058228,26.278687,-94.70062,0.031856462,-0.22938664,9.803915,-0.00050801784,0.0005772561,0.00040531158,0.00016784668,1.5258789e-05,6.1035156e-05
2019-07-01T19:21:10.830Z,-0.0093540745,-0.007237172,0.49728698,0.033493042,-0.2287445,9.80603,19.259644,26.78833,-92.567444,0.03190353,-0.2297436,9.803907,0.00040237606,-0.0009454787,0.0023431778,-7.6293945e-05,7.6293945e-05,6.1035156e-05
2019-07-01T19:21:11.026Z,-0.009337293,-0.0072582145,0.49731138,0.034454346,-0.23162842,9.804352,19.316101,26.281738,-92.67273,0.032418773,-0.2296642,9.803907,0.0015636124,0.00042389333,0.0012388229,-1.5258789e-05,1.5258789e-05,0.00012207031
2019-07-01T19:21:11.233Z,-0.009358556,-0.0073059853,0.4974404,0.029907227,-0.23210144,9.800995,18.130493,26.556396,-91.58478,0.032989796,-0.23049672,9.803885,0.00074806437,-0.0016094744,0.00019550323,-1.5258789e-05,-4.5776367e-05,6.1035156e-05
2019-07-01T19:21:11.438Z,-0.009419094,-0.0072842594,0.49746883,0.03517151,-0.22779846,9.803635,18.421936,26.148987,-92.88788,0.03202189,-0.23131566,9.80387,-0.0016225986,-0.0015303046,-0.0019445419,-7.6293945e-05,7.6293945e-05,0.000289917
2019-07-01T19:21:11.643Z,-0.00934226,-0.007251321,0.49730274,0.03062439,-0.23042297,9.804825,19.480896,26.74408,-94.773865,0.03225533,-0.22968115,9.803907,0.0005229525,0.0030710548,0.00092983246,0.00010681152,-9.1552734e-05,-0.00018310547
2019-07-01T19:21:11.851Z,-0.009340776,-0.007297347,0.49739978,0.03111267,-0.22994995,9.8022,18.164062,25.997925,-94.19403,0.03302711,-0.23010844,9.803894,0.00071144477,-0.0008123666,0.000620842,4.5776367e-05,-4.5776367e-05,-0.00012207031
2019-07-01T19:21:12.049Z,-0.009338617,-0.0072658197,0.49732935,0.032791138,-0.2311554,9.806503,18.289185,25.43335,-95.67261,0.032530483,-0.22976157,9.803905,-0.00094410405,3.568828e-05,0.00040912628,0.00016784668,1.5258789e-05,-6.1035156e-05
2019-07-01T19:21:12.249Z,-0.00934773,-0.0072652865,0.49733952,0.03277588,-0.23042297,9.805557,18.626404,25.74768,-95.69855,0.032429814,-0.22991177,9.803901,-0.00037301704,-0.0009858757,0.0015497208,4.5776367e-05,-4.5776367e-05,0.00012207031
2019-07-01T19:21:12.452Z,-0.009360438,-0.007269401,0.49736413,0.03302002,-0.23210144,9.801956,19.137573,26.36261,-95.140076,0.032369304,-0.23016904,9.803896,0.00017485023,-0.00023370981,0.0005569458,-7.6293945e-05,7.6293945e-05,-6.1035156e-05
2019-07-01T19:21:12.656Z,-0.009380541,-0.007303531,0.4974624,0.03302002,-0.22875977,9.804825,19.570923,27.046204,-95.0943,0.03272766,-0.23084758,9.803878,6.366894e-05,-0.0012551695,-0.001865387,-1.5258789e-05,-3.0517578e-05,6.1035156e-05
2019-07-01T19:21:12.855Z,-0.0093461545,-0.0072772596,0.4973633,0.033737183,-0.23043823,9.8033905,19.328308,26.800537,-93.852234,0.032642577,-0.23000263,9.803898,0.0008493364,0.0019679666,0.0008325577,-7.6293945e-05,0.0001373291,0.00018310547
2019-07-01T19:21:13.058Z,-0.009354413,-0.0072889924,0.49739876,0.032058716,-0.22898865,9.799561,20.005798,27.423096,-93.22357,0.032752205,-0.23025891,9.803892,0.0005130805,-0.00018723309,-0.0013551712,4.5776367e-05,7.6293945e-05,6.1035156e-05
2019-07-01T19:21:13.263Z,-0.009351986,-0.0072718826,0.49735898,0.031585693,-0.22875977,9.805313,19.281006,27.372742,-92.752075,0.032495342,-0.23004924,9.803897,-0.0004313551,0.00030608475,-0.0025014877,0.00010681152,-4.5776367e-05,0.000289917
2019-07-01T19:21:13.469Z,-0.009314465,-0.007228841,0.49721995,0.032546997,-0.22947693,9.804108,19.548035,26.228333,-93.37158,0.032165863,-0.228986,9.803924,-0.0008230917,0.0014230162,0.0024776459,4.5776367e-05,1.5258789e-05,0.00016784668
2019-07-01T19:21:13.668Z,-0.009330498,-0.007259665,0.49730608,0.032302856,-0.22875977,9.801956,18.133545,25.341797,-94.40155,0.032511145,-0.22956255,9.803909,0.0012263395,-0.0011066943,0.00053310394,0.00010681152,0.0001373291,6.1035156e-05
2019-07-01T19:21:13.870Z,-0.0093252845,-0.007221748,0.49721813,0.03111267,-0.23091125,9.800522,17.964172,26.931763,-94.21997,0.031940136,-0.22910082,9.803921,-0.0013123564,0.0005608648,-0.0018854141,-7.6293945e-05,-0.00016784668,6.1035156e-05
2019-07-01T19:21:14.075Z,-0.009356437,-0.0072657336,0.4973513,0.033981323,-0.23019409,9.8022,18.284607,26.956177,-94.60907,0.032349348,-0.23006469,9.803897,0.00043171272,-0.0011275411,-0.0010881424,-1.5258789e-05,1.5258789e-05,0.00035095215
2019-07-01T19:21:14.276Z,-0.00935151,-0.007275018,0.49736512,0.032546997,-0.23091125,9.800278,17.8833,25.408936,-95.962524,0.032551713,-0.23007196,9.803898,0.00023084879,-0.0001693666,-0.00088977814,-7.6293945e-05,-4.5776367e-05,-6.1035156e-05
2019-07-01T19:21:14.484Z,-0.009350665,-0.007292705,0.49740207,0.03086853,-0.22923279,9.799561,17.567444,27.278137,-95.26672,0.032851044,-0.2302315,9.803892,0.0004205741,-1.4841557e-05,-0.00042819977,-0.0001373291,-4.5776367e-05,6.1035156e-05
2019-07-01T19:21:14.683Z,-0.0093644895,-0.0072168,0.4972561,0.030151367,-0.22898865,9.801239,17.60559,26.333618,-95.3125,0.031463508,-0.22972097,9.803908,-0.0022629984,0.0006560385,-0.0020389557,0.00010681152,7.6293945e-05,-0.00018310547
2019-07-01T19:21:14.882Z,-0.009365938,-0.007232723,0.49729213,0.033737183,-0.23234558,9.801956,19.010925,27.003479,-94.40155,0.031710736,-0.22990221,9.803904,0.00060020015,-0.000106304884,0.0015115738,-7.6293945e-05,7.6293945e-05,-0.00018310547
2019-07-01T19:21:15.088Z,-0.009393213,-0.007255709,0.49737537,0.03326416,-0.22947693,9.801727,19.11316,25.698853,-94.670105,0.031813607,-0.23059343,9.803886,0.00096998364,-0.0015639216,0.00020217896,0.00016784668,0.0002593994,0.0
2019-07-01T19:21:15.289Z,-0.009308922,-0.0072511486,0.49726102,0.029678345,-0.22923279,9.800995,19.230652,26.429749,-93.77289,0.032588635,-0.22911075,9.80392,0.0009244494,0.0008056462,0.0021152496,-0.0002593994,-0.00010681152,0.0
2019-07-01T19:21:15.487Z,-0.009333727,-0.007264434,0.49732032,0.032302856,-0.23042297,9.8022,19.700623,26.019287,-93.26935,0.032557003,-0.22966452,9.803906,-0.00024855882,-0.0003248453,-0.00049591064,4.5776367e-05,-0.00010681152,6.1035156e-05
2019-07-01T19:21:15.707Z,-0.009331262,-0.00725048,0.49728727,0.032791138,-0.22970581,9.802673,19.221497,26.060486,-93.24188,0.0323524,-0.22948527,9.803912,-0.0007597953,-0.0002695471,-0.00082302094,0.00010681152,1.5258789e-05,0.0
2019-07-01T19:21:15.902Z,-0.009344307,-0.007270626,0.49734676,0.03326416,-0.23066711,9.8022,18.992615,26.335144,-92.95044,0.032552127,-0.22990589,9.803901,0.00047306716,-0.0010418892,0.0010471344,-1.5258789e-05,-4.5776367e-05,0.0
2019-07-01T19:21:16.102Z,-0.009364583,-0.0072721867,0.49737525,0.03302002,-0.2337799,9.802444,18.888855,25.822449,-93.35327,0.032373313,-0.23026711,9.803893,-6.517023e-05,-0.00019346178,-9.1552734e-05,-7.6293945e-05,7.6293945e-05,4.5776367e-05
2019-07-01T19:21:16.299Z,-0.0093896175,-0.00732715,0.4975244,0.033737183,-0.23019409,9.803635,17.460632,26.461792,-94.2215,0.03302435,-0.23123477,9.803868,0.0004896298,-0.0023407638,-0.00022602081,0.00010681152,-0.0002746582,0.00012207031
2019-07-01T19:21:16.563Z,-0.009353185,-0.0073322947,0.49749026,0.03277588,-0.23210144,9.803635,18.049622,25.489807,-95.57648,0.033476517,-0.23066394,9.803881,0.00026370957,0.0006930232,0.0016069412,0.00022888184,-4.5776367e-05,0.0
2019-07-01T19:21:16.754Z,-0.009377037,-0.007326622,0.49750766,0.032546997,-0.23162842,9.8029175,18.333435,26.382446,-95.33234,0.0331426,-0.231015,9.803873,-0.000120360404,-0.0020632148,0.00041866302,0.00016784668,7.6293945e-05,0.00024414062
2019-07-01T19:21:16.964Z,-0.00939297,-0.007298654,0.49746734,0.03062439,-0.23066711,9.802444,19.255066,25.497437,-95.69855,0.03252209,-0.23101163,9.803875,-0.001406379,7.878244e-05,-0.00051403046,4.5776367e-05,-4.5776367e-05,0.00018310547
2019-07-01T19:21:17.166Z,-0.009388266,-0.0072896904,0.49744225,0.03111267,-0.22875977,9.801727,19.059753,26.429749,-95.199585,0.03242219,-0.23084325,9.80388,-0.00036089495,0.00063079596,0.00029087067,-0.0001373291,-4.5776367e-05,0.00024414062
2019-07-01T19:21:17.371Z,-0.009368823,-0.007274027,0.49738446,0.03565979,-0.2328186,9.800278,18.89038,27.56195,-92.46826,0.032360792,-0.23035754,9.803891,-0.00029638037,0.00084006786,-0.0018720627,4.5776367e-05,1.5258789e-05,-0.00012207031
2019-07-01T19:21:17.576Z,-0.0093906075,-0.0073238704,0.4975186,0.031829834,-0.23187256,9.8022,19.256592,26.786804,-92.56897,0.03296045,-0.23121938,9.803868,0.0010273606,-0.0018888712,-0.00045585632,0.00010681152,-0.00016784668,0.00012207031
2019-07-01T19:21:17.778Z,-0.009394806,-0.007326301,0.49752903,0.032058716,-0.23066711,9.803879,19.31305,26.434326,-93.77289,0.032958042,-0.23131491,9.803866,-0.00064791366,-0.00012038648,-0.00046539307,-7.6293945e-05,-0.00010681152,0.00012207031
2019-07-01T19:21:17.979Z,-0.00937902,-0.0073489523,0.4975581,0.036376953,-0.23187256,9.803162,18.000793,25.761414,-93.25256,0.033489663,-0.23126854,9.803866,0.00025108084,0.00033266842,0.002245903,-7.6293945e-05,-9.1552734e-05,-6.1035156e-05
2019-07-01T19:21:18.180Z,-0.009382552,-0.007374759,0.4976179,0.033981323,-0.22923279,9.803635,18.807983,25.889587,-93.71185,0.0338782,-0.23158273,9.803857,0.0010690056,-0.00032110512,-0.0005760193,-7.6293945e-05,-0.00010681152,6.1035156e-05
2019-07-01T19:21:18.383Z,-0.009360507,-0.0073519135,0.4975415,0.03302002,-0.23306274,9.803635,18.481445,25.94757,-94.36951,0.033725146,-0.23098186,9.803871,-0.0004576333,0.0014819801,0.00073719025,-1.5258789e-05,1.5258789e-05,0.00012207031
2019-07-01T19:21:18.589Z,-0.009379311,-0.007375739,0.497616,0.032302856,-0.23162842,9.803635,18.241882,25.92926,-94.210815,0.033927012,-0.2315371,9.803858,-0.00041623786,-0.001298368,0.0004911423,-1.5258789e-05,-9.1552734e-05,6.1035156e-05
2019-07-01T19:21:18.791Z,-0.00940246,-0.0073408377,0.49756974,0.03517151,-0.22994995,9.803879,17.842102,26.281738,-95.784,0.033119734,-0.23158851,9.80386,-0.0008152686,-5.1155686e-05,0.00047969818,-1.5258789e-05,7.6293945e-05,0.00035095215
2019-07-01T19:21:18.985Z,-0.009371847,-0.00735706,0.4975666,0.032302856,-0.23138428,9.803146,18.409729,26.315308,-95.42236,0.03369532,-0.23122595,9.803866,0.0014775507,0.0005494952,0.00016498566,4.5776367e-05,0.0001373291,0.00022888184
2019-07-01T19:21:19.189Z,-0.009393955,-0.007326597,0.4975286,0.031585693,-0.23210144,9.8022,18.882751,26.12915,-95.780945,0.03297149,-0.23130327,9.803865,-0.0013840869,0.0003800243,-0.0002117157,-1.5258789e-05,1.5258789e-05,-6.1035156e-05
2019-07-01T19:21:19.391Z,-0.009407666,-0.007325115,0.49754244,0.032546997,-0.23162842,9.804108,18.824768,26.330566,-94.00177,0.032808773,-0.23152259,9.803862,-0.0005034767,-0.000840202,-0.00045967102,0.00010681152,-4.5776367e-05,0.00012207031
2019-07-01T19:21:19.603Z,-0.009408959,-0.007304546,0.49749985,0.033493042,-0.22947693,9.801483,19.64569,26.828003,-94.53735,0.03245762,-0.23134232,9.803867,-0.0006259233,-5.5253506e-05,0.000330925,0.00010681152,1.5258789e-05,6.1035156e-05
2019-07-01T19:21:19.803Z,-0.009363955,-0.0073068757,0.497449,0.031829834,-0.2318573,9.799805,19.812012,26.907349,-94.07654,0.03294997,-0.23059759,9.803884,0.0010348149,0.0015694499,-0.00089740753,-0.0001373291,1.5258789e-05,0.0
2019-07-01T19:21:20.002Z,-0.009385891,-0.0073016006,0.4974649,0.03111267,-0.23425293,9.801483,20.489502,27.532959,-93.59741,0.03264195,-0.23091987,9.803877,-0.0003312491,-0.0009929538,-0.0026769638,-1.5258789e-05,7.6293945e-05,6.1035156e-05
2019-07-01T19:21:20.206Z,-0.0094214855,-0.007310305,0.49752775,0.032302856,-0.23234558,9.80603,18.823242,26.179504,-93.27698,0.032425884,-0.23161262,9.803862,0.001315333,0.00091670454,0.0019540787,0.00016784668,-0.00010681152,0.0
2019-07-01T19:21:20.413Z,-0.009432721,-0.0073084338,0.49753767,0.03302002,-0.23210144,9.802673,18.595886,26.681519,-94.374084,0.032281753,-0.23178585,9.803858,-0.00022249296,-0.00080777705,0.0020933151,0.00010681152,0.0001373291,-0.00012207031
2019-07-01T19:21:20.618Z,-0.00943131,-0.0073166382,0.49755356,0.034454346,-0.23019409,9.8022,17.480469,26.823425,-93.77136,0.032430843,-0.23184249,9.803856,0.00059055537,-0.0005129725,-0.0005207062,-7.6293945e-05,1.5258789e-05,0.00012207031