rotationVector_x,rotationVector_y,rotationVector_z,accelerometer_x,accelerometer_y,accelerometer_z,magneticField_x,magneticField_y,magneticField_z,gravity_x,gravity_y,gravity_z,linearAcceleration_x,linearAcceleration_y,linearAcceleration_z,gyroscope_x,gyroscope_y,gyroscope_z
0.010665871,-0.01214865,0.9917713,0.22732544,-0.20578003,9.810577,2.7694702,-15.823364,-38.928223,0.23773195,-0.20974743,9.801525,0.0010517836,-9.228289e-05,0.0028715134,7.6293945e-05,7.6293945e-05,-0.0001373291
0.010627344,-0.012150895,0.9917818,0.24645996,-0.2033844,9.808182,3.3874512,-16.514587,-38.490295,0.2369714,-0.20990603,9.801538,-0.0017749369,6.766617e-05,0.00016975403,-0.00022888184,1.5258789e-05,-1.5258789e-05
0.010670537,-0.012105829,0.991769,0.22732544,-0.20578003,9.7986145,3.4179688,-15.859985,-38.208008,0.23772061,-0.20889789,9.801543,0.0012928993,0.0019393861,0.0010709763,1.5258789e-05,-6.1035156e-05,-0.00012207031
0.0106214415,-0.012097409,0.9917822,0.2416687,-0.2033844,9.817749,3.2546997,-16.021729,-37.6297,0.23672415,-0.20887993,9.801568,-0.0019925535,-4.425645e-06,-0.0016870499,7.6293945e-05,1.5258789e-05,-0.00019836426
0.010682723,-0.012083507,0.9917652,0.23210144,-0.2033844,9.791428,3.1463623,-16.687012,-37.53357,0.23790854,-0.20842592,9.801548,0.0025173724,0.0010135323,0.003504753,-4.5776367e-05,6.1035156e-05,4.5776367e-05
0.010611958,-0.012091949,0.99178463,0.24406433,-0.20578003,9.812973,2.697754,-15.762329,-38.308716,0.23652236,-0.20880161,9.801575,-0.002768308,0.0001757592,-0.0021238327,-0.00022888184,-4.5776367e-05,-1.5258789e-05
0.010678285,-0.012035866,0.9917653,0.22970581,-0.20578003,9.800995,3.7521362,-15.467834,-38.89618,0.23770446,-0.2075095,9.801573,0.0020075291,0.0024897307,0.0019340515,1.5258789e-05,-6.1035156e-05,-1.5258789e-05
0.010663017,-0.0120392945,0.99176955,0.23928833,-0.21534729,9.796219,3.93219,-15.171814,-38.012695,0.23740931,-0.20762193,9.801578,-0.00055640936,-0.0002747774,-0.0007762909,7.6293945e-05,-0.00010681152,-1.5258789e-05
0.010676384,-0.012077108,0.9917668,0.23449707,-0.21057129,9.796219,3.0212402,-15.817261,-37.730408,0.23776698,-0.20831996,9.801554,0.000750944,-0.0005261898,0.0010757446,-0.00022888184,6.1035156e-05,4.5776367e-05
0.01063443,-0.012100758,0.99177873,0.23928833,-0.21057129,9.812973,4.071045,-14.079285,-36.81488,0.23699047,-0.20890658,9.80156,-0.0018050522,-0.00092214346,-0.00198555,-0.00010681152,-6.1035156e-05,0.00022888184
0.0106811235,-0.012089862,0.9917658,0.24406433,-0.21296692,9.808182,3.4194946,-15.556335,-39.80713,0.23789221,-0.2085547,9.801546,0.0011195987,0.0011245757,0.0002822876,-4.5776367e-05,-0.00012207031,0.00036621094
0.010639723,-0.012064418,0.99177647,0.23210144,-0.2033844,9.8033905,3.2318115,-16.229248,-39.33258,0.23700736,-0.20818163,9.801575,-0.0018056482,0.00096300244,-0.0015707016,-4.5776367e-05,-0.00010681152,-1.5258789e-05
0.01064111,-0.01208761,0.99177665,0.23928833,-0.20817566,9.800995,2.922058,-15.881348,-39.701843,0.23709133,-0.20863008,9.801564,-0.00021989644,-0.00048816204,0.00071907043,-0.00010681152,0.0,0.00016784668
0.010614762,-0.012084414,0.99178374,0.23449707,-0.20817566,9.796219,2.8533936,-15.745544,-39.21814,0.23655978,-0.20864624,9.801577,-0.0006224364,-0.00025184453,-0.0022420883,1.5258789e-05,0.0,0.00022888184
0.010663253,-0.012049642,0.99176973,0.2368927,-0.21057129,9.805786,3.691101,-15.341187,-37.130737,0.23743917,-0.20782314,9.801572,0.0013598651,0.0020440072,0.0005865097,-0.00010681152,6.1035156e-05,4.5776367e-05
0.010651552,-0.01206484,0.99177325,0.23928833,-0.21057129,9.800995,3.0181885,-15.586853,-39.344788,0.23724353,-0.20815462,9.80157,-0.0003604144,-0.00048567355,0.00070762634,-4.5776367e-05,-0.00016784668,-1.5258789e-05
0.010674219,-0.012046721,0.9917667,0.24406433,-0.20578003,9.8033905,3.3950806,-14.703369,-37.28943,0.23765002,-0.20773344,9.801569,0.00017347932,0.0005324185,0.0004749298,7.6293945e-05,-0.00010681152,0.00010681152
0.010685928,-0.012100379,0.9917647,0.2368927,-0.21057129,9.800995,3.2730103,-15.4296875,-38.565063,0.23801328,-0.2087456,9.801538,-0.00016346574,-0.001577884,-0.00094509125,-4.5776367e-05,-0.00022888184,0.00016784668
0.010659968,-0.012117502,0.9917722,0.2416687,-0.20817566,9.800995,3.7445068,-15.765381,-38.2782,0.23753886,-0.2091572,9.801542,-0.0013868064,-0.0013934225,0.0015974045,1.5258789e-05,0.0,-1.5258789e-05
0.010659092,-0.012085695,0.9917717,0.22970581,-0.21534729,9.8033905,3.6880493,-15.185547,-38.53302,0.2374441,-0.20853908,9.801557,-0.00012983382,0.0015987903,0.0023498535,-4.5776367e-05,-0.00018310547,0.00010681152
0.010682424,-0.012093265,0.9917655,0.2368927,-0.21057129,9.8033905,2.9556274,-15.533447,-37.290955,0.23792632,-0.20861721,9.801543,9.544194e-05,-0.00046613812,0.00077819824,7.6293945e-05,-6.1035156e-05,-0.0001373291
0.010682485,-0.012108892,0.99176586,0.23449707,-0.20578003,9.800995,4.512024,-16.513062,-38.687134,0.23796554,-0.20892198,9.801536,6.3210726e-05,-0.0011287481,-0.00060367584,7.6293945e-05,-0.00010681152,0.00010681152
0.010657712,-0.012104394,0.9917725,0.2368927,-0.21296692,9.800995,3.6727905,-15.400696,-38.87787,0.23746212,-0.2089081,9.801548,-0.0010620803,0.000749737,-0.0027990341,-0.00010681152,0.0,-1.5258789e-05
0.010647909,-0.01212111,0.9917755,0.23928833,-0.21534729,9.800995,3.6010742,-15.336609,-38.334656,0.23730789,-0.20926355,9.801545,-0.000693053,-0.0005608499,0.0011701584,-4.5776367e-05,-0.00010681152,0.00010681152
0.0106767295,-0.012117283,0.9917676,0.23928833,-0.2033844,9.7986145,2.645874,-15.260315,-37.75177,0.23787154,-0.20910293,9.801535,0.0011329651,0.0002450049,0.0004644394,-4.5776367e-05,-6.1035156e-05,-7.6293945e-05
0.0107054375,-0.012108787,0.9917596,0.2368927,-0.21057129,9.7986145,2.7053833,-15.768433,-37.40387,0.23842159,-0.20885144,9.801527,0.0013113916,0.00022763014,-0.0009660721,0.0001373291,6.1035156e-05,-1.5258789e-05
0.010734757,-0.012129055,0.9917521,0.23449707,-0.20817566,9.817749,4.119873,-14.804077,-36.660767,0.23905374,-0.20915937,9.801504,-0.0017149299,-0.00029550493,-0.00022411346,1.5258789e-05,0.0,0.00016784668
0.010674645,-0.012126044,0.99176836,0.23928833,-0.20578003,9.810577,2.633667,-15.402222,-38.30719,0.23841017,-0.20976856,9.801507,0.00085400045,-0.00029318035,-0.0012617111,-0.00010681152,6.1035156e-05,-1.5258789e-05
0.010692597,-0.012096759,0.9917628,0.23928833,-0.21774292,9.7986145,4.307556,-15.727234,-38.442993,0.23813707,-0.20865504,9.8015375,-0.00055006146,0.0019337386,-4.9591064e-05,-4.5776367e-05,0.0,0.00010681152
0.0106513,-0.012121544,0.9917746,0.2416687,-0.20578003,9.796219,4.135132,-15.881348,-38.920593,0.23737636,-0.20926191,9.801543,-0.0019421726,-0.0012880713,0.00013256073,0.00019836426,-6.1035156e-05,-0.00019836426
0.010682367,-0.012127602,0.9917663,0.23210144,-0.21057129,9.8033905,3.9611816,-16.33606,-38.09967,0.2380087,-0.20928743,9.801527,0.0012614578,-0.00079484284,-0.00054836273,7.6293945e-05,-6.1035156e-05,0.00010681152
0.010683374,-0.012152418,0.9917666,0.22970581,-0.21296692,9.812973,2.758789,-16.194153,-38.47351,0.23808904,-0.2097687,9.801515,-0.0002527982,-0.0007869452,-4.5776367e-05,-0.00010681152,-0.00010681152,-7.6293945e-05
0.010653832,-0.01212246,0.99177396,0.2368927,-0.20817566,9.800995,4.423523,-16.511536,-39.665222,0.23742892,-0.2092722,9.801541,-0.0012912899,0.00088582933,0.0017185211,7.6293945e-05,-6.1035156e-05,4.5776367e-05
0.010642123,-0.012084965,0.9917763,0.24645996,-0.21534729,9.796219,4.3548584,-15.919495,-41.42914,0.23710503,-0.20857543,9.801564,-0.00047306716,0.00088737905,-0.0017290115,0.0001373291,0.00012207031,-0.0002593994
0.010640257,-0.012101293,0.9917772,0.23928833,-0.2033844,9.8033905,3.3340454,-15.786743,-38.94348,0.23710763,-0.20889965,9.8015585,0.0002437383,-0.0002246499,-0.00019550323,1.5258789e-05,6.1035156e-05,-1.5258789e-05
0.01064297,-0.012066305,0.99177563,0.23449707,-0.20817566,9.796219,2.6351929,-15.403748,-38.08136,0.23707649,-0.20820878,9.801573,-0.00022903085,0.0012782961,0.0025873184,-0.00016784668,-6.1035156e-05,0.00010681152
0.010655667,-0.0120947715,0.99177283,0.2368927,-0.20817566,9.7986145,4.411316,-15.057373,-39.141846,0.23739807,-0.20872642,9.801554,0.00041252375,-0.0008453876,-0.00018405914,1.5258789e-05,0.0,0.00010681152
0.010664553,-0.01210559,0.9917706,0.23928833,-0.2033844,9.796219,3.3203125,-16.305542,-37.991333,0.23760103,-0.20891103,9.801544,-2.5391579e-05,0.0002924353,-0.00075626373,-4.5776367e-05,-0.00010681152,4.5776367e-05
0.0106360605,-0.012103502,0.9917784,0.23928833,-0.21534729,9.805786,3.4759521,-16.290283,-38.598633,0.23702957,-0.20895526,9.8015585,-0.00066255033,-0.00014872849,0.00028514862,-4.5776367e-05,0.0,-1.5258789e-05
0.010619774,-0.012090896,0.9917825,0.23449707,-0.2033844,9.808182,4.4433594,-16.22467,-38.77716,0.23667517,-0.20875779,9.801571,-0.00051787496,0.000598222,-0.0015602112,-4.5776367e-05,0.00012207031,-1.5258789e-05
0.010623305,-0.012051087,0.99178064,0.2368927,-0.20817566,9.800995,4.005432,-15.388489,-37.756348,0.23664862,-0.20797041,9.801588,-3.0323863e-05,0.0017286986,0.001036644,-0.00016784668,-6.1035156e-05,-1.5258789e-05
0.010627152,-0.012045038,0.99177945,0.2368927,-0.20817566,9.796219,3.7200928,-16.427612,-37.73346,0.2367104,-0.20784093,9.80159,0.0001437962,0.00066038966,0.0006942749,-4.5776367e-05,0.0,4.5776367e-05
0.010599705,-0.012045032,0.9917869,0.23449707,-0.21296692,9.810577,2.9403687,-15.8203125,-38.027954,0.23616481,-0.20792256,9.801601,-0.0012298673,-0.00022214651,0.00057411194,7.6293945e-05,0.0,-0.00019836426
0.010611974,-0.012032925,0.9917833,0.2416687,-0.20817566,9.8033905,3.5125732,-15.638733,-38.012695,0.23637924,-0.20764975,9.801601,0.00047431886,-0.00024737418,0.0008831024,0.0001373291,6.1035156e-05,0.00010681152
0.010640423,-0.0120238885,0.99177533,0.23449707,-0.20817566,9.8033905,3.9489746,-14.959717,-37.062073,0.23692276,-0.20738865,9.801594,0.0013537109,0.00021854043,0.000910759,0.0002593994,0.0,0.00010681152
0.010660915,-0.012072412,0.99177086,0.23928833,-0.20817566,9.796219,2.734375,-15.188599,-36.758423,0.23744805,-0.20827445,9.801562,0.00037442148,-0.0015520304,-0.0016241074,-0.00010681152,-6.1035156e-05,0.00010681152
0.010671,-0.012095418,0.99176866,0.23928833,-0.20817566,9.7986145,3.9154053,-15.611267,-37.87384,0.23770449,-0.20869334,9.801548,-0.00036895275,-0.00089012086,-0.00011920929,-4.5776367e-05,-0.00016784668,4.5776367e-05
0.010684126,-0.012099779,0.9917652,0.23928833,-0.21534729,9.808182,3.036499,-15.374756,-38.319397,0.237976,-0.20873927,9.801539,9.304285e-05,0.00057575107,-0.0013437271,-0.00010681152,-0.00022888184,0.00010681152
0.010677232,-0.012099874,0.99176705,0.2368927,-0.21057129,9.800995,3.2546997,-15.716553,-39.45465,0.23783922,-0.2087617,9.801543,-7.495284e-06,0.00013257563,0.0007009506,7.6293945e-05,0.0,4.5776367e-05
0.010638699,-0.0120537905,0.9917765,0.23928833,-0.21534729,9.7986145,4.385376,-15.872192,-37.79602,0.23696119,-0.20797731,9.80158,-0.0012970865,0.0010274351,0.00013446808,-4.5776367e-05,0.00012207031,-0.0001373291
0.010648165,-0.012065888,0.9917742,0.2368927,-0.21057129,9.8033905,3.4683228,-16.360474,-39.14032,0.23717876,-0.20818517,9.801571,0.0004182607,2.0772219e-05,-0.00086307526,7.6293945e-05,0.0,4.5776367e-05
0.010613326,-0.0120838145,0.9917841,0.2368927,-0.2033844,9.8033905,4.722595,-15.481567,-38.18512,0.23652977,-0.20863879,9.801577,-0.0010791272,-0.00096435845,-0.00041484833,-4.5776367e-05,6.1035156e-05,-0.0001373291
0.0105797285,-0.012044789,0.9917923,0.23928833,-0.20817566,9.8033905,1.9989014,-15.301514,-37.882996,0.23576713,-0.20797728,9.80161,-0.001756221,0.0012475401,0.00051784515,-4.5776367e-05,0.0,4.5776367e-05
0.010591295,-0.012077412,0.99178994,0.23928833,-0.21057129,9.805786,3.3370972,-15.940857,-37.91809,0.23607625,-0.20857944,9.801589,0.00057180226,-0.0010301024,-0.0010881424,-4.5776367e-05,6.1035156e-05,-0.00032043457
0.010636833,-0.012063387,0.99177724,0.23449707,-0.20817566,9.805786,3.0395508,-15.5303955,-37.142944,0.23694742,-0.20817015,9.801578,0.0013626516,0.0011995733,0.0013561249,-0.00010681152,-6.1035156e-05,-1.5258789e-05
0.010615944,-0.012058847,0.9917828,0.2368927,-0.20817566,9.800995,4.0252686,-14.72168,-39.057922,0.23652115,-0.20814379,9.801588,-0.0003695339,-0.00025495887,0.000582695,7.6293945e-05,-6.1035156e-05,-1.5258789e-05
0.010620813,-0.012061972,0.99178153,0.23210144,-0.20578003,9.7986145,3.7002563,-14.891052,-38.6261,0.23662552,-0.20819026,9.801584,-1.3142824e-05,0.0005194545,0.0010251999,-4.5776367e-05,0.0,-0.0001373291
0.010620417,-0.012062443,0.99178165,0.23210144,-0.20817566,9.805786,3.0334473,-15.446472,-38.409424,0.23661882,-0.20820063,9.801584,-0.00046001375,-0.00020442903,-0.0015115738,7.6293945e-05,-6.1035156e-05,-1.5258789e-05
0.010613887,-0.012059341,0.9917834,0.23928833,-0.20817566,9.805786,3.263855,-14.053345,-37.530518,0.23648147,-0.20815957,9.801589,-8.72761e-05,0.0004659146,-0.0005283356,7.6293945e-05,6.1035156e-05,-0.00032043457
0.010653223,-0.012060345,0.9917727,0.2368927,-0.2033844,9.8033905,3.17688,-15.800476,-38.638306,0.23726583,-0.20806193,9.801572,0.0015318096,0.00036141276,-0.0006761551,-0.00010681152,-6.1035156e-05,-0.00032043457
0.010619223,-0.012055444,0.99178183,0.22970581,-0.2033844,9.808182,3.541565,-16.651917,-38.52539,0.23657806,-0.2080676,9.801588,-0.0013759136,-0.00034157932,0.000828743,0.0001373291,6.1035156e-05,-0.00024414062
0.010592626,-0.0120513225,0.991789,0.23449707,-0.20817566,9.810577,2.3422241,-15.150452,-35.82611,0.23603934,-0.20806636,9.8016,-0.000603348,-0.00056259334,0.00086021423,1.5258789e-05,0.00012207031,-0.00019836426
0.010577524,-0.012098301,0.99179417,0.2368927,-0.20817566,9.7986145,3.691101,-15.264893,-37.7182,0.23585321,-0.20902805,9.801584,5.991757e-05,-0.0022442043,-0.00038814545,0.00019836426,0.00012207031,-0.00032043457
0.010525981,-0.012066074,0.9918074,0.2368927,-0.21057129,9.800995,3.5720825,-15.843201,-39.11743,0.23475032,-0.2085524,9.8016205,-0.0021882504,0.00087432563,0.00085926056,1.5258789e-05,6.1035156e-05,-0.00019836426
0.010573235,-0.012036586,0.99179393,0.23210144,-0.2033844,9.786652,2.999878,-16.329956,-37.68158,0.23561811,-0.20783651,9.801616,0.00171642,0.00016139448,0.000248909,0.00019836426,-6.1035156e-05,-0.0001373291
0.010590338,-0.012015613,0.9917888,0.23928833,-0.21296692,9.800995,3.4545898,-15.058899,-38.046265,0.23590712,-0.20737635,9.801619,0.00050641596,0.0013575554,-0.0020685196,1.5258789e-05,-6.1035156e-05,-0.00032043457
0.010601155,-0.012034341,0.9917863,0.23928833,-0.20578003,9.800995,3.0593872,-15.396118,-35.305786,0.23616764,-0.2077096,9.801605,0.00072939694,-0.00071403384,-0.0009031296,7.6293945e-05,0.00018310547,-0.0001373291
0.010627118,-0.012015402,0.9917788,0.2368927,-0.20578003,9.7986145,3.591919,-15.481567,-38.589478,0.23663767,-0.20726271,9.801603,0.00071661174,0.0010196865,0.0013132095,-0.00016784668,-0.00010681152,-0.00019836426
0.010627242,-0.012012837,0.9917787,0.23210144,-0.2033844,9.815353,3.3065796,-14.776611,-37.905884,0.23663391,-0.2072123,9.801605,-7.4207783e-06,-0.0004710108,0.0008716583,0.0001373291,-6.1035156e-05,-0.00019836426
0.010604029,-0.012007802,0.9917849,0.23210144,-0.20817566,9.8033905,3.616333,-15.048218,-37.898254,0.23616028,-0.20718317,9.801617,-0.00048281252,-0.00025334954,0.0002603531,7.6293945e-05,0.00012207031,-0.0002593994
0.010606032,-0.012055965,0.99178547,0.23449707,-0.21296692,9.8033905,2.7114868,-15.470886,-38.02185,0.23631713,-0.20811708,9.801594,0.0005478561,-0.0014684945,0.0001745224,0.0001373291,6.1035156e-05,-7.6293945e-05
0.010593256,-0.012036575,0.99178845,0.2416687,-0.20578003,9.7986145,3.0578613,-15.090942,-37.280273,0.23601606,-0.20777673,9.801608,-0.00035190582,0.00059613585,0.0009069443,-0.00016784668,6.1035156e-05,-1.5258789e-05
0.010612737,-0.012028176,0.99178296,0.23449707,-0.20578003,9.800995,2.9403687,-15.821838,-37.652588,0.23638289,-0.20755482,9.801603,0.0011867881,0.00013160706,0.00012111664,1.5258789e-05,0.00012207031,-0.0001373291
0.010664597,-0.012000788,0.99176824,0.24406433,-0.20817566,9.817749,3.1600952,-16.317749,-37.835693,0.2373471,-0.20686582,9.801596,0.0016692132,0.0015830994,-0.0010347366,1.5258789e-05,6.1035156e-05,-7.6293945e-05
0.010660545,-0.012028044,0.99176997,0.23449707,-0.20578003,9.7986145,2.7740479,-16.209412,-36.36322,0.23733282,-0.20740975,9.801583,0.00047428906,-0.00048077106,0.0015487671,-0.00016784668,0.0,-1.5258789e-05
0.010670581,-0.012008985,0.9917668,0.2416687,-0.20578003,9.810577,4.3884277,-15.79895,-37.85553,0.23748593,-0.20700788,9.801588,-0.00014853477,0.0005353838,-0.0015192032,1.5258789e-05,0.0,-7.6293945e-05
0.010638079,-0.011989149,0.9917752,0.2368927,-0.20817566,9.808182,2.911377,-16.253662,-38.79547,0.23679173,-0.20671776,9.801612,-0.0011451244,1.1920929e-05,0.0010566711,7.6293945e-05,0.0,-0.00019836426
0.010646806,-0.012026893,0.99177366,0.2416687,-0.20578003,9.812973,2.709961,-15.46936,-38.249207,0.23705694,-0.20742826,9.80159,0.00028017163,-0.0016836673,-0.001045227,7.6293945e-05,-6.1035156e-05,-1.5258789e-05
0.010636356,-0.012044708,0.99177694,0.2416687,-0.20100403,9.7986145,3.2714844,-15.428162,-38.641357,0.23689254,-0.20780706,9.801586,-0.0009870529,-0.0008188933,-0.00021362305,0.0001373291,-0.00016784668,-1.5258789e-05
0.010671502,-0.012038397,0.9917672,0.24406433,-0.21057129,9.805786,3.652954,-15.989685,-38.468933,0.2375758,-0.2075791,9.801575,0.00048477948,0.0011013895,-0.0002937317,-0.00010681152,-0.00010681152,-0.0001373291
0.01069386,-0.012078231,0.99176204,0.23210144,-0.20578003,9.800995,3.6483765,-16.215515,-37.608337,0.2381171,-0.20828973,9.801546,0.0008853376,-0.0008107126,0.0015602112,-0.00022888184,-0.00016784668,0.00010681152
0.010702931,-0.012089593,0.99175984,0.23210144,-0.21296692,9.8033905,3.8970947,-15.899658,-38.459778,0.23832506,-0.20848437,9.801537,0.00069612265,-0.0006324649,-0.0024347305,1.5258789e-05,-6.1035156e-05,-1.5258789e-05
0.010657018,-0.012132722,0.9917733,0.24645996,-0.20817566,9.793823,3.3233643,-16.081238,-38.85193,0.23751721,-0.20946299,9.801536,-0.0013720542,-0.002271697,0.0006008148,0.0001373291,0.0,-7.6293945e-05
0.010684948,-0.012104678,0.9917651,0.23449707,-0.20578003,9.7986145,3.7597656,-15.551758,-37.55493,0.23800428,-0.20883241,9.8015375,0.00075274706,0.0011675358,0.001042366,1.5258789e-05,0.0,-1.5258789e-05
0.010659051,-0.012087887,0.99177176,0.24406433,-0.20817566,9.805786,3.942871,-16.468811,-39.787292,0.23744863,-0.208582,9.801556,-0.0013104081,0.00043912232,-0.00042247772,7.6293945e-05,-4.5776367e-05,-0.0002593994
0.01069101,-0.01211453,0.99176365,0.23210144,-0.20817566,9.829712,2.9266357,-16.038513,-38.29956,0.23814875,-0.20900658,9.80153,0.000899598,-0.0006070584,-0.003460884,-0.00010681152,-0.00022888184,-7.6293945e-05
0.010716157,-0.012101613,0.9917565,0.24406433,-0.22013855,9.800995,3.0349731,-15.37323,-38.47046,0.2386172,-0.20867942,9.801525,0.0003874004,0.00029423833,0.0035963058,1.5258789e-05,-0.00010681152,4.5776367e-05
0.010712063,-0.012148259,0.9917587,0.2368927,-0.21296692,9.796219,2.456665,-16.007996,-36.98883,0.2386493,-0.20960191,9.801504,-0.0006007403,-0.0023735464,-0.00047016144,0.0001373291,-0.00010681152,-1.5258789e-05
0.010718434,-0.012147694,0.9917569,0.2416687,-0.20578003,9.808182,3.968811,-16.192627,-37.919617,0.23877461,-0.20957188,9.801503,0.00047530234,-0.0007215291,0.00030994415,0.00019836426,-6.1035156e-05,-7.6293945e-05
0.010669575,-0.012117872,0.99176955,0.23449707,-0.21296692,9.793823,2.5909424,-16.351318,-38.497925,0.23773076,-0.20913576,9.8015375,-0.0018491447,0.00053085387,0.0010061264,0.0001373291,6.1035156e-05,-0.0002593994
0.010651391,-0.012084613,0.9917737,0.2368927,-0.20817566,9.805786,3.9886475,-15.522766,-39.219666,0.2372884,-0.20854093,9.80156,-0.0011545271,0.0013631731,-0.00060749054,-4.5776367e-05,6.1035156e-05,-0.00032043457
0.010691089,-0.012095136,0.9917632,0.2368927,-0.21296692,9.808182,2.7374268,-16.479492,-39.437866,0.23810314,-0.20862788,9.801539,0.0016187727,-0.0007033944,-0.00024604797,7.6293945e-05,-0.00010681152,-1.5258789e-05
0.010680707,-0.012104431,0.9917662,0.2416687,-0.21057129,9.805786,3.3248901,-16.00647,-38.987732,0.23791938,-0.20884027,9.801539,-0.0005967319,0.00021414459,0.00032043457,-4.5776367e-05,0.0,-7.6293945e-05
0.01069719,-0.012073369,0.991761,0.2368927,-0.21057129,9.7986145,4.043579,-16.104126,-39.187622,0.23817146,-0.20818491,9.801547,-0.00036674738,0.00076949596,0.00053215027,1.5258789e-05,-0.00010681152,-1.5258789e-05
0.010675021,-0.012040624,0.99176633,0.23928833,-0.20578003,9.805786,4.9682617,-15.242004,-38.749695,0.23765114,-0.20761207,9.801571,-0.0014994293,0.001135692,-0.00203228,7.6293945e-05,-0.00016784668,-1.5258789e-05
0.010674858,-0.012031746,0.99176615,0.22492981,-0.20578003,9.800995,3.753662,-15.696716,-37.65869,0.23762633,-0.20743933,9.801577,0.0006661415,0.00025515258,0.0008764267,1.5258789e-05,0.00012207031,-7.6293945e-05
0.010657802,-0.012040446,0.991771,0.23449707,-0.21534729,9.810577,3.540039,-14.981079,-37.730408,0.23730846,-0.20765994,9.8015785,-0.0009089112,-0.0002539456,-0.0011720657,7.6293945e-05,-6.1035156e-05,-0.00019836426
0.010639561,-0.012065271,0.9917765,0.23449707,-0.20578003,9.8033905,4.2907715,-16.015625,-39.179993,0.2370062,-0.20819874,9.801574,-0.0008511394,-0.001149118,2.3841858e-05,-4.5776367e-05,0.0,-1.5258789e-05
0.010594549,-0.012056036,0.99178857,0.2368927,-0.20817566,9.8033905,4.801941,-15.246582,-39.497375,0.23608904,-0.20815265,9.801599,-0.0013735741,-3.2782555e-07,0.00047969818,-0.00010681152,0.0,-0.00024414062
0.010627196,-0.012059428,0.99177974,0.23449707,-0.2033844,9.796219,4.675293,-16.427612,-39.053345,0.23674622,-0.20812158,9.801582,0.0017908514,-2.4095178e-05,0.00064086914,7.6293945e-05,0.00012207031,-0.00019836426
0.010615992,-0.012037324,0.9917823,0.24406433,-0.2033844,9.812973,2.7786255,-15.527344,-39.624023,0.2364698,-0.20772362,9.801598,-0.0010251701,0.00075021386,-0.0016450882,1.5258789e-05,0.0,-0.0001373291
0.010634692,-0.012005397,0.9917765,0.2368927,-0.21534729,9.8033905,3.919983,-15.237427,-39.231873,0.2367639,-0.20704488,9.801604,0.00058604777,0.0015227944,0.00018596649,-4.5776367e-05,-0.00010681152,-0.00019836426
0.010614349,-0.012024094,0.9917824,0.23449707,-0.21057129,9.810577,3.3432007,-15.490723,-39.486694,0.23640499,-0.20747036,9.801604,-0.00049088895,-0.0006901324,0.00012302399,1.5258789e-05,6.1035156e-05,-0.0001373291
0.010626753,-0.012047681,0.9917796,0.2416687,-0.1986084,9.800995,2.5558472,-15.028381,-40.04059,0.2367089,-0.2078937,9.801589,0.00086304545,-0.00096581876,0.001666069,-0.00010681152,6.1035156e-05,-0.0001373291
0.010630257,-0.012011434,0.99177784,0.24406433,-0.20578003,9.796219,3.2348633,-16.15448,-39.468384,0.23669043,-0.20717593,9.801604,-0.00029280782,0.001415208,-0.0012788773,0.0001373291,6.1035156e-05,-7.6293945e-05
0.010614463,-0.012023999,0.9917824,0.2368927,-0.21057129,9.800995,4.786682,-15.385437,-40.733337,0.23640703,-0.20746815,9.801604,-4.531443e-05,-0.00091418624,0.0016946793,-4.5776367e-05,0.0,0.00010681152
0.010599681,-0.011979234,0.9917854,0.23449707,-0.21057129,9.8033905,3.9978027,-16.746521,-41.204834,0.23600446,-0.20663863,9.801632,-0.00058446825,0.0013652295,-0.0003080368,7.6293945e-05,0.00012207031,-1.5258789e-05
0.010584217,-0.012017089,0.9917905,0.23210144,-0.21296692,9.805786,4.084778,-16.595459,-41.253662,0.23578905,-0.20742337,9.8016205,-0.00015902519,-0.0016632378,0.0015420914,0.0001373291,0.0,-7.6293945e-05
0.010629397,-0.012022428,0.9917783,0.23928833,-0.21057129,9.796219,4.020691,-16.233826,-41.252136,0.23670006,-0.20739302,9.8015995,0.001570031,-1.5586615e-05,-7.915497e-05,-4.5776367e-05,0.0,-0.00019836426
0.010680624,-0.012049689,0.991765,0.23449707,-0.20578003,9.800995,3.6987305,-16.481018,-40.15808,0.23778458,-0.20777225,9.801565,0.0019193888,-0.0010704249,-5.2452087e-05,7.6293945e-05,-6.1035156e-05,-0.00019836426
0.010642954,-0.012037005,0.991775,0.23210144,-0.20817566,9.7986145,3.691101,-16.629028,-40.264893,0.23700497,-0.20763709,9.801587,-0.001591146,0.00046177208,-0.0010004044,1.5258789e-05,0.0,-1.5258789e-05
0.010618254,-0.012028835,0.9917815,0.22970581,-0.20817566,9.810577,3.6209106,-16.4917,-39.77661,0.23649414,-0.20755124,9.801601,-0.00035102665,0.000121206045,-0.0009889603,-4.5776367e-05,0.00012207031,-7.6293945e-05
0.010606279,-0.012015705,0.99178445,0.23449707,-0.21296692,9.815353,3.6056519,-15.037537,-39.256287,0.2362242,-0.20733067,9.801612,-0.00079385936,0.00061394274,-0.000330925,-4.5776367e-05,-6.1035156e-05,-0.00012207031
0.010599099,-0.012069053,0.9917876,0.23928833,-0.20578003,9.796219,3.3691406,-16.879272,-38.864136,0.23621108,-0.20839308,9.801589,0.00017657876,-0.0014328063,-0.0009622574,0.00019836426,6.1035156e-05,-7.6293945e-05
0.010655499,-0.012094461,0.99177283,0.24406433,-0.21774292,9.8033905,3.6880493,-15.261841,-38.171387,0.23739402,-0.2087209,9.801555,0.0018942207,-0.0008890182,-0.0027151108,0.0001373291,-0.00010681152,0.00010681152
0.010667375,-0.012090151,0.99176955,0.22970581,-0.21057129,9.805786,3.1463623,-16.456604,-38.92212,0.2376196,-0.20860134,9.801551,0.0002310276,0.00018449128,0.00026607513,7.6293945e-05,-6.1035156e-05,-1.5258789e-05
0.010662641,-0.01208937,0.9917708,0.23928833,-0.21057129,9.7986145,3.617859,-16.644287,-39.05487,0.2375236,-0.20860022,9.801554,-0.00016531348,-4.1916966e-05,0.00033950806,-4.5776367e-05,-6.1035156e-05,0.00022888184
0.010665336,-0.012093177,0.99177015,0.23449707,-0.21296692,9.784256,3.4484863,-16.7984,-39.154053,0.23758641,-0.20866647,9.80155,-0.00047516823,-0.0004480034,0.0015010834,0.0001373291,-6.1035156e-05,0.00016784668
0.010651668,-0.0120779285,0.99177355,0.2368927,-0.20578003,9.815353,2.935791,-15.664673,-39.12964,0.23727764,-0.20840967,9.801563,-0.0008855313,6.854534e-07,-0.0010766983,7.6293945e-05,-0.00010681152,-1.5258789e-05
0.010626033,-0.012069207,0.9917803,0.23928833,-0.20817566,9.812973,2.9281616,-16.038513,-38.449097,0.23674688,-0.20831588,9.8015785,-0.0010553747,-9.420514e-05,-7.915497e-05,7.6293945e-05,6.1035156e-05,4.5776367e-05
0.010652584,-0.012085311,0.9917734,0.23928833,-0.21296692,9.800995,3.1799316,-15.878296,-37.898254,0.23731384,-0.20855103,9.80156,0.0005120486,-0.00056123734,0.0013866425,7.6293945e-05,-0.00022888184,-7.6293945e-05
0.010661363,-0.012086562,0.9917711,0.23928833,-0.20817566,9.7986145,3.0166626,-15.661621,-39.13269,0.23749137,-0.20854925,9.801556,0.00056554377,0.0003963709,-0.00018310547,-0.00010681152,6.1035156e-05,-0.00019836426
0.010635609,-0.012110895,0.9917786,0.2416687,-0.20578003,9.805786,3.7826538,-16.560364,-38.893127,0.23703854,-0.20910086,9.801555,-0.00042799115,-0.0014368892,0.0009813309,1.5258789e-05,6.1035156e-05,-0.0001373291
0.010646926,-0.012119865,0.99177575,0.23449707,-0.21057129,9.796219,3.9459229,-14.653015,-39.11438,0.23728533,-0.20924218,9.801546,0.00028976798,-0.0012984723,-0.0003080368,0.0002593994,-0.00010681152,-0.0002593994
0.010680833,-0.01214188,0.99176705,0.23449707,-0.2033844,9.8033905,3.4118652,-16.00647,-38.160706,0.2380129,-0.20957063,9.80152,0.0010021925,-0.0009750128,-0.0005197525,0.0001373291,6.1035156e-05,-0.00030517578
0.01067621,-0.012086539,0.99176705,0.22732544,-0.2033844,9.800995,4.412842,-15.058899,-38.83972,0.23778646,-0.20850453,9.80155,2.7820468e-05,0.0020421594,0.0009202957,7.6293945e-05,0.0,-0.0002593994
0.010670973,-0.012009805,0.99176675,0.2368927,-0.21774292,9.791428,3.4439087,-15.274048,-38.391113,0.23749574,-0.20702274,9.801588,-0.0003799051,0.003412515,-0.0014600754,-0.00010681152,0.00012207031,-0.0001373291
0.010674638,-0.011996589,0.99176544,0.23928833,-0.21057129,9.796219,4.1275024,-16.178894,-38.37738,0.2375364,-0.2067539,9.801592,0.00030447543,0.00049699843,-0.0006504059,7.6293945e-05,6.1035156e-05,0.00024414062
0.010645828,-0.012002119,0.99177337,0.2416687,-0.20100403,9.808182,3.5095215,-15.486145,-38.739014,0.23697728,-0.20694774,9.801602,-0.00083835423,-0.00072292984,0.001953125,-4.5776367e-05,6.1035156e-05,-0.00019836426
0.010643762,-0.012000198,0.9917739,0.2368927,-0.20817566,9.800995,3.829956,-15.690613,-37.96234,0.2369315,-0.20691639,9.801603,0.00015878677,0.00021570921,0.00082302094,1.5258789e-05,6.1035156e-05,0.00010681152
0.010612927,-0.012015664,0.99178267,0.2368927,-0.20817566,9.805786,2.8656006,-15.605164,-38.2843,0.23635624,-0.20731008,9.801609,-0.0011796057,-0.0015497804,-0.0007381439,0.0001373291,-6.1035156e-05,-0.0001373291
0.010597247,-0.012038683,0.99178743,0.2368927,-0.20817566,9.796219,1.9592285,-14.814758,-35.14099,0.23610051,-0.20780598,9.801605,-0.00092567503,-0.0012962967,0.00014972687,7.6293945e-05,-6.1035156e-05,-1.5258789e-05
0.010614842,-0.01203803,0.99178267,0.24406433,-0.2033844,9.808182,4.194641,-14.56604,-38.72986,0.23644868,-0.20774084,9.801599,0.0008916557,0.0010218173,-0.0011672974,-0.00010681152,6.1035156e-05,-0.0002593994
0.010669566,-0.012027259,0.9917675,0.23210144,-0.20578003,9.805786,3.086853,-15.795898,-39.842224,0.23751022,-0.20736754,9.80158,0.0014943779,0.00041662157,0.0011377335,1.5258789e-05,-0.00010681152,0.00012207031
0.010676234,-0.0120483115,0.99176615,0.24406433,-0.20817566,9.812973,3.7506104,-15.542603,-38.83667,0.23769395,-0.20775846,9.801567,0.0001206547,-0.00038276613,-2.9563904e-05,-4.5776367e-05,-6.1035156e-05,-0.0002593994
0.0106763495,-0.01203762,0.9917659,0.23210144,-0.20578003,9.824936,4.3914795,-15.496826,-39.230347,0.23767026,-0.2075495,9.801573,-8.773804e-05,0.00083205104,-0.0009727478,-0.00016784668,-6.1035156e-05,-0.0002593994
0.01063583,-0.0120255845,0.99177665,0.23449707,-0.21774292,9.820145,3.930664,-15.092468,-38.676453,0.2368356,-0.20743543,9.801595,-0.0023477376,-0.00073215365,-0.0014543533,0.0001373291,-0.00010681152,-7.6293945e-05
0.010612401,-0.012073248,0.9917841,0.2368927,-0.20817566,9.784256,2.9556274,-15.380859,-38.16681,0.23648572,-0.20843534,9.801582,-0.0010616183,-0.0018616021,0.0020666122,1.5258789e-05,-6.1035156e-05,0.00016784668
0.010636958,-0.012070976,0.99177736,0.2368927,-0.2033844,9.789032,3.9169312,-15.460205,-38.44757,0.23696834,-0.20831785,9.801573,0.00059607625,-0.00029088557,0.0008993149,0.0001373291,-0.00022888184,0.00012207031
0.010640647,-0.012083854,0.99177665,0.2416687,-0.21296692,9.817749,3.6560059,-16.145325,-37.29248,0.23707297,-0.20855816,9.801565,-0.00022163987,-0.0010154247,-0.00035762787,0.00019836426,-0.00016784668,-1.5258789e-05
0.010640495,-0.012092662,0.9917769,0.23928833,-0.21057129,9.817749,4.2510986,-15.06958,-39.0625,0.23709138,-0.2087305,9.801561,0.00024734437,-0.0001385361,-0.0011949539,-4.5776367e-05,6.1035156e-05,-1.5258789e-05
0.010620219,-0.012056934,0.9917816,0.2368927,-0.20817566,9.796219,3.5186768,-15.341187,-38.407898,0.23660146,-0.2080937,9.801586,-0.0004773885,0.001153484,0.002067566,1.5258789e-05,0.00012207031,-7.6293945e-05
0.010629881,-0.012022184,0.9917782,0.23449707,-0.20578003,9.7986145,3.7567139,-15.470886,-38.44452,0.23670909,-0.20738682,9.8015995,0.00015610456,0.0009137392,-0.0019721985,1.5258789e-05,6.1035156e-05,-0.00019836426
0.010634743,-0.012022786,0.9917769,0.2416687,-0.20817566,9.808182,3.565979,-15.991211,-38.99536,0.2368072,-0.20738408,9.801598,-0.0004337281,-0.00052033365,0.00028324127,0.0002593994,-0.00010681152,-1.5258789e-05
0.01065668,-0.012037985,0.9917713,0.2416687,-0.22253418,9.808182,3.0471802,-15.080261,-38.56201,0.23728018,-0.20761527,9.80158,0.00053843856,-5.6400895e-05,0.00034809113,-4.5776367e-05,-0.00010681152,-1.5258789e-05
0.010632812,-0.012014662,0.99177724,0.23449707,-0.2033844,9.810577,4.211426,-16.098022,-38.438416,0.23716888,-0.2075084,9.801586,0.00064586103,-0.00015990436,0.0013875961,-4.5776367e-05,0.0,0.00010681152
0.010648821,-0.012032637,0.99177325,0.23210144,-0.20100403,9.8033905,3.8009644,-16.348267,-37.94403,0.23711094,-0.20753434,9.801586,-0.0005068928,0.00035895407,0.0004529953,1.5258789e-05,-0.00010681152,0.00010681152
0.010630739,-0.012039654,0.9917784,0.23449707,-0.21057129,9.800995,4.396057,-15.501404,-38.55133,0.2367686,-0.20772518,9.801591,-0.0011158139,-0.0008932501,-0.0008172989,-4.5776367e-05,-0.00016784668,4.5776367e-05
0.010644752,-0.012051528,0.9917748,0.2368927,-0.20817566,9.815353,4.6051025,-14.546204,-37.835693,0.237076,-0.20791513,9.801579,0.00024236739,2.5138259e-05,0.0010585785,1.5258789e-05,-6.1035156e-05,0.00010681152
0.010656796,-0.012060551,0.99177176,0.23449707,-0.20817566,9.8033905,2.835083,-16.261292,-38.568115,0.23733735,-0.20805529,9.80157,0.00048169494,-0.0008068681,-0.0010576248,0.0001373291,-6.1035156e-05,-0.00019836426
0.010633847,-0.012085945,0.99177855,0.2368927,-0.2033844,9.7986145,3.086853,-16.026306,-38.378906,0.2369429,-0.20861925,9.801568,-0.00080159307,-0.0014336258,-6.580353e-05,-4.5776367e-05,-6.1035156e-05,-7.6293945e-05
0.010622771,-0.012091748,0.9917817,0.2368927,-0.2033844,9.800995,3.8574219,-15.106201,-37.77008,0.23673683,-0.20876549,9.80157,-0.0008330941,0.00037007034,-0.00051403046,-4.5776367e-05,-6.1035156e-05,-1.5258789e-05
0.010646722,-0.012034755,0.9917739,0.23928833,-0.2033844,9.7986145,4.3930054,-15.803528,-37.17804,0.23707436,-0.20758192,9.801585,0.001219824,0.0023036748,0.00044631958,-4.5776367e-05,0.00018310547,0.00016784668
0.01064597,-0.012044084,0.9917743,0.23210144,-0.20817566,9.810577,3.8024902,-16.12091,-39.18152,0.23708212,-0.20776623,9.801582,-0.00044693053,-0.0006418377,-0.001613617,7.6293945e-05,-0.00016784668,-0.00019836426
0.010680533,-0.012018095,0.9917643,0.23210144,-0.20578003,9.808182,3.0273438,-15.672302,-37.69989,0.23770589,-0.20715597,9.801579,0.0006034225,0.0011472404,0.0003633499,-4.5776367e-05,-6.1035156e-05,-7.6293945e-05
0.01067434,-0.011975716,0.991765,0.23210144,-0.21534729,9.800995,3.5766602,-15.846252,-38.664246,0.23747972,-0.20634747,9.801602,-0.001328066,0.0013053417,0.00057315826,0.0001373291,-0.00035095215,-7.6293945e-05
0.010667801,-0.012007989,0.9917675,0.2416687,-0.20578003,9.793823,4.525757,-14.628601,-37.171936,0.23742826,-0.20699677,9.80159,0.00014695525,-0.0011487007,0.00085926056,1.5258789e-05,6.1035156e-05,-7.6293945e-05
0.010638526,-0.012038671,0.9917762,0.24406433,-0.21296692,9.7986145,4.396057,-15.653992,-37.826538,0.236921,-0.20768279,9.801588,-0.0007753223,-0.00046668947,-0.0003786087,-0.00016784668,0.0,0.00010681152
0.010674102,-0.012071741,0.9917673,0.23928833,-0.21057129,9.810577,3.692627,-14.883423,-39.605713,0.23770855,-0.20822202,9.801557,0.0015579015,-0.00112468,-0.0007314682,-0.00010681152,6.1035156e-05,-1.5258789e-05
0.01066957,-0.012056087,0.9917682,0.2368927,-0.21534729,9.7986145,3.2470703,-16.090393,-38.24768,0.23758043,-0.20793009,9.801567,0.00024041533,0.00074476004,0.0009441376,-4.5776367e-05,6.1035156e-05,0.00010681152
0.010643091,-0.012046988,0.99177516,0.23928833,-0.20100403,9.796219,2.8182983,-16.549683,-39.152527,0.23703194,-0.20783146,9.801581,-0.0011235476,0.00014898181,-0.0008058548,-4.5776367e-05,0.00012207031,-1.5258789e-05
0.010635345,-0.012073367,0.99177784,0.2368927,-0.2033844,9.796219,4.0039062,-15.386963,-37.90741,0.2369421,-0.20836931,9.801573,-0.0001064986,-0.0007174313,0.0028123856,7.6293945e-05,-6.1035156e-05,0.00012207031
0.010613719,-0.012053878,0.9917833,0.23449707,-0.21296692,9.8033905,2.8640747,-15.678406,-38.072205,0.23646484,-0.20805344,9.801591,-0.0012719035,0.00085783005,-0.002913475,-0.00010681152,-6.1035156e-05,-0.0001373291
0.010612233,-0.012021397,0.99178296,0.24406433,-0.20578003,9.7986145,3.0273438,-15.518188,-38.726807,0.23635639,-0.20742404,9.801607,-0.0002091527,0.0011805743,0.00061035156,-4.5776367e-05,0.0,-0.00019836426
0.010667954,-0.012024652,0.9917679,0.2416687,-0.20817566,9.812973,3.4317017,-15.415955,-38.946533,0.23747183,-0.20732148,9.801582,0.002009526,0.00036728382,0.00057315826,-4.5776367e-05,-0.00010681152,-7.6293945e-05
0.010647792,-0.012042645,0.9917738,0.2368927,-0.2033844,9.7986145,3.8406372,-15.396118,-38.130188,0.23711483,-0.20773269,9.801581,-0.0009699911,-0.00041607022,-0.00040626526,1.5258789e-05,0.0,-7.6293945e-05
0.0105674155,-0.011992765,0.9917945,0.2368927,-0.21057129,9.8033905,4.133606,-16.107178,-38.134766,0.23539601,-0.20699869,9.801639,-0.0011373907,0.00025238097,-0.00088119507,0.0001373291,0.00012207031,-0.00012207031
0.010577845,-0.012009855,0.9917921,0.2368927,-0.21296692,9.812973,2.4765015,-15.339661,-38.363647,0.23564483,-0.20730115,9.801626,5.8695674e-05,-0.00088882446,-0.0009012222,7.6293945e-05,-0.00010681152,-0.00036621094
0.01057449,-0.011997238,0.9917927,0.2368927,-0.20817566,9.800995,2.9205322,-16.184998,-38.17749,0.2355475,-0.20706493,9.801634,-0.0003555864,-0.00012978911,0.0032224655,7.6293945e-05,-0.00010681152,0.00010681152
0.010609457,-0.0119672725,0.9917825,0.23928833,-0.2033844,9.810577,2.5299072,-15.917969,-38.33313,0.2361697,-0.20637612,9.801634,0.00095921755,0.0013201833,-0.0011968613,-4.5776367e-05,0.0,-0.0002593994
0.010603342,-0.011979789,0.99178445,0.2368927,-0.20817566,9.7986145,3.6636353,-15.467834,-39.87274,0.23607856,-0.20663856,9.80163,8.317828e-05,-0.00080786645,0.00047016144,0.0001373291,-6.1035156e-05,0.00016784668
0.010630503,-0.011996011,0.9917774,0.23928833,-0.20578003,9.808182,3.4362793,-15.344238,-38.632202,0.23665781,-0.20687422,9.801611,0.0011723638,-0.00031930208,0.00079250336,-0.00010681152,0.00012207031,-1.5258789e-05
0.010639763,-0.01202909,0.99177563,0.23928833,-0.20100403,9.7986145,2.8945923,-15.174866,-37.14142,0.23692231,-0.20749213,9.801592,0.00016462803,-0.0011128336,0.0021295547,1.5258789e-05,-6.1035156e-05,-7.6293945e-05
0.0106696775,-0.011997863,0.9917668,0.23928833,-0.21057129,9.7986145,2.89917,-15.026855,-37.260437,0.23744093,-0.20679355,9.801594,0.0008267313,0.002026543,0.0007953644,-0.00022888184,-0.00016784668,-1.5258789e-05
0.0106819505,-0.011976969,0.991763,0.23210144,-0.2033844,9.7986145,3.8284302,-15.689087,-38.189697,0.23763402,-0.20634922,9.801599,-0.0003106594,0.0006059855,-0.0013895035,7.6293945e-05,-0.00010681152,-0.0001373291
0.010677617,-0.0120105995,0.99176496,0.23449707,-0.2033844,9.8033905,3.4103394,-15.545654,-41.012573,0.23744945,-0.20769118,9.801575,-0.00011438131,-0.0016631037,0.0005502701,-4.5776367e-05,6.1035156e-05,-7.6293945e-05
0.010656208,-0.012052452,0.9917717,0.2368927,-0.20817566,9.808182,4.319763,-15.05127,-40.722656,0.23730598,-0.20789902,9.801575,-0.0006905198,-3.516674e-06,0.00022029877,1.5258789e-05,-0.00016784668,-1.5258789e-05
0.010675555,-0.012058962,0.9917666,0.23928833,-0.20578003,9.800995,3.6010742,-15.412903,-37.971497,0.23770635,-0.20796832,9.801562,0.00035698712,5.3927302e-05,-0.0011301041,-4.5776367e-05,-0.00010681152,-1.5258789e-05
0.010643955,-0.012040488,0.9917748,0.23928833,-0.20817566,9.815353,3.7902832,-16.337585,-39.37683,0.23703332,-0.20770206,9.801584,-0.0013578534,0.00072690845,-0.0005893707,-4.5776367e-05,0.00012207031,-1.5258789e-05
0.010641645,-0.0120384395,0.99177533,0.2416687,-0.20100403,9.796219,4.4525146,-16.004944,-38.883972,0.2369824,-0.20766896,9.801586,0.00013582408,-1.7359853e-05,0.0005607605,-0.00010681152,-0.00010681152,-1.5258789e-05
0.010657005,-0.01206035,0.9917717,0.23449707,-0.20817566,9.805786,4.7439575,-14.89563,-38.441467,0.23734102,-0.20805074,9.80157,0.0012064427,-0.0008213073,0.00036907196,0.0001373291,0.00012207031,-7.6293945e-05
0.01061957,-0.012043213,0.9917815,0.23928833,-0.21057129,9.7986145,2.2735596,-16.148376,-39.12506,0.23655523,-0.2078279,9.801594,-0.0013573468,0.0006278753,-0.0005578995,-4.5776367e-05,0.00012207031,-1.5258789e-05
0.0106134135,-0.012066777,0.9917837,0.23449707,-0.20817566,9.8033905,3.8284302,-15.689087,-38.189697,0.2364901,-0.20830604,9.801584,-0.00034204125,-0.0010356009,0.000910759,-4.5776367e-05,-0.00010681152,-7.6293945e-05
0.010607358,-0.012074027,0.99178547,0.23928833,-0.20578003,9.800995,2.9525757,-15.5303955,-37.667847,0.23638734,-0.20846556,9.801583,0.00047816336,-0.00017440319,-3.8146973e-05,7.6293945e-05,0.00018310547,-0.00019836426
0.010617619,-0.012085372,0.99178296,0.23210144,-0.20578003,9.8033905,3.0838013,-16.174316,-38.180542,0.2366189,-0.2086564,9.801575,0.0011980981,-0.0004479289,0.0007715225,-0.00010681152,0.00012207031,-1.5258789e-05
0.010571726,-0.012044525,0.9917945,0.23210144,-0.1986084,9.796219,3.5354614,-15.054321,-37.820435,0.23560742,-0.20799594,9.801614,-0.0013737082,0.0007985532,-0.0014181137,0.0001373291,0.00024414062,-0.00019836426
0.010605963,-0.012031107,0.9917849,0.24406433,-0.2033844,9.808182,2.9632568,-15.232849,-38.513184,0.23625536,-0.20763218,9.801605,0.0008677989,0.0013758838,-0.00045967102,-0.00010681152,0.0,-0.0001373291
0.010621783,-0.01207783,0.99178165,0.24406433,-0.21057129,9.7986145,3.2653809,-15.727234,-38.02185,0.23668337,-0.20849682,9.801577,0.0006657988,-0.0018157363,0.00018310547,1.5258789e-05,-0.00022888184,-0.0001373291
0.010646619,-0.012066701,0.9917746,0.23449707,-0.20578003,9.808182,3.4866333,-15.99884,-38.842773,0.23714998,-0.20820564,9.801571,0.0009165555,-0.00019979477,-4.673004e-05,7.6293945e-05,0.00012207031,-0.00024414062
0.010631185,-0.012025356,0.9917779,0.2368927,-0.19621277,9.800995,4.928589,-14.523315,-37.84485,0.23674272,-0.20744485,9.801598,-0.00034624338,0.0011968762,0.00060367584,0.00019836426,6.1035156e-05,-7.6293945e-05
0.010624802,-0.012027273,0.9917797,0.23449707,-0.20578003,9.810577,3.8497925,-15.176392,-38.311768,0.2366205,-0.20750126,9.8015995,4.4703484e-08,-0.00064980984,0.0003862381,1.5258789e-05,0.00012207031,-0.00012207031
0.01064641,-0.012053041,0.9917744,0.23928833,-0.20578003,9.800995,3.6514282,-16.139221,-37.971497,0.23711264,-0.2079397,9.801578,0.001194045,-0.0009352863,-0.0006914139,7.6293945e-05,0.0,-0.00019836426
0.010653097,-0.012051583,0.99177253,0.2416687,-0.21057129,9.805786,2.9388428,-15.516663,-39.6286,0.23724201,-0.20789132,9.801576,-0.000381276,0.00070495903,0.0009832382,-0.00010681152,-0.00010681152,-7.6293945e-05
0.010654951,-0.0120598795,0.99177223,0.23449707,-0.20100403,9.793823,3.5491943,-14.685059,-38.198853,0.23729904,-0.20804769,9.801571,5.5775046e-05,-0.00011840463,-0.0017442703,-4.5776367e-05,-6.1035156e-05,-0.00019836426
0.010618867,-0.012002236,0.99178076,0.24645996,-0.20578003,9.786652,3.2730103,-15.4296875,-38.490295,0.23644169,-0.20703036,9.801613,-0.0012408644,0.0017350912,0.00027561188,-0.00010681152,0.00012207031,-0.00019836426
0.010604153,-0.012017525,0.99178505,0.2368927,-0.20817566,9.796219,3.85437,-15.104675,-38.072205,0.23618637,-0.20737252,9.801612,-0.00052058697,-0.0012573004,0.0006580353,0.00019836426,0.0,-0.0001373291
0.010596921,-0.012017458,0.991787,0.2416687,-0.20578003,9.808182,4.576111,-15.049744,-38.76953,0.23604244,-0.20739275,9.801615,0.00013317168,-0.000538826,-0.0018072128,0.0001373291,0.00018310547,-0.0002593994
0.010621497,-0.012037435,0.9917808,0.2368927,-0.20817566,9.808182,2.268982,-16.4505,-37.901306,0.23657952,-0.2077094,9.801596,0.0010367036,-0.00094486773,-0.00056552887,1.5258789e-05,-6.1035156e-05,-7.6293945e-05
0.010611173,-0.012066624,0.9917843,0.2368927,-0.20578003,9.800995,3.5186768,-15.342712,-38.331604,0.2364452,-0.20830975,9.801586,-0.00027047098,-0.0010553896,0.00058078766,7.6293945e-05,0.00012207031,-0.00032043457
0.010606542,-0.012056892,0.99178535,0.2368927,-0.21296692,9.7986145,3.5095215,-15.635681,-38.389587,0.23632953,-0.20813364,9.801593,0.00029625,-2.1964312e-05,0.0018148422,7.6293945e-05,-0.00010681152,-0.00032043457
0.010590384,-0.012103049,0.9917908,0.2368927,-0.20578003,9.8033905,3.9855957,-15.52124,-39.520264,0.23612039,-0.20908242,9.801577,3.838539e-05,-0.002191186,-0.0005455017,1.5258789e-05,0.00024414062,-0.0002593994
0.010582297,-0.012096337,0.9917928,0.23210144,-0.20817566,9.805786,3.5049438,-15.786743,-37.51526,0.23594335,-0.20897554,9.801584,-0.00076039135,-0.00013373792,0.0012245178,0.00019836426,-6.1035156e-05,-0.00032043457
0.010564267,-0.012110646,0.99179804,0.23210144,-0.20817566,9.810577,3.7643433,-15.174866,-39.06555,0.23561963,-0.2093084,9.801585,-0.00043682754,-4.480779e-05,2.5749207e-05,-0.00016784668,0.00012207031,-0.00036621094
0.010581285,-0.012103969,0.9917933,0.2368927,-0.21057129,9.789032,4.324341,-15.361023,-38.44452,0.23594174,-0.20912747,9.80158,0.0006596148,-0.00044068694,0.0012836456,7.6293945e-05,0.0,-0.0001373291
0.010567538,-0.01205152,0.9917958,0.23928833,-0.20817566,9.796219,3.35083,-15.649414,-37.85858,0.23554112,-0.20814487,9.801611,-0.0008355826,0.0016792119,-0.0008955002,0.0001373291,0.0,-0.00019836426
0.010575073,-0.01208144,0.9917944,0.23928833,-0.20578003,9.815353,2.9281616,-15.963745,-38.433838,0.23576356,-0.20870633,9.801595,0.0011154115,-0.00066262484,-0.001871109,-0.00016784668,0.0,0.00016784668
0.010607266,-0.012058763,0.99178517,0.23449707,-0.2033844,9.805786,4.0771484,-15.45105,-38.375854,0.23634844,-0.20816797,9.801591,0.0012358725,0.0014491528,0.0009832382,7.6293945e-05,0.0001373291,-0.00019836426
0.010586342,-0.012004455,0.99178964,0.24645996,-0.21534729,9.805786,3.9276123,-15.318298,-37.815857,0.23644403,-0.20738246,9.801606,0.0018259436,-2.5972724e-05,0.0018148422,-0.00016784668,0.00018310547,-1.5258789e-05
0.010636009,-0.0120510645,0.9917772,0.2368927,-0.21534729,9.8033905,4.211426,-16.021729,-38.95111,0.23690109,-0.20793213,9.801583,0.0008998662,-0.0011582673,-0.00038814545,1.5258789e-05,6.1035156e-05,4.5776367e-05
0.010620814,-0.012066986,0.99178165,0.24645996,-0.20817566,9.805786,3.8589478,-15.032959,-37.82959,0.23663773,-0.20828809,9.801581,-0.00076396763,-0.0010270178,0.0003824234,1.5258789e-05,-0.00016784668,-0.0001373291
0.01063225,-0.012068906,0.9917786,0.23449707,-0.21296692,9.796219,4.9362183,-16.201782,-37.50763,0.23686972,-0.20829147,9.801576,0.00092704594,-0.0003068745,-6.580353e-05,0.0001373291,0.00018310547,-7.6293945e-05
0.010608205,-0.012074497,0.9917853,0.23928833,-0.21057129,9.8033905,3.4439087,-15.275574,-38.24005,0.23640531,-0.2084722,9.801583,-0.0012243092,-0.0003913045,-0.0019655228,1.5258789e-05,-6.1035156e-05,-7.6293945e-05
0.010630378,-0.012087533,0.9917795,0.22732544,-0.20817566,9.810577,3.5064697,-15.783691,-37.893677,0.23687777,-0.20866056,9.801568,0.0007008314,-0.00020472705,-0.00018787384,1.5258789e-05,0.0,-0.0001373291
0.01059857,-0.012080351,0.991788,0.24406433,-0.21296692,9.812973,4.1137695,-16.467285,-38.51013,0.23622803,-0.20861515,9.801585,-0.0008125007,4.3213367e-06,0.0009889603,-0.00010681152,6.1035156e-05,-7.6293945e-05
0.01059911,-0.012127819,0.9917889,0.24406433,-0.21057129,9.805786,3.791809,-16.18805,-39.875793,0.23635404,-0.20953983,9.801562,1.6316772e-05,-0.0017049015,0.00049972534,0.0001373291,-6.1035156e-05,-0.0001373291
0.010598675,-0.012117875,0.99178886,0.2368927,-0.21057129,9.7986145,3.9993286,-15.155029,-39.823914,0.23632124,-0.20934708,9.801567,-0.00045855343,-0.00020204484,0.0016145706,-4.5776367e-05,-4.5776367e-05,-0.00019836426
0.0106326565,-0.0121098505,0.99177945,0.2416687,-0.20817566,9.796219,3.1311035,-16.671753,-39.56909,0.23697731,-0.20908928,9.801557,0.0010484904,2.682209e-06,-0.0010004044,0.0001373291,-0.00010681152,-7.6293945e-05
0.010650709,-0.012111411,0.99177456,0.24885559,-0.21057129,9.8033905,4.067993,-15.594482,-38.783264,0.23733997,-0.20906593,9.801548,0.00069363415,0.00021649897,-0.0006656647,1.5258789e-05,0.0,-0.0001373291
0.010695241,-0.012116706,0.9917626,0.23928833,-0.20817566,9.808182,4.3777466,-15.940857,-38.414,0.23823816,-0.20903642,9.801528,0.0014497936,0.0009251535,0.001955986,-0.00016784668,-0.00010681152,0.00010681152
0.01070107,-0.012096436,0.9917605,0.2416687,-0.20817566,9.78186,4.309082,-15.72876,-38.293457,0.2383047,-0.20862345,9.801535,-0.0007683784,0.0005121827,3.71933e-05,1.5258789e-05,-0.00016784668,-0.00019836426
0.010714255,-0.012096139,0.9917569,0.23449707,-0.20578003,9.827316,3.7872314,-16.487122,-39.02893,0.23856609,-0.20857829,9.801529,-9.7587705e-05,6.0349703e-06,0.0011386871,1.5258789e-05,-0.00022888184,0.00010681152
0.01070447,-0.012101885,0.9917597,0.22970581,-0.21296692,9.820145,3.3584595,-15.2771,-38.83972,0.23838553,-0.20871963,9.80153,-0.00061038136,0.0008571297,-0.000664711,-0.00022888184,-6.1035156e-05,-1.5258789e-05
0.0106880795,-0.012088993,0.9917639,0.23449707,-0.21296692,9.7986145,4.1992188,-16.238403,-39.144897,0.23802836,-0.20851699,9.801543,-0.0011873692,0.00038662553,-0.0021896362,1.5258789e-05,-6.1035156e-05,-7.6293945e-05
0.010698143,-0.012107062,0.99176157,0.2368927,-0.20817566,9.805786,3.8757324,-16.259766,-39.060974,0.23827238,-0.20883957,9.801531,0.0007161647,-0.0004927665,0.00028896332,1.5258789e-05,-6.1035156e-05,-0.00019836426
0.010697249,-0.012110146,0.99176186,0.23449707,-0.20578003,9.808182,3.503418,-15.783691,-37.893677,0.23826209,-0.20890239,9.801529,-0.00045843422,-0.0006634444,-0.0004386902,0.0001373291,-6.1035156e-05,-7.6293945e-05
0.010662551,-0.012041402,0.99176973,0.2368927,-0.21296692,9.800995,4.6203613,-15.997314,-38.209534,0.23740518,-0.20766445,9.801577,-0.0010443777,0.0026397258,-0.00045967102,-0.00010681152,0.00018310547,-0.00032043457
0.010678974,-0.012034827,0.99176514,0.23928833,-0.21057129,9.796219,3.7216187,-16.123962,-39.256287,0.23771562,-0.20748715,9.801573,0.0008211881,5.863607e-05,-0.00078868866,7.6293945e-05,6.1035156e-05,-0.0002593994
0.010653791,-0.012024553,0.99177176,0.2416687,-0.2033844,9.805786,4.3060303,-15.95459,-37.43286,0.23719008,-0.20736176,9.801588,-0.001051709,0.00017988682,0.0002670288,-4.5776367e-05,-6.1035156e-05,-0.0001373291
0.010646957,-0.012026214,0.99177366,0.23210144,-0.21057129,9.8033905,3.3737183,-14.987183,-38.40332,0.23705828,-0.20741455,9.80159,1.6108155e-05,0.00025483966,0.0021018982,-4.5776367e-05,6.1035156e-05,4.5776367e-05
0.010624053,-0.012030971,0.99178,0.23928833,-0.21774292,9.7986145,3.2546997,-15.869141,-38.352966,0.23661458,-0.20757563,9.801597,-0.00047187507,0.00014592707,-0.0024347305,-0.00016784668,0.00012207031,-7.6293945e-05
0.010677538,-0.012038656,0.9917656,0.2368927,-0.20578003,9.7986145,3.8604736,-14.958191,-37.963867,0.2376964,-0.20756616,9.801572,0.0015393645,-0.0005635917,0.001572609,0.00019836426,-0.00010681152,-7.6293945e-05
0.010647747,-0.012006953,0.991773,0.2416687,-0.20578003,9.800995,3.1478882,-14.710999,-38.264465,0.23702715,-0.20703635,9.801599,-0.0016043484,0.0007991195,-0.0013418198,1.5258789e-05,-0.00012207031,-1.5258789e-05
0.01065791,-0.012034502,0.99177086,0.23449707,-0.20817566,9.800995,3.8482666,-15.25116,-38.101196,0.23729615,-0.20754363,9.801581,0.00028279424,-0.0010779947,-0.00041484833,-4.5776367e-05,6.1035156e-05,-7.6293945e-05
0.010640668,-0.012068926,0.9917763,0.2368927,-0.21296692,9.8033905,4.173279,-15.231323,-37.957764,0.2370371,-0.20826681,9.801573,-0.0009084493,-0.0015461296,0.0013132095,1.5258789e-05,-0.00010681152,-0.0001373291
0.010621796,-0.012062501,0.9917813,0.23210144,-0.21534729,9.808182,3.817749,-15.830994,-38.59558,0.23664635,-0.20819765,9.801583,-0.0012296885,5.8680773e-05,-0.00039291382,0.0001373291,-0.00016784668,-0.0002593994
0.010603266,-0.01203742,0.99178576,0.2416687,-0.20578003,9.8033905,4.5272827,-16.148376,-38.68866,0.23621708,-0.2077634,9.801603,-0.0012829155,0.0010536611,-0.00042057037,-4.5776367e-05,-6.1035156e-05,-0.0001373291
0.010669399,-0.012028542,0.9917676,0.22970581,-0.20578003,9.817749,2.5146484,-16.131592,-39.282227,0.23751001,-0.20739307,9.801579,0.0014913231,0.00044500828,0.0005302429,7.6293945e-05,-0.00022888184,0.00010681152
0.010657237,-0.012033677,0.991771,0.23928833,-0.20817566,9.800995,4.13208,-15.878296,-39.297485,0.23728077,-0.20752954,9.801582,-0.0006829202,0.00011540949,0.00067424774,-0.00016784668,-0.00022888184,-7.6293945e-05
0.010642196,-0.012064335,0.9917758,0.23210144,-0.21534729,9.796219,3.7353516,-15.603638,-40.35797,0.23705631,-0.20817265,9.801574,-0.00021985173,-0.0006707907,0.00045204163,-0.00010681152,0.00012207031,-0.0001373291
0.010625351,-0.012044184,0.9917799,0.2368927,-0.21057129,9.8033905,3.4942627,-15.621948,-40.049744,0.23667252,-0.20782962,9.801591,-0.0005428344,0.0011285394,-0.0008163452,-0.00016784668,0.0,-1.5258789e-05
0.010609359,-0.012061973,0.9917847,0.23210144,-0.20578003,9.805786,3.6132812,-14.891052,-39.227295,0.23639783,-0.2082244,9.801589,-0.0002808869,-0.0008609444,0.0010499954,-4.5776367e-05,6.1035156e-05,4.5776367e-05
0.010599466,-0.012074754,0.9917877,0.23928833,-0.20817566,9.815353,3.4240723,-15.864563,-37.452698,0.23623224,-0.20850325,9.801587,-0.000104516745,-0.00034739077,-0.00089740753,7.6293945e-05,6.1035156e-05,0.00022888184
0.010639199,-0.01209829,0.99177736,0.2416687,-0.20817566,9.805786,4.8080444,-15.405273,-37.94403,0.23707928,-0.20884418,9.801559,0.0014485866,-0.00049878657,-0.00043201447,-4.5776367e-05,0.0,4.5776367e-05
0.010640028,-0.012093425,0.99177706,0.2368927,-0.20817566,9.817749,4.537964,-15.852356,-39.006042,0.23708394,-0.20874678,9.801561,0.00024007261,0.00060783327,-0.00012397766,-0.00016784668,6.1035156e-05,4.5776367e-05
0.010630469,-0.012100568,0.9917798,0.23449707,-0.2033844,9.805786,3.5339355,-16.567993,-39.942932,0.23691125,-0.20891464,9.801561,-0.0003168136,-0.00064761937,0.0010242462,7.6293945e-05,-6.1035156e-05,-1.5258789e-05
0.010607763,-0.012082005,0.9917856,0.23928833,-0.2033844,9.796219,4.411316,-15.211487,-38.26599,0.23703906,-0.2081959,9.801574,0.0009916276,0.00078326464,-0.00034236908,-4.5776367e-05,0.0,-0.0002593994
0.0106903585,-0.012066724,0.99176276,0.23928833,-0.21057129,9.8033905,4.3807983,-15.943909,-38.03711,0.2380195,-0.20807561,9.801553,0.0016975254,0.00018285215,-0.0007047653,-4.5776367e-05,-0.00010681152,-7.6293945e-05
0.010689842,-0.012050733,0.9917625,0.23928833,-0.20578003,9.8033905,4.5272827,-16.148376,-38.763428,0.23797034,-0.20776513,9.801561,8.569658e-05,0.00057423115,-0.0014286041,7.6293945e-05,0.00012207031,-0.0001373291
0.0106773395,-0.012033437,0.99176556,0.2416687,-0.20100403,9.8033905,3.8528442,-15.101624,-38.22174,0.23767976,-0.20746492,9.801575,-0.0005773008,0.00028055906,0.0006427765,-4.5776367e-05,0.0,-0.0002593994
0.010660708,-0.012057633,0.9917706,0.23928833,-0.20578003,9.805786,4.4692993,-15.716553,-38.298035,0.23740801,-0.20798668,9.80157,-0.000552997,-0.001361385,0.0002641678,0.0001373291,-6.1035156e-05,-7.6293945e-05
0.010650516,-0.012061001,0.9917735,0.23928833,-0.21296692,9.8033905,3.1738281,-16.101074,-37.41455,0.2372136,-0.20808278,9.801572,-0.00014148653,-4.9471855e-05,0.0009794235,-4.5776367e-05,6.1035156e-05,-0.00019836426
0.010662151,-0.012111692,0.99177146,0.2416687,-0.20817566,9.7986145,3.8726807,-16.256714,-39.58893,0.23756813,-0.20903729,9.801543,0.0007105619,-0.0014914423,-0.00014781952,-0.00010681152,6.1035156e-05,-7.6293945e-05
0.010650837,-0.012104964,0.9917744,0.23928833,-0.20578003,9.8033905,4.1534424,-15.8203125,-37.095642,0.23732685,-0.20893973,9.801551,-1.5810132e-05,0.0008122176,0.0005426407,-0.00010681152,0.00012207031,4.5776367e-05
0.010661268,-0.012050248,0.99177027,0.23928833,-0.21057129,9.800995,4.309082,-15.805054,-37.854004,0.2374012,-0.20784092,9.801574,0.00061918795,0.0018714666,0.0006713867,-4.5776367e-05,0.00012207031,-0.00019836426
0.010656989,-0.012061259,0.9917717,0.22970581,-0.21296692,9.8033905,3.831482,-15.539551,-38.61084,0.23734292,-0.20806853,9.80157,-0.0010025054,-0.00052402914,0.00013923645,1.5258789e-05,-0.00016784668,-0.00019836426
0.010608816,-0.012071659,0.99178505,0.23449707,-0.20817566,9.810577,3.9459229,-14.956665,-37.438965,0.23641059,-0.20841503,9.801585,-0.0014664978,-0.00021071732,-0.0031023026,-4.5776367e-05,0.0,4.5776367e-05
0.0105816955,-0.0120334225,0.99179155,0.24406433,-0.21057129,9.796219,3.678894,-15.634155,-37.18872,0.2357786,-0.2077496,9.801614,-0.0008263439,0.0012681186,-0.0006284714,-4.5776367e-05,0.00018310547,-0.00019836426
0.010591287,-0.012012773,0.99178845,0.2416687,-0.20817566,9.800995,4.725647,-15.484619,-37.657166,0.2359191,-0.2073181,9.80162,0.00072439015,0.0008253455,-0.0010643005,7.6293945e-05,6.1035156e-05,-1.5258789e-05
0.010617161,-0.012025018,0.9917817,0.22732544,-0.20817566,9.800995,3.9535522,-14.962769,-36.457825,0.23646311,-0.20748,9.801602,0.0008789301,4.2274594e-05,0.0015230179,-0.00010681152,0.00018310547,-7.6293945e-05
0.010582535,-0.012033723,0.9917913,0.2368927,-0.21057129,9.808182,3.5263062,-15.196228,-38.378906,0.23579602,-0.20775299,9.801614,-0.0006136447,-0.00015047193,0.0006971359,-0.00016784668,-6.1035156e-05,-1.5258789e-05
0.010600379,-0.012002097,0.99178576,0.2368927,-0.20578003,9.808182,3.239441,-16.159058,-38.789368,0.23607388,-0.20708273,9.801621,0.0007929057,0.00083716214,-0.0004968643,0.0001373291,6.1035156e-05,-1.5258789e-05
0.010578373,-0.012028247,0.9917923,0.23449707,-0.21296692,9.805786,4.2404175,-15.516663,-37.94403,0.23570003,-0.20765851,9.801619,-0.0009845346,-0.0012116432,-1.4305115e-05,7.6293945e-05,6.1035156e-05,0.00016784668
0.010569284,-0.012001254,0.99179417,0.23928833,-0.21296692,9.789032,5.2856445,-15.44342,-38.349915,0.23545378,-0.2071588,9.801635,0.00021761656,0.000688985,0.0004606247,7.6293945e-05,6.1035156e-05,-7.6293945e-05
0.0106409,-0.0120618045,0.9917761,0.24406433,-0.21296692,9.7986145,3.1646729,-16.018677,-39.057922,0.2370244,-0.20812714,9.801576,0.0027198493,-0.002185002,-0.001288414,7.6293945e-05,0.0,-1.5258789e-05
0.01065034,-0.012058313,0.9917734,0.23210144,-0.20578003,9.805786,3.4240723,-15.713501,-38.328552,0.23720357,-0.20803086,9.801574,0.00038015842,0.00012226403,0.00073719025,0.0001373291,-6.1035156e-05,0.00010681152
0.010610807,-0.012032144,0.9917836,0.24406433,-0.2033844,9.815353,3.9886475,-15.522766,-39.219666,0.23635416,-0.207638,9.801602,-0.0016577393,0.00046299398,0.0016088486,1.5258789e-05,0.0,0.00016784668
0.010643311,-0.012032198,0.99177474,0.2368927,-0.2033844,9.808182,2.9678345,-16.908264,-38.552856,0.23700036,-0.20754221,9.801589,0.0015261173,0.0003669858,-4.673004e-05,-0.00010681152,6.1035156e-05,4.5776367e-05
0.010622391,-0.012045166,0.99178076,0.2368927,-0.21296692,9.7986145,3.0258179,-15.745544,-37.789917,0.23661605,-0.2078576,9.801591,-0.0002617985,-0.0002605915,0.0017280579,-0.00010681152,0.00012207031,-0.0001373291
0.010643902,-0.012088873,0.9917759,0.2368927,-0.20817566,9.793823,3.5125732,-15.563965,-37.998962,0.2371499,-0.20864642,9.801562,0.00064119697,-0.0021136552,-0.00028324127,7.6293945e-05,-0.00016784668,-1.5258789e-05
0.010633237,-0.012121373,0.9917795,0.23449707,-0.21296692,9.805786,4.005432,-15.235901,-38.632202,0.23701684,-0.2093124,9.801551,-0.0008699447,-0.00051642954,-0.001496315,-4.5776367e-05,-0.0004119873,-1.5258789e-05
0.010622966,-0.012115928,0.9917822,0.2416687,-0.20100403,9.800995,3.8360596,-15.544128,-37.93335,0.23679942,-0.20923676,9.801558,-0.0008804947,0.00035497546,-0.0013084412,-4.5776367e-05,-0.000289917,-1.5258789e-05
0.010665836,-0.0121033,0.99177027,0.23928833,-0.20578003,9.7986145,3.730774,-15.98053,-38.92517,0.23762098,-0.20886254,9.801546,0.0016555488,0.00094139576,-7.724762e-05,7.6293945e-05,0.0,-7.6293945e-05
0.0106561305,-0.012113928,0.9917731,0.2368927,-0.20578003,9.793823,3.0471802,-15.307617,-37.55188,0.23745388,-0.20909889,9.801545,-0.00032435358,-3.1620264e-05,-0.0003633499,-4.5776367e-05,6.1035156e-05,0.0004119873
0.010643507,-0.012094773,0.9917761,0.2368927,-0.20817566,9.786652,3.1158447,-15.597534,-37.158203,0.23715639,-0.20876272,9.801559,-0.0009964257,0.0003566295,0.00071525574,-0.00010681152,-4.5776367e-05,-1.5258789e-05
0.010619302,-0.012092221,0.99178267,0.2368927,-0.21057129,9.810577,3.4301758,-15.567017,-38.29956,0.23666899,-0.20878501,9.80157,-0.0007490963,-9.766221e-05,-0.0003194809,0.0001373291,0.0,4.5776367e-05
0.0106573915,-0.0120740095,0.9917719,0.23449707,-0.20817566,9.808182,3.819275,-15.908813,-38.00659,0.2373819,-0.20831615,9.801563,0.0011783093,0.0008672625,-5.9127808e-05,7.6293945e-05,-6.1035156e-05,-0.00019836426
0.010652793,-0.012089356,0.9917735,0.23928833,-0.21296692,9.796219,3.9093018,-15.457153,-39.276123,0.23732778,-0.20862933,9.801558,-0.00046889484,-0.0014239699,0.001871109,7.6293945e-05,-6.1035156e-05,4.5776367e-05
0.010643443,-0.012070846,0.99177563,0.24885559,-0.20817566,9.8033905,4.2419434,-15.518188,-37.79297,0.23709694,-0.20829597,9.80157,-0.00047577918,0.0006173998,-0.00050258636,7.6293945e-05,-6.1035156e-05,-7.6293945e-05
0.010672466,-0.01212423,0.9917689,0.23449707,-0.21057129,9.805786,3.161621,-16.244507,-38.04779,0.23780368,-0.20925121,9.801534,0.0012009293,-0.0012852699,0.0009431839,-0.00010681152,-0.00010681152,0.00010681152
0.01065308,-0.012149827,0.9917748,0.2416687,-0.1986084,9.784256,2.4353027,-16.293335,-38.027954,0.23748049,-0.2098085,9.801529,-0.00039294362,-0.0011922717,0.00078868866,-0.00010681152,6.1035156e-05,-7.6293945e-05
0.010674106,-0.012111199,0.9917682,0.2416687,-0.21057129,9.8033905,3.9886475,-15.67688,-38.34381,0.23780459,-0.208992,9.801538,-1.1593103e-05,0.0015737265,-0.00026226044,-4.5776367e-05,-0.00010681152,-7.6293945e-05
0.010682895,-0.012093338,0.9917654,0.2416687,-0.21057129,9.817749,3.3035278,-16.596985,-38.427734,0.23793587,-0.20861726,9.801543,-0.0006136,0.00023554265,-0.00017166138,0.0001373291,-0.00016784668,0.00010681152
0.010667325,-0.012065782,0.991769,0.22970581,-0.2033844,9.8033905,2.1530151,-15.513611,-37.3291,0.23755936,-0.20812598,9.801563,-0.001177311,0.00022740662,-0.0004415512,0.00019836426,-0.00022888184,-1.5258789e-05
0.010628956,-0.012056299,0.9917792,0.23928833,-0.21057129,9.791428,3.5552979,-16.436768,-38.02948,0.23677364,-0.2080553,9.801584,-0.0018234104,0.00037011504,-0.0014104843,7.6293945e-05,0.0,4.5776367e-05
0.010622138,-0.012085199,0.9917817,0.23449707,-0.2033844,9.800995,3.730774,-16.133118,-38.049316,0.23670831,-0.20863958,9.801573,-0.00078360736,-0.00072035193,-0.0010843277,-4.5776367e-05,-0.00022888184,0.00036621094
0.010607714,-0.012062051,0.9917851,0.23928833,-0.21057129,9.8033905,3.8116455,-16.053772,-38.261414,0.23636532,-0.20823081,9.801589,-0.0009121001,0.00077684224,-9.059906e-05,-0.00016784668,0.0,0.00016784668
0.010636513,-0.012080172,0.9917777,0.23449707,-0.20817566,9.805786,4.1397095,-16.035461,-37.74414,0.23698187,-0.20849866,9.80157,0.00060760975,-0.0013375133,0.0012216568,0.00019836426,-0.00010681152,-7.6293945e-05
0.010645236,-0.0120507,0.9917747,0.23928833,-0.2033844,9.796219,3.340149,-15.640259,-39.14032,0.23708358,-0.20789751,9.8015785,-0.0004515499,0.00020937622,-0.00030612946,0.00019836426,-0.00016784668,-1.5258789e-05
0.010632865,-0.012049017,0.99177796,0.2368927,-0.21057129,9.791428,4.3380737,-16.9693,-37.71515,0.23683362,-0.20790154,9.801585,-0.0009082109,0.00044830143,-0.0008382797,7.6293945e-05,-0.00022888184,0.000289917
0.010638432,-0.012103322,0.9917777,0.24406433,-0.20578003,9.805786,3.7109375,-16.493225,-38.49945,0.23707624,-0.20894465,9.801557,-0.00043702126,-0.0013742596,0.00025749207,-0.00012207031,-6.1035156e-05,0.0001373291
0.010622073,-0.012032758,0.9917806,0.23210144,-0.20817566,9.808182,3.1738281,-15.873718,-38.650513,0.2365796,-0.20761643,9.801598,-0.00045117736,0.0023507774,0.00319767,0.0,0.0,-0.00010681152
0.010597674,-0.012009049,0.99178666,0.22970581,-0.21296692,9.800995,2.696228,-15.913391,-37.583923,0.236037,-0.20722641,9.801619,-0.00063952804,-0.00017862022,0.00116539,6.1035156e-05,6.1035156e-05,0.0001373291
0.010602379,-0.012022107,0.99178565,0.23210144,-0.20817566,9.8033905,5.1071167,-15.818787,-38.41858,0.23616226,-0.20746723,9.801611,0.00020642579,4.0128827e-05,-0.0020990372,0.0,0.00010681152,0.0001373291
0.010589298,-0.012056674,0.99179,0.24645996,-0.21057129,9.7986145,2.7618408,-16.197205,-38.09662,0.23598619,-0.20818071,9.8015995,0.0001488775,-0.0018818527,0.00035381317,0.00012207031,-6.1035156e-05,7.6293945e-05
0.010601609,-0.012074093,0.9917871,0.23449707,-0.20100403,9.805786,3.1524658,-16.53595,-37.805176,0.23627323,-0.20848398,9.801586,0.0005777776,-0.0003720671,7.534027e-05,-6.1035156e-05,0.00012207031,7.6293945e-05
0.010608984,-0.012033553,0.99178416,0.2416687,-0.20817566,9.805786,4.4891357,-15.431213,-37.33368,0.23632134,-0.20767091,9.801602,-0.00017039478,0.0014242083,-0.0013837814,6.1035156e-05,-6.1035156e-05,0.0001373291
0.010646977,-0.012035474,0.99177384,0.23928833,-0.20817566,9.7986145,4.3762207,-16.168213,-37.40387,0.23708121,-0.20759521,9.801586,0.0016971678,0.00039982796,-0.00028133392,-0.00012207031,4.5776367e-05,1.5258789e-05
0.010612639,-0.01203645,0.9917832,0.23449707,-0.2033844,9.805786,3.038025,-15.603638,-36.85608,0.23640105,-0.20771658,9.8016,-0.00095403194,-0.00020495057,-0.000831604,6.1035156e-05,0.00010681152,0.00019836426
0.010612092,-0.012043653,0.9917835,0.2416687,-0.21296692,9.791428,3.42865,-15.718079,-37.8006,0.23640767,-0.20785876,9.801597,0.00068971515,-0.0007686466,0.0010347366,0.00012207031,0.00010681152,7.6293945e-05
0.010583298,-0.012071974,0.99179196,0.23449707,-0.20817566,9.796219,3.5980225,-15.411377,-38.124084,0.2359041,-0.20849714,9.801596,-0.0009741038,-0.00083327293,0.0013341904,-0.00012207031,0.00010681152,1.5258789e-05
0.010579652,-0.012073142,0.991793,0.23210144,-0.20817566,9.7986145,3.3218384,-16.156006,-38.63983,0.23583443,-0.20853078,9.801596,0.0002901703,-0.000561133,0.0008831024,6.1035156e-05,4.5776367e-05,-4.5776367e-05
0.010620867,-0.012051414,0.9917813,0.2368927,-0.20578003,9.7986145,3.8208008,-15.834045,-38.14087,0.23660095,-0.20798406,9.801589,2.4318695e-05,7.300079e-05,-0.0013151169,0.0,0.0,-0.00010681152
0.010639343,-0.012037666,0.991776,0.23449707,-0.2033844,9.800995,3.4210205,-15.710449,-38.705444,0.2369348,-0.20766072,9.801588,0.00041802227,-0.00050361454,-0.0008831024,0.00024414062,-6.1035156e-05,7.6293945e-05
0.010625618,-0.012015746,0.9917792,0.2368927,-0.20817566,9.815353,3.6758423,-15.705872,-37.280273,0.2366087,-0.20727389,9.801604,-0.00045220554,0.00030508637,0.00052547455,0.00012207031,0.00010681152,0.0001373291
0.010617256,-0.01203813,0.991782,0.23928833,-0.21057129,9.815353,4.281616,-16.235352,-38.923645,0.23649688,-0.2077356,9.801597,0.00014953315,-0.00019402802,-0.0014076233,0.0,0.0,1.5258789e-05
0.010649451,-0.0120827155,0.99177426,0.2368927,-0.21534729,9.805786,2.7832031,-15.759277,-37.85858,0.23724525,-0.20850973,9.801563,0.0013052225,-0.0020433813,0.001461029,-6.1035156e-05,0.00010681152,-0.00016784668
0.0106042065,-0.012077183,0.9917864,0.24406433,-0.20817566,9.7986145,3.4927368,-15.774536,-39.17389,0.23633237,-0.20853657,9.801584,-0.0016289651,-0.0010400563,0.0014438629,0.00030517578,-0.00012207031,7.6293945e-05
0.010620056,-0.012113195,0.9917829,0.23928833,-0.21057129,9.812973,3.1066895,-15.661621,-38.07831,0.23673494,-0.20919208,9.80156,0.00082686543,-0.0010926127,0.0008020401,6.1035156e-05,0.00016784668,-0.00010681152
0.01061497,-0.0121142315,0.99178433,0.23210144,-0.20578003,9.808182,3.0014038,-16.178894,-38.406372,0.23663633,-0.20922744,9.801561,0.00020572543,0.00037939847,0.0002193451,-0.00030517578,-6.1035156e-05,-4.5776367e-05
0.010582422,-0.012077677,0.9917923,0.23210144,-0.20817566,9.793823,3.7261963,-16.43219,-36.97815,0.23590052,-0.20861103,9.801593,-0.0014645606,0.0009624511,0.00093746185,6.1035156e-05,0.00010681152,-0.00022888184
0.010591169,-0.012107105,0.99179065,0.23928833,-0.2033844,9.796219,3.0410767,-15.454102,-37.353516,0.23614585,-0.20915924,9.801575,0.0011505932,-0.001350686,0.00061798096,0.00012207031,0.00010681152,-4.5776367e-05
0.010627488,-0.012082892,0.9917802,0.22970581,-0.2033844,9.8033905,3.327942,-15.933228,-38.972473,0.23680903,-0.20857859,9.801571,0.0017049015,0.0016435236,-0.0010223389,-0.00012207031,0.00016784668,-0.00010681152
0.010631239,-0.012039607,0.9917782,0.23210144,-0.20578003,9.805786,2.9815674,-14.94751,-37.322998,0.23677844,-0.20772278,9.801591,7.338822e-05,0.001261428,-0.001326561,0.00012207031,4.5776367e-05,-0.00016784668
0.010608631,-0.012014795,0.9917838,0.23449707,-0.21057129,9.796219,3.3599854,-15.354919,-38.101196,0.23626876,-0.20730594,9.801612,-0.0006188899,0.0010704398,-0.0002450943,0.0,0.00010681152,-4.5776367e-05
0.010624406,-0.012058929,0.9917805,0.23449707,-0.21057129,9.805786,4.4815063,-15.574646,-37.66327,0.23668958,-0.20812018,9.801585,0.0008649826,-0.00096815825,0.0014390945,-0.00012207031,4.5776367e-05,-0.00022888184
0.0106293075,-0.012076322,0.99177957,0.23928833,-0.20578003,9.7986145,4.496765,-15.057373,-38.467407,0.23682925,-0.20844498,9.801574,1.5541911e-05,-0.0011228472,-0.0006389618,-6.1035156e-05,-0.00012207031,7.6293945e-05
0.010593493,-0.012077095,0.99178934,0.24406433,-0.20578003,9.8033905,3.340149,-15.792847,-38.11493,0.2361192,-0.20856673,9.801589,-0.0012126118,-0.00026999414,0.001332283,6.1035156e-05,0.0,-0.00010681152
0.010613477,-0.012065425,0.9917836,0.22970581,-0.20578003,9.8033905,3.668213,-15.623474,-38.62152,0.23648809,-0.20827948,9.801585,0.0015608221,0.0010950565,-0.0024728775,-0.00012207031,0.00016784668,-4.5776367e-05
0.010583983,-0.012020705,0.99179065,0.23928833,-0.21296692,9.796219,3.4378052,-15.422058,-38.041687,0.23579317,-0.20749462,9.801619,-0.00087860227,0.0017634779,0.0018587112,6.1035156e-05,0.00022888184,-4.5776367e-05
0.01057453,-0.012009505,0.991793,0.2368927,-0.1986084,9.800995,3.3309937,-16.012573,-38.31024,0.23557809,-0.20730421,9.801628,-0.00042255223,0.00014150143,0.00028133392,-0.00012207031,4.5776367e-05,-0.00010681152
0.010609246,-0.012033983,0.9917841,0.2368927,-0.21534729,9.800995,3.2562256,-15.8706665,-38.20343,0.2363276,-0.20767854,9.801602,0.0014818758,-0.00094626844,-0.0012483597,0.00018310547,0.0,0.0002593994
0.010593821,-0.0120851565,0.9917894,0.24406433,-0.2033844,9.810577,3.7963867,-16.343689,-38.471985,0.23614529,-0.20872305,9.801584,5.081296e-06,-0.0013529509,-0.0016336441,-0.00018310547,4.5776367e-05,1.5258789e-05
0.010585229,-0.012037279,0.99179065,0.22732544,-0.2033844,9.810577,3.4362793,-15.420532,-38.269043,0.23585822,-0.20781435,9.801611,-0.00041884184,0.0025241077,-0.00044441223,-0.00018310547,-6.1035156e-05,-0.00010681152
0.010571927,-0.0120539,0.99179465,1.9238281,0.29431152,1.0695953,1.5045166,-16.842651,-40.820312,0.23563416,-0.2081783,9.801609,-0.00066421926,-0.0004567802,-0.00029277802,-6.1035156e-05,0.0,0.0002593994
0.011443087,-0.012421212,0.9947223,-3.8356934,1.8783722,10.265213,3.503418,-15.782166,-38.11798,0.24790767,-0.21962126,9.801056,0.8199488,-0.14756556,0.097382545,-0.02003479,0.2830658,0.14051819
0.0112382,-0.0119583905,0.9934545,-0.3062744,0.04067993,9.628723,3.4622192,-14.759827,-38.893127,0.245489,-0.2080915,9.801368,-0.6731608,0.18311094,0.0298872,-0.0030517578,0.008422852,0.0027008057
0.010939959,-0.012028148,0.99345654,0.6077728,-0.34934998,9.968506,2.3147583,-15.351868,-38.208008,0.2398339,-0.21011159,9.801466,0.00771071,-0.029971704,0.015996933,0.00024414062,-0.0018463135,0.0002593994
0.01109335,-0.011996618,0.9934724,-0.0143585205,-0.20100403,9.655045,2.909851,-16.174316,-39.608765,0.24272075,-0.20919363,9.801414,-0.025810778,0.02201134,0.01234436,-0.0004272461,0.0031738281,0.00032043457
0.010948823,-0.012011537,0.9934582,0.36610413,-0.12921143,9.891922,3.0212402,-15.739441,-38.468933,0.23996687,-0.20977165,9.80147,0.024042264,-0.009458184,0.023449898,6.1035156e-05,-0.0025177002,-0.00015258789
0.010987055,-0.012015822,0.99348027,0.18185425,-0.30389404,9.753143,2.3376465,-16.51001,-38.900757,0.24067943,-0.20981815,9.80145,-0.033857226,-0.0029438287,-0.0008459091,-0.00012207031,0.0025634766,0.00033569336
0.011516155,-0.0119108055,0.9933489,0.2416687,-0.14356995,9.824936,3.5064697,-15.632629,-38.768005,0.25098622,-0.20631973,9.801267,0.02542147,0.00744915,0.022855759,0.0,-0.0019683838,-0.000289917
0.010666487,-0.012013093,0.99355805,0.27038574,-0.22013855,9.800995,3.6148071,-14.891052,-39.227295,0.23428874,-0.21062995,9.801588,-0.03665781,-0.008996397,-0.015210152,-0.00012207031,0.0015869141,0.00015258789
0.0104364185,-0.0119451415,0.9936126,0.32063293,-0.1651001,9.841675,3.1539917,-14.717102,-37.283325,0.22956051,-0.2099179,9.801716,-0.038935035,-0.004864648,-0.015601158,6.1035156e-05,0.0008392334,-0.00016784668
0.011342046,-0.012138112,0.9933954,0.13877869,-0.24645996,9.74118,2.9159546,-16.101074,-39.593506,0.24801424,-0.2112402,9.801237,0.036878437,-0.0033083856,0.0194273,6.1035156e-05,-0.00019836426,9.1552734e-05
0.010397967,-0.011955423,0.99362195,0.35891724,-0.19381714,9.865616,3.7750244,-15.184021,-37.783813,0.22881655,-0.2102213,9.801726,-0.03726776,0.0028899908,-0.017525673,-6.1035156e-05,6.1035156e-05,-0.0002746582
0.010425738,-0.012041801,0.9936166,0.38763428,-0.23210144,9.879959,3.552246,-14.76593,-37.38556,0.22955431,-0.21183516,9.801674,-0.032059267,0.00093476474,-0.015408516,6.1035156e-05,-0.0001373291,-4.5776367e-05
0.01119945,-0.012094898,0.9934296,0.08135986,-0.19621277,9.722046,4.335022,-15.220642,-37.887573,0.2450805,-0.21078564,9.80132,0.028073266,0.0012622029,0.015273094,0.00012207031,0.0004272461,-9.1552734e-05
0.01046375,-0.012045062,0.99360746,0.38285828,-0.22253418,9.887146,2.7664185,-15.9729,-38.580322,0.23031858,-0.21179749,9.801657,-0.026125908,-0.0019563437,-0.013929367,0.00012207031,-0.00050354004,-0.00016784668
0.012309094,-0.011882689,0.99235296,0.20578003,-0.21296692,9.767502,2.8915405,-15.097046,-37.80365,0.26806518,-0.2017648,9.800909,-0.010476321,-0.0049489737,0.033076286,-6.1035156e-05,0.0005950928,1.5258789e-05
0.01168603,-0.011648642,0.992233,0.4019928,-0.117248535,9.67897,2.3498535,-16.444397,-37.75482,0.2555902,-0.1984346,9.801311,0.017842025,0.0073480606,-0.040387154,0.00642395,-0.017593384,0.0073547363
0.016675593,-0.011178515,0.9929845,0.42352295,-0.25602722,9.7986145,2.1270752,-16.098022,-37.44812,0.35031742,-0.17959729,9.798745,0.090073794,0.03715904,0.0049676895,0.0028076172,-0.02078247,0.062576294
0.010365496,-0.012163936,0.9943171,0.31825256,-0.22970581,9.820145,2.7008057,-15.765381,-38.00659,0.22725682,-0.21582116,9.8016405,-0.11215262,-0.042135432,0.0078105927,0.00091552734,0.030410767,0.118896484
0.010794769,-0.012250305,0.994117,0.15792847,-0.18902588,9.774673,2.3147583,-15.426636,-37.771606,0.2362019,-0.21618573,9.801421,0.028407976,0.0034982413,0.0032377243,-0.0071411133,0.0048828125,-0.009017944
0.0104820635,-0.012186987,0.9941819,0.32302856,-0.24885559,9.84407,2.6504517,-15.037537,-38.23242,0.22985005,-0.2157396,9.801582,-0.01084514,0.0015294105,-0.007742882,-0.00018310547,0.00010681152,-0.00010681152
0.010967177,-0.012183917,0.9940586,0.16749573,-0.19381714,9.765106,2.571106,-15.194702,-37.2818,0.23953842,-0.21440104,9.801379,0.01906836,0.0024493337,0.009358406,0.0,0.00035095215,-4.5776367e-05
0.010649202,-0.01220206,0.99412376,0.3062744,-0.22732544,9.832108,3.7322998,-16.056824,-38.33618,0.23325364,-0.21556114,9.801505,-0.010455579,-0.0017269999,-0.006380081,-0.00018310547,-1.5258789e-05,-0.00039672852
0.010978053,-0.012216437,0.994039,0.17228699,-0.21057129,9.765106,3.4164429,-15.782166,-38.871765,0.23985717,-0.2149694,9.801359,0.012791857,0.0013180524,0.004368782,-6.1035156e-05,0.0005340576,1.5258789e-05
0.010743499,-0.012181775,0.99409914,0.30389404,-0.21057129,9.84407,3.2546997,-15.716553,-39.45465,0.23509738,-0.21491519,9.8014765,-0.0077539682,0.0012007207,-0.005549431,-0.00018310547,-0.00012207031,0.0001373291
0.011024185,-0.012236266,0.9940273,0.18424988,-0.22732544,9.76033,2.2094727,-16.018677,-37.509155,0.24082011,-0.21523395,9.80133,0.009897664,-0.00056125224,0.0062036514,-0.00018310547,0.000289917,7.6293945e-05
0.0108031435,-0.012185714,0.99408376,0.29670715,-0.21534729,9.834503,2.3773193,-15.786743,-37.92267,0.23629773,-0.21483408,9.801448,-0.0065760314,0.0011355579,-0.0048151016,6.1035156e-05,-0.00019836426,-0.000289917
0.011011521,-0.012290139,0.9940315,0.18424988,-0.20817566,9.774673,2.8381348,-16.26587,-38.11493,0.24067773,-0.21632135,9.80131,0.0067042112,-0.002347529,0.0043096542,-0.00018310547,0.000289917,0.00019836426
0.010828159,-0.012205742,0.9940776,0.28234863,-0.22253418,9.827316,2.11792,-16.242981,-37.854004,0.23683883,-0.21515937,9.801429,-0.0059232414,0.0024326593,-0.003367424,-0.00012207031,-0.00032043457,0.0002593994
0.0109350765,-0.012255259,0.99405074,0.1986084,-0.2033844,9.779465,2.786255,-15.684509,-37.843323,0.23907782,-0.21584326,9.80136,0.003529802,-0.0016505718,0.0020742416,0.00024414062,0.0004119873,0.0001373291
0.010878185,-0.012218692,0.99406487,0.27757263,-0.21774292,9.805786,3.2470703,-15.937805,-39.123535,0.23786542,-0.21527962,9.8014,-0.0012376904,0.0016143769,-5.8174133e-05,-0.00018310547,-0.00030517578,0.0001373291
0.010932161,-0.012186405,0.9940504,0.20817566,-0.2033844,9.784256,2.9510498,-15.452576,-38.25531,0.23887813,-0.21450453,9.8013935,0.0006069392,0.00062043965,0.00092220306,0.00012207031,0.00030517578,0.00032043457
0.01092524,-0.012175796,0.99405205,0.2679901,-0.21296692,9.820145,1.3153076,-14.782715,-35.333252,0.23871803,-0.21431549,9.801402,-0.00016492605,0.0001745969,-0.0011482239,6.1035156e-05,-0.00044250488,0.0001373291
0.010946977,-0.012212727,0.994047,0.22253418,-0.22253418,9.793823,2.532959,-15.844727,-38.319397,0.23922835,-0.21497977,9.801374,3.8847327e-05,-0.001798138,0.00020503998,0.00018310547,0.00016784668,-4.5776367e-05
0.010968234,-0.012274302,0.99404246,0.2632141,-0.2033844,9.817749,1.9836426,-13.847351,-37.58545,0.23977977,-0.2161272,9.801335,0.0018532127,-0.0030178577,0.0010824203,0.00012207031,-0.00032043457,0.00019836426
0.010920961,-0.012261678,0.9938454,0.22492981,-0.22253418,9.791428,2.1209717,-16.093445,-38.20343,0.23922418,-0.21554619,9.801361,-0.0014023036,0.00094500184,-0.00023365021,0.00024414062,0.00036621094,-4.5776367e-05
0.010941519,-0.012288811,0.9938405,0.25125122,-0.21296692,9.800995,1.940918,-16.46576,-38.64746,0.23969173,-0.21602122,9.80134,0.0014555007,-0.0009608716,0.0012750626,-0.00012207031,-0.00032043457,0.0002593994
0.0108955875,-0.012291496,0.99385256,0.22970581,-0.22253418,9.793823,3.2241821,-16.525269,-38.786316,0.23877943,-0.21619767,9.801359,-0.0023925602,-0.0005695075,-0.0012226105,0.0,0.00024414062,1.5258789e-05
0.010953077,-0.0122766625,0.99383724,0.25602722,-0.22013855,9.808182,3.340149,-15.792847,-38.11493,0.23989731,-0.21575248,9.801341,0.0019765496,0.00066913664,0.00045681,0.00012207031,-0.0002593994,-4.5776367e-05
0.010880878,-0.012260561,0.9938559,0.2368927,-0.21057129,9.8033905,2.7145386,-15.473938,-37.721252,0.23842087,-0.21563244,9.801379,-0.0034671575,-0.00018832088,-0.0017595291,0.00012207031,0.0,0.0002593994
0.010936532,-0.01226106,0.99384135,0.23449707,-0.21774292,9.796219,3.7445068,-15.689087,-38.7146,0.23953408,-0.21549211,9.801356,0.003030762,-4.069507e-05,0.0039157867,0.00012207031,0.0,1.5258789e-05
0.010835377,-0.01224971,0.9938676,0.2416687,-0.21057129,9.800995,1.7974854,-16.114807,-38.194275,0.23748894,-0.21554281,9.801404,-0.0034846961,0.00044238567,-0.00360775,-6.1035156e-05,0.00024414062,-0.00010681152
0.010859192,-0.012261767,0.99386156,0.23928833,-0.21534729,9.805786,2.557373,-15.336609,-37.98828,0.23799004,-0.21571447,9.801389,-0.0020606369,-0.0010653585,-0.0011930466,0.00024414062,-1.5258789e-05,1.5258789e-05
0.010931026,-0.012231812,0.9938423,0.22253418,-0.21534729,9.808182,2.8259277,-16.404724,-38.822937,0.23936293,-0.2149351,9.801373,0.0027643591,0.0022390038,0.002251625,-0.00012207031,-1.5258789e-05,0.0002593994
0.010887192,-0.012266194,0.99385434,0.25125122,-0.22253418,9.800995,3.2714844,-15.428162,-38.79242,0.23855881,-0.2157256,9.801374,-0.0016789138,-0.0017616153,-0.0013790131,-0.00012207031,-1.5258789e-05,0.00019836426
0.010953763,-0.012305233,0.99383754,0.22970581,-0.22253418,9.791428,3.2348633,-16.383362,-38.079834,0.23997073,-0.21630925,9.801327,0.0028870404,-0.00047285855,0.0002040863,-0.00012207031,7.6293945e-05,0.00010681152
0.010862564,-0.012336441,0.9938619,0.25125122,-0.21296692,9.812973,3.1936646,-15.513611,-38.12561,0.23821321,-0.21716546,9.801352,-0.0030278862,-0.0010394007,0.0010938644,-0.00024414062,6.1035156e-05,-9.1552734e-05
0.010934,-0.012371475,0.9938438,0.22492981,-0.22732544,9.808182,2.8076172,-15.25116,-37.454224,0.23971415,-0.21765782,9.801303,0.0033552796,-0.0005290061,0.0015239716,-0.00012207031,1.5258789e-05,0.00015258789
0.010829061,-0.012342227,0.99387074,0.24885559,-0.21057129,9.812973,3.8574219,-14.877319,-39.082336,0.23755565,-0.21736875,9.801363,-0.004054293,0.00013032556,-0.0010547638,6.1035156e-05,0.0001373291,-3.0517578e-05
0.010924237,-0.012327858,0.99384564,0.22492981,-0.21057129,9.796219,3.4820557,-14.625549,-37.052917,0.23942792,-0.21683137,9.801329,0.0033902973,0.0015194863,0.0016946793,0.0,-6.1035156e-05,0.00015258789
0.010840419,-0.012307879,0.9938672,0.24885559,-0.21774292,9.817749,3.8665771,-14.735413,-38.52539,0.23771101,-0.21666658,9.8013735,-0.0032432973,0.00085775554,-0.0020627975,0.0,-4.5776367e-05,9.1552734e-05
0.010877033,-0.01232873,0.993858,0.22732544,-0.21534729,9.800995,3.0776978,-16.247559,-38.27362,0.2384863,-0.2169757,9.801349,0.0016898662,-0.00047147274,0.003569603,-6.1035156e-05,0.00018310547,-3.0517578e-05
0.01084835,-0.012268462,0.9938645,0.25842285,-0.21774292,9.812973,3.4347534,-15.419006,-38.494873,0.23778732,-0.21587455,9.80139,-0.00070917606,0.0022437423,-0.0011358261,-0.00012207031,-4.5776367e-05,0.00022888184
0.010899732,-0.012294381,0.9938515,0.2368927,-0.20817566,9.796219,3.1448364,-16.76178,-37.39624,0.23886827,-0.2162429,9.801355,0.0020192862,0.00022110343,0.00037002563,-0.00012207031,0.00018310547,9.1552734e-05
0.0108862715,-0.01231748,0.9938554,0.24645996,-0.21534729,9.8033905,2.796936,-15.545654,-37.135315,0.23864749,-0.21673083,9.801351,-0.0003796816,-0.00048530102,-0.00039100647,-0.00018310547,-4.5776367e-05,0.00015258789
0.010886225,-0.012342684,0.99385583,0.22492981,-0.21534729,9.805786,2.06604,-15.740967,-37.14447,0.23869915,-0.21722378,9.801338,0.0005463362,-0.00048014522,-0.00137043,-0.00012207031,1.5258789e-05,0.000289917
0.010882175,-0.0123498775,0.993857,0.24645996,-0.21774292,9.808182,2.394104,-15.345764,-38.21106,0.23863319,-0.21737531,9.801335,0.00011572242,-0.00032103062,0.0006713867,-6.1035156e-05,6.1035156e-05,-0.00021362305
0.010904384,-0.012332905,0.99385095,0.22732544,-0.22013855,9.793823,2.8533936,-15.898132,-38.267517,0.23904167,-0.21698359,9.801334,0.000899449,0.001694724,0.0010948181,-0.00012207031,0.00018310547,3.0517578e-05
0.010878407,-0.012327597,0.9938576,0.24645996,-0.21774292,9.805786,2.4520874,-15.85083,-38.391113,0.2385114,-0.21694982,9.801348,4.5090914e-05,0.0011276007,-0.0040540695,-0.00030517578,7.6293945e-05,0.00015258789
0.010921664,-0.01232578,0.9938463,0.23210144,-0.22492981,9.7986145,2.7801514,-15.6814575,-38.597107,0.23937216,-0.21679768,9.8013315,0.0013257861,0.0007555932,0.00080394745,-0.00024414062,0.0001373291,-3.0517578e-05
0.010911404,-0.012351219,0.9938494,0.24406433,-0.22013855,9.805786,3.7734985,-15.106201,-38.294983,0.23922023,-0.21732274,9.801323,-0.00069218874,-0.001098156,0.0015058517,0.0,-0.00022888184,-3.0517578e-05
0.010907754,-0.012373245,0.9938507,0.23210144,-0.22253418,9.7986145,2.3376465,-16.35437,-40.075684,0.23919325,-0.21776326,9.801313,-0.00020052493,-0.00017693639,0.00068473816,-6.1035156e-05,1.5258789e-05,3.0517578e-05
0.010876028,-0.0123396395,0.99385846,0.2416687,-0.22253418,9.793823,2.7282715,-16.468811,-40.71808,0.23848899,-0.21719171,9.801344,-0.0009160638,0.0011609048,-0.0011348724,0.0,1.5258789e-05,3.0517578e-05
0.0108511625,-0.012345402,0.993865,0.23449707,-0.21534729,9.800995,3.463745,-16.43219,-39.308167,0.23800398,-0.21737133,9.801351,-0.00091575086,-0.0005852729,-0.00028038025,0.0,0.00012207031,3.0517578e-05
0.01086364,-0.012331551,0.99386156,0.24406433,-0.21774292,9.8033905,3.3599854,-15.431213,-37.66327,0.2382245,-0.21706691,9.8013525,0.0005272031,0.001519531,0.0012540817,-0.00024414062,-4.5776367e-05,-9.1552734e-05
0.010855849,-0.012329905,0.9938636,0.23928833,-0.22253418,9.8033905,2.5222778,-16.140747,-38.00049,0.23806536,-0.21705574,9.801357,-0.0004903674,0.0007789284,-0.001080513,-0.00012207031,1.5258789e-05,0.000289917
0.010873956,-0.012358489,0.9938593,0.2368927,-0.21534729,9.805786,3.0685425,-16.38794,-38.82904,0.2384869,-0.21756585,9.801335,-0.00020994246,-0.00037553906,0.00048542023,0.0,-4.5776367e-05,3.0517578e-05
0.01088557,-0.012357174,0.99385625,0.2368927,-0.22253418,9.805786,4.081726,-15.454102,-37.849426,0.2387163,-0.21750885,9.8013315,0.0007291585,-0.00016871095,0.0017538071,0.0,1.5258789e-05,-0.00015258789
0.010876605,-0.012371656,0.9938588,0.2368927,-0.22013855,9.810577,2.4734497,-15.184021,-39.465332,0.23856735,-0.21781617,9.801329,-0.0010201037,-0.00083088875,-0.0007390976,6.1035156e-05,6.1035156e-05,-9.1552734e-05
0.010869954,-0.012339767,0.99386,0.2416687,-0.22013855,9.791428,4.008484,-15.390015,-37.379456,0.23836787,-0.21721058,9.801347,-0.00010672212,0.00096201897,0.0002965927,6.1035156e-05,-0.00010681152,0.00015258789
0.010868522,-0.012307738,0.9938599,0.23928833,-0.21534729,9.805786,3.0090332,-14.213562,-37.930298,0.2382724,-0.21658817,9.801362,8.106232e-06,0.0012831688,-0.0015640259,6.1035156e-05,1.5258789e-05,-3.0517578e-05
0.010881083,-0.012303795,0.99385655,0.2368927,-0.21774292,9.808182,1.8508911,-14.945984,-37.88147,0.23851521,-0.21647723,9.801358,0.00072558224,0.0009289384,7.915497e-05,-6.1035156e-05,6.1035156e-05,3.0517578e-05
0.010906126,-0.012311633,0.9938501,0.2416687,-0.22013855,9.805786,2.3864746,-15.490723,-38.24005,0.23903207,-0.21656296,9.801344,0.0001846999,-0.0004117936,0.0006990433,-0.00012207031,-0.00010681152,-3.0517578e-05
0.010906077,-0.0123383645,0.9938506,0.23449707,-0.21534729,9.8033905,3.6849976,-15.409851,-37.597656,0.23908691,-0.21708578,9.8013315,0.00036215782,-0.0008394122,0.0009441376,-6.1035156e-05,-4.5776367e-05,3.0517578e-05
0.010896092,-0.012320017,0.99385285,0.23928833,-0.21534729,9.7986145,2.798462,-15.394592,-37.634277,0.23884906,-0.21675397,9.801345,-8.1688166e-05,0.0011922121,-0.00288105,0.0,6.1035156e-05,-0.00021362305
0.01094768,-0.012340067,0.99383974,0.2368927,-0.22253418,9.793823,2.281189,-16.004944,-38.71765,0.23992196,-0.21700677,9.801312,0.0014921874,-0.00048404932,-0.0006341934,-6.1035156e-05,-4.5776367e-05,3.0517578e-05
0.010924824,-0.012313448,0.9938453,0.24406433,-0.21296692,9.800995,2.7954102,-15.544128,-37.286377,0.23940955,-0.21654803,9.801335,-0.0008366555,0.0019163489,-0.0021772385,-0.00012207031,-4.5776367e-05,0.000289917
0.010922836,-0.012304831,0.99384564,0.23210144,-0.21057129,9.800995,2.7740479,-15.98053,-37.602234,0.23935182,-0.2163849,9.80134,-5.9247017e-05,0.0015068054,-0.00017166138,-0.0004272461,6.1035156e-05,3.0517578e-05
0.010866475,-0.012332791,0.99386084,0.24406433,-0.22253418,9.7986145,3.2073975,-15.068054,-38.790894,0.23828378,-0.21708356,9.801352,-0.0023388118,-0.0013888776,-0.00074386597,6.1035156e-05,-0.00010681152,-9.1552734e-05
0.0109117795,-0.012348265,0.9938492,0.22970581,-0.22013855,9.800995,2.8625488,-15.600586,-38.812256,0.23922156,-0.21726398,9.801324,0.002421543,0.0005056262,0.0031690598,-0.00024414062,0.00012207031,-3.0517578e-05
0.010925305,-0.012345823,0.99384564,0.2368927,-0.22013855,9.7986145,2.6763916,-16.27655,-38.035583,0.23948681,-0.21717976,9.80132,0.00074236095,-7.160008e-05,-0.00044441223,-6.1035156e-05,0.00012207031,-9.1552734e-05
0.010891863,-0.012302574,0.9938537,0.23210144,-0.22013855,9.805786,1.9119263,-15.3793335,-38.12256,0.23872814,-0.21642432,9.801355,-0.0011109412,0.0017875433,-0.002210617,0.0,6.1035156e-05,-0.00015258789
0.010889971,-0.01228825,0.993854,0.23449707,-0.22013855,9.805786,2.4536133,-15.852356,-38.16681,0.23866038,-0.21614933,9.801362,-9.4652176e-05,0.00030486286,-0.00019359589,0.0,6.1035156e-05,-0.00015258789
0.010849084,-0.0122759845,0.9938644,0.2368927,-0.21057129,9.7986145,2.9281616,-16.038513,-38.449097,0.2378177,-0.21601968,9.801387,-0.001413092,0.0006708205,0.0020999908,0.0,1.5258789e-05,-0.00015258789
0.010842617,-0.012296405,0.99386644,0.23928833,-0.21774292,9.805786,3.1036377,-15.812683,-37.582397,0.23773101,-0.21643633,9.801378,-0.0001283139,-0.0005829036,-0.0006637573,-0.00012207031,0.00012207031,3.0517578e-05
0.010837881,-0.01230564,0.9938679,0.2416687,-0.21296692,9.7986145,2.168274,-15.148926,-37.483215,0.23765564,-0.21662964,9.801376,-0.0003030151,0.0005618632,0.0005121231,-0.00012207031,-4.5776367e-05,-3.0517578e-05
0.01087494,-0.012325378,0.9938585,0.23449707,-0.22732544,9.7986145,3.4576416,-15.213013,-36.793518,0.23843747,-0.21691579,9.801351,0.0022709966,-0.0003411919,2.193451e-05,-0.00018310547,0.00012207031,9.1552734e-05
0.010835819,-0.012374756,0.9938695,0.2368927,-0.21534729,9.793823,2.39563,-15.34729,-38.061523,0.23775852,-0.2179866,9.801344,-0.0011244714,-0.0019097924,1.4305115e-05,-6.1035156e-05,0.00012207031,-9.1552734e-05
0.010877365,-0.012372205,0.99385864,0.2416687,-0.21296692,9.796219,2.140808,-15.653992,-38.11493,0.23858365,-0.21782483,9.801327,0.001885727,0.0012804419,-0.00046348572,-0.00012207031,-4.5776367e-05,0.00022888184
0.0109010255,-0.012357427,0.9938522,0.23928833,-0.20817566,9.800995,2.4993896,-15.058899,-36.645508,0.23902574,-0.2174721,9.801324,0.00096447766,0.0007043928,0.0004940033,-6.1035156e-05,0.00018310547,-3.0517578e-05
0.010851798,-0.012302704,0.9938642,0.24406433,-0.22013855,9.810577,3.2592773,-16.02478,-37.101746,0.23792765,-0.21653478,9.801372,-0.001994893,0.0023764223,-0.0012664795,-0.00024414062,1.5258789e-05,0.00016784668
0.010857602,-0.012298967,0.99386257,0.2368927,-0.21774292,9.7986145,2.8686523,-15.606689,-37.90741,0.23803587,-0.2164461,9.801372,-0.00019147992,-9.788573e-05,0.0009069443,6.1035156e-05,-0.00010681152,-0.00021362305
0.010850062,-0.012298724,0.99386454,0.23449707,-0.21296692,9.796219,2.9953003,-16.25061,-38.64746,0.23788466,-0.21646163,9.801374,0.0008944571,0.00041623414,0.0009241104,-0.00012207031,0.00018310547,-9.1552734e-05
0.010860853,-0.012264928,0.9938612,0.23928833,-0.21534729,9.815353,3.199768,-15.518188,-37.29706,0.23802981,-0.21577178,9.801386,0.00052291155,0.0013872534,-0.00018978119,0.0,0.00024414062,3.0517578e-05
0.010847952,-0.012259109,0.9938645,0.2368927,-0.21534729,9.800995,3.0349731,-15.45105,-37.88147,0.23775986,-0.21569274,9.801394,-0.0006722212,0.0008492619,0.0013141632,0.0,-0.00010681152,9.1552734e-05
0.010869697,-0.012301015,0.99385947,0.23449707,-0.20817566,9.793823,2.4246216,-14.840698,-37.20398,0.23828188,-0.21645358,9.801366,0.0017052442,-0.0012726337,-0.0013551712,-0.00024414062,6.1035156e-05,-3.0517578e-05
0.0108535625,-0.012239491,0.9938627,0.23928833,-0.22253418,9.808182,2.3086548,-15.57312,-37.8006,0.23783103,-0.21529405,9.801401,-0.00022785366,0.0021042973,-0.000910759,0.00012207031,0.00018310547,-3.0517578e-05
0.010854114,-0.012255904,0.9938628,0.23928833,-0.21296692,9.796219,1.7669678,-15.176392,-37.168884,0.23751794,-0.2166201,9.80138,-0.0004274398,-0.001568824,0.0017766953,-6.1035156e-05,1.5258789e-05,0.00010681152
0.010883104,-0.012282049,0.99385566,0.2368927,-0.21534729,9.800995,1.6403198,-16.052246,-38.098145,0.23851022,-0.21604662,9.801369,0.0024148226,0.0007080734,-0.0016908646,0.0,0.00012207031,-3.0517578e-05
0.010885068,-0.012294809,0.99385536,0.2368927,-0.22253418,9.800995,3.1036377,-15.737915,-38.017273,0.23857611,-0.21629082,9.801362,-2.9325485e-05,0.0004773587,-0.00016307831,-0.00018310547,6.1035156e-05,9.1552734e-05
0.010881601,-0.012258043,0.99385566,0.23449707,-0.22013855,9.800995,2.2872925,-16.088867,-37.602234,0.23843005,-0.21558127,9.80138,0.00060497224,0.0014324486,-0.0012350082,-6.1035156e-05,0.00018310547,3.0517578e-05
0.01087681,-0.012265094,0.993857,0.2368927,-0.21534729,9.805786,3.213501,-15.1474,-37.75177,0.23834902,-0.21573202,9.801378,-0.00076541305,-0.00032392144,0.001420021,6.1035156e-05,-4.5776367e-05,-3.0517578e-05
0.010839845,-0.012277776,0.99386686,0.23928833,-0.21296692,9.8033905,2.670288,-16.421509,-38.064575,0.23763677,-0.21607956,9.801389,-0.0005181581,-0.0007007271,-0.0006580353,-6.1035156e-05,6.1035156e-05,-9.1552734e-05
0.010816879,-0.012261651,0.9938726,0.23928833,-0.22013855,9.796219,3.4576416,-15.060425,-37.667847,0.23714419,-0.21582608,9.801407,-0.00075797737,0.00096839666,4.1007996e-05,-0.00012207031,0.00012207031,-0.00015258789
0.01081559,-0.01225283,0.9938728,0.2368927,-0.21057129,9.800995,2.8839111,-15.242004,-37.983704,0.23710005,-0.21565706,9.801412,6.854534e-06,0.0005658865,0.0009851456,0.0,1.5258789e-05,-3.0517578e-05
0.010891332,-0.012250306,0.993853,0.2368927,-0.21534729,9.805786,1.9897461,-15.673828,-36.97815,0.23860838,-0.21540378,9.80138,0.002575785,0.0007840693,-0.0015764236,-6.1035156e-05,1.5258789e-05,0.00015258789
0.010888166,-0.0122980885,0.9938546,0.23449707,-0.22253418,9.810577,2.1255493,-16.17279,-37.312317,0.23864485,-0.21634658,9.801358,0.0001462102,-0.0013881922,-0.00024414062,-0.00018310547,-4.5776367e-05,0.000289917
0.010864056,-0.01232202,0.99386126,0.23928833,-0.21774292,9.810577,2.9541016,-15.531921,-37.51831,0.23821294,-0.21687946,9.801357,-0.00014469028,-0.00013296306,0.00046920776,-0.00018310547,0.00012207031,3.0517578e-05
0.01085781,-0.012360607,0.9938635,0.24645996,-0.21296692,9.796219,1.7791748,-16.477966,-38.49182,0.2381686,-0.21765076,9.801341,0.00015115738,-0.00080268085,-0.0006303787,-0.00018310547,1.5258789e-05,0.00022888184
0.0108740255,-0.012373479,0.9938595,0.2416687,-0.22013855,9.800995,2.5482178,-15.4800415,-38.24463,0.23851958,-0.21785878,9.801329,0.0005300641,0.00011086464,-0.0010557175,-0.00012207031,1.5258789e-05,0.00022888184
0.010904374,-0.012343294,0.9938511,0.23928833,-0.21296692,9.810577,2.9190063,-16.33606,-37.452698,0.23906316,-0.21718675,9.80133,0.0007008016,0.0020659864,0.0002603531,-6.1035156e-05,-0.00016784668,0.00035095215
0.010933733,-0.01228358,0.9938424,0.24406433,-0.21534729,9.808182,2.9556274,-15.457153,-37.727356,0.23952518,-0.21593998,9.801346,0.00071024895,0.0032162517,0.00018024445,-0.00024414062,-6.1035156e-05,9.1552734e-05
0.010946088,-0.012262773,0.99383885,0.24406433,-0.21296692,9.8033905,2.8823853,-15.393066,-37.260437,0.2397286,-0.21549977,9.801351,2.4735928e-05,0.0011057407,0.0007658005,-0.00018310547,1.5258789e-05,0.00015258789
0.010925845,-0.012273458,0.99384433,0.24406433,-0.21296692,9.805786,1.7379761,-15.908813,-36.78894,0.23934643,-0.21576336,9.801354,-0.00030857325,-6.648898e-05,-0.00013065338,-0.00012207031,6.1035156e-05,-3.0517578e-05
0.010937026,-0.012263653,0.99384123,0.2368927,-0.20817566,9.800995,1.651001,-15.756226,-38.56659,0.23954934,-0.21554145,9.801353,0.0011561513,0.00020961463,0.0008611679,0.00012207031,0.00018310547,0.00015258789
0.0109393615,-0.012256337,0.9938405,0.2416687,-0.21774292,9.8033905,3.6056519,-15.0390625,-39.179993,0.23958075,-0.21539213,9.801357,-0.00031843781,0.00029712915,0.00074005127,0.00012207031,1.5258789e-05,0.00015258789
0.010952963,-0.012302609,0.9938377,0.24406433,-0.21296692,9.808182,2.2521973,-15.145874,-37.031555,0.23994926,-0.21626012,9.801329,0.0009813607,-0.001235038,-0.0004720688,-0.00024414062,1.5258789e-05,9.1552734e-05
0.010930849,-0.0123440055,0.9938442,0.23928833,-0.22013855,9.8033905,2.709961,-15.46936,-38.249207,0.23959382,-0.21712925,9.801318,-0.00083628297,-0.0010634214,0.0017671585,-0.00012207031,-4.5776367e-05,0.00015258789
0.01094126,-0.012351956,0.9938416,0.2368927,-0.21296692,9.805786,2.6565552,-15.04364,-37.327576,0.23981848,-0.21725659,9.80131,0.0008801222,0.00048150122,-0.0015268326,-0.00030517578,6.1035156e-05,3.0517578e-05
0.0108854575,-0.012323476,0.9938557,0.2368927,-0.20817566,9.793823,1.5991211,-15.332031,-37.269592,0.2386437,-0.21685027,9.801347,-0.0022557974,0.0017607212,0.0007381439,-6.1035156e-05,-4.5776367e-05,0.000289917
0.010844166,-0.012284304,0.99386585,0.23449707,-0.21534729,9.8033905,2.3788452,-15.711975,-38.05847,0.23773678,-0.21619558,9.801385,-0.0011096001,0.0015848875,-0.0007829666,-0.00012207031,0.00018310547,3.0517578e-05
0.010839931,-0.012228723,0.993866,0.24645996,-0.22253418,9.805786,2.6565552,-14.889526,-38.430786,0.2375362,-0.21512024,9.801414,0.00030131638,0.002168253,-0.00036525726,0.0,0.00024414062,0.00015258789
0.010858351,-0.01228795,0.9938622,0.2416687,-0.21534729,9.796219,1.499939,-15.776062,-37.280273,0.23802786,-0.21622866,9.801376,0.0012383759,-0.0019824654,0.00038719177,-0.00012207031,6.1035156e-05,0.00015258789
0.010880424,-0.012263674,0.9938561,0.23449707,-0.20817566,9.800995,4.069519,-15.748596,-37.530518,0.2384183,-0.21569455,9.801378,0.00060653687,0.0010819435,-0.00021839142,6.1035156e-05,-4.5776367e-05,3.0517578e-05
0.010895926,-0.012271311,0.99385214,0.23928833,-0.21534729,9.810577,3.3432007,-15.794373,-37.8891,0.23874404,-0.2158021,9.801369,-0.00044631958,-0.00023587048,0.00081920624,0.0,-0.00016784668,9.1552734e-05
0.010943114,-0.012241297,0.99383926,0.24645996,-0.21534729,9.805786,1.6693115,-15.46936,-37.75482,0.2396243,-0.21508794,9.801363,0.0020252168,0.0012058914,0.0003900528,0.0,1.5258789e-05,0.00015258789
0.010947726,-0.0122094555,0.99383754,0.2416687,-0.21057129,9.796219,3.2485962,-16.091919,-38.020325,0.23964985,-0.21445286,9.801375,0.00033001602,0.0015241504,-0.0006971359,-6.1035156e-05,-4.5776367e-05,3.0517578e-05
0.010916879,-0.012232027,0.993846,0.23210144,-0.21774292,9.791428,2.7008057,-15.765381,-37.931824,0.2390807,-0.21497747,9.801378,-0.0010391176,-0.0015381277,0.0012807846,0.00012207031,0.0001373291,0.00010681152
0.010921321,-0.012287548,0.99384576,0.23928833,-0.22013855,9.800995,2.6260376,-15.698242,-37.838745,0.23928544,-0.21605106,9.80135,0.00044496357,-0.0011909008,-0.00088977814,-0.00018310547,6.1035156e-05,-9.1552734e-05
0.010903048,-0.012330011,0.99385124,0.23210144,-0.22013855,9.810577,3.5873413,-15.704346,-38.183594,0.23936838,-0.21637116,9.80134,0.00034242868,0.0015425831,0.0019035339,-0.00012207031,-0.00016784668,-9.1552734e-05
0.010869654,-0.0122917965,0.99385935,0.24406433,-0.21774292,9.812973,2.5436401,-15.625,-38.275146,0.23826176,-0.21627344,9.80137,-0.002846837,0.0004772991,-0.00048351288,-0.00012207031,-0.00010681152,0.00022888184
0.010882474,-0.012300624,0.99385613,0.24406433,-0.21774292,9.8033905,2.1453857,-15.505981,-38.38501,0.23853639,-0.21641149,9.80136,0.0006810576,-0.00030583143,0.0022306442,0.0,-0.00010681152,0.00035095215
0.010898162,-0.012282843,0.9938517,0.23928833,-0.21296692,9.815353,2.4368286,-16.217041,-38.464355,0.2388128,-0.21602154,9.801362,0.00039432943,0.0014648438,0.00086307526,-6.1035156e-05,1.5258789e-05,-0.00015258789
0.010845864,-0.012280853,0.9938654,0.2368927,-0.20817566,9.793823,2.684021,-16.20636,-37.643433,0.23776352,-0.21612355,9.801386,-0.0018903464,-0.00037626922,-0.0018291473,-6.1035156e-05,-4.5776367e-05,0.00022888184
0.010849293,-0.012302463,0.99386483,0.23210144,-0.21057129,9.808182,3.5766602,-16.07666,-37.200928,0.23787709,-0.2165368,9.801373,0.0008742064,-0.0016500056,-0.00022029877,6.1035156e-05,-0.00010681152,0.00015258789
0.010878295,-0.012306195,0.9938573,0.2368927,-0.21774292,9.8033905,2.3376465,-16.51001,-38.900757,0.2384645,-0.21653168,9.801359,0.001247555,2.3722649e-05,4.7683716e-06,6.1035156e-05,-4.5776367e-05,0.000289917
0.010869204,-0.012280452,0.99385923,0.2368927,-0.21534729,9.808182,1.7745972,-16.62445,-38.21869,0.23822911,-0.21605285,9.801375,-0.00042957067,0.0012141317,-0.00078868866,-0.00012207031,0.00012207031,3.0517578e-05
0.010828599,-0.0123633705,0.9938712,0.24406433,-0.22013855,9.793823,3.0792236,-16.247559,-38.27362,0.23759048,-0.21778339,9.8013525,-0.001215443,-0.002070114,0.00044059753,-0.00024414062,-0.00010681152,-9.1552734e-05
0.010840616,-0.0123234885,0.9938674,0.23449707,-0.21774292,9.800995,2.5985718,-16.053772,-39.19525,0.23774752,-0.21697128,9.801367,0.0007852316,0.00141491,-0.0005054474,-6.1035156e-05,0.00012207031,0.00015258789
0.0108217755,-0.012361651,0.99387294,0.23928833,-0.21534729,9.7986145,3.5385132,-16.343689,-40.501404,0.2374505,-0.21776815,9.801356,-0.00035580993,-0.00137043,0.0002937317,-6.1035156e-05,0.00012207031,-3.0517578e-05
0.010859405,-0.012317517,0.99386245,0.2416687,-0.21057129,9.7986145,2.7038574,-15.463257,-39.154053,0.23811057,-0.21680392,9.801361,0.0013737679,0.0024325997,-0.0007572174,-0.00012207031,-4.5776367e-05,0.00015258789
0.010840575,-0.012292896,0.9938669,0.2416687,-0.21774292,9.810577,3.4698486,-16.438293,-38.552856,0.23768291,-0.21637322,9.801381,-0.00036670268,0.0005827248,0.0014019012,0.0,0.00012207031,-9.1552734e-05
0.010904785,-0.012300445,0.9938503,0.2368927,-0.22013855,9.800995,2.156067,-16.731262,-40.296936,0.23898192,-0.21634784,9.801351,0.0026501864,0.0010336787,-0.001124382,-0.00018310547,6.1035156e-05,9.1552734e-05
0.010859061,-0.012305327,0.99386233,0.23449707,-0.21534729,9.808182,3.4179688,-15.707397,-39.2334,0.2380783,-0.21656652,9.801368,-0.001703009,-0.00041887164,0.0006837845,6.1035156e-05,1.5258789e-05,0.000289917
0.010830133,-0.012332447,0.9938703,0.2368927,-0.22013855,9.800995,2.9190063,-16.030884,-39.279175,0.23755668,-0.21717463,9.801367,-0.0012058914,-0.0012364239,0.0007724762,-6.1035156e-05,1.5258789e-05,0.00015258789
0.010893652,-0.012371063,0.99385434,0.23928833,-0.22253418,9.800995,3.541565,-16.575623,-38.887024,0.23890683,-0.21775863,9.801321,0.0024930686,-0.00090922415,-0.0012311935,-6.1035156e-05,-0.00016784668,-9.1552734e-05
0.010866272,-0.012347048,0.99386114,0.23928833,-0.21296692,9.7986145,2.4719238,-15.414429,-38.00049,0.23830947,-0.21736287,9.801345,-0.0009691566,0.000604406,-0.0011501312,6.1035156e-05,0.00012207031,9.1552734e-05
0.010852575,-0.012310272,0.99386406,0.23449707,-0.22253418,9.796219,3.9093018,-14.08844,-36.961365,0.23795898,-0.21668066,9.801368,-0.0008548647,0.0020650774,0.00067424774,-0.00012207031,-0.00010681152,0.000289917
0.010857078,-0.012313473,0.993863,0.2368927,-0.21057129,9.8033905,3.4683228,-14.76593,-37.91046,0.23805566,-0.21673115,9.801365,-0.00022047758,-4.8592687e-05,-0.0011444092,0.0,-0.00010681152,0.00022888184
0.01085945,-0.01231377,0.99386233,0.23928833,-0.21296692,9.805786,2.3895264,-15.493774,-37.86316,0.23810367,-0.21673055,9.801363,0.00019055605,0.00092482567,0.0011663437,-0.00024414062,6.1035156e-05,9.1552734e-05
0.010852969,-0.012293014,0.9938637,0.24406433,-0.21774292,9.808182,4.0863037,-15.155029,-38.920593,0.23793086,-0.21634217,9.801376,-0.00010685623,0.00196819,-0.0001821518,-0.00024414062,6.1035156e-05,-3.0517578e-05
0.010877188,-0.012295518,0.99385744,0.2368927,-0.21774292,9.7986145,1.914978,-15.304565,-38.25836,0.23842011,-0.21632591,9.801365,0.0005914271,0.0005199611,0.00021076202,-0.00018310547,-4.5776367e-05,0.00035095215
0.0108735375,-0.012338967,0.9938591,0.2416687,-0.21296692,9.808182,3.413391,-15.930176,-38.523865,0.23843783,-0.21718529,9.801346,-0.00014351308,-0.0010161251,-1.6212463e-05,-0.00012207031,-0.00010681152,-3.0517578e-05
0.010883695,-0.012316899,0.9938561,0.2416687,-0.21057129,9.800995,1.9943237,-15.374756,-38.050842,0.23859479,-0.21672642,9.801352,-6.386638e-05,0.0004543811,0.0006303787,-6.1035156e-05,-4.5776367e-05,0.00022888184
0.010897231,-0.012311716,0.99385244,0.2416687,-0.21774292,9.7986145,2.3712158,-15.853882,-38.616943,0.23885448,-0.21658857,9.801348,-9.396672e-05,0.0003158152,-5.2452087e-05,6.1035156e-05,-0.00022888184,0.000289917
0.010916672,-0.0123706665,0.9938483,0.24406433,-0.22253418,9.7986145,3.0593872,-16.685486,-38.43689,0.23936613,-0.2176888,9.8013115,0.0010802299,-0.0017033368,-0.0006723404,-0.00012207031,1.5258789e-05,0.000289917
0.010887761,-0.012345941,0.9938555,0.23449707,-0.21774292,9.8033905,3.239441,-16.159058,-38.789368,0.23873663,-0.2172833,9.801335,-0.0014164001,0.0005430877,0.0011491776,0.0,-4.5776367e-05,-3.0517578e-05
0.01084833,-0.012331447,0.99386555,0.23928833,-0.22732544,9.800995,2.2109985,-16.020203,-37.35962,0.23791829,-0.2171061,9.801359,-0.0020329952,0.0008395761,0.00013256073,0.0,-4.5776367e-05,0.00016784668
0.010815729,-0.012309064,0.99387366,0.2368927,-0.21057129,9.812973,2.4230957,-14.839172,-37.431335,0.23722005,-0.21675618,9.801384,-0.0013291985,0.0012018085,-0.0003862381,-0.00018310547,-0.00010681152,3.0517578e-05
0.010849438,-0.012302386,0.9938648,0.2368927,-0.22492981,9.808182,1.5457153,-16.499329,-37.504578,0.23787981,-0.21653491,9.801373,0.00066533685,0.00072301924,-0.001206398,-0.00012207031,-0.00010681152,0.00035095215
0.01086055,-0.012319432,0.99386215,0.2368927,-0.21534729,9.800995,3.5079956,-15.484619,-38.88855,0.23813748,-0.21683829,9.80136,0.00039079785,-0.00014841557,0.0007534027,-0.00012207031,-0.00016784668,0.00022888184
0.010853077,-0.012309087,0.99386394,0.23928833,-0.21296692,9.7986145,1.7288208,-16.052246,-37.27112,0.23796654,-0.21665615,9.801368,-0.0001397878,0.0013336837,-0.0012521744,-6.1035156e-05,6.1035156e-05,-3.0517578e-05
0.010881691,-0.012283355,0.993856,0.24406433,-0.21534729,9.791428,2.8549194,-15.823364,-38.328552,0.2384847,-0.21607594,9.801368,0.0012633204,0.001442641,-0.0011501312,-0.00012207031,-4.5776367e-05,3.0517578e-05
0.010871135,-0.012269088,0.9938586,0.2368927,-0.21534729,9.805786,2.5543213,-15.484619,-37.641907,0.23824395,-0.21582542,9.801379,-0.00019189715,0.00049081445,0.0014591217,-0.00012207031,0.00024414062,0.00022888184
0.010882612,-0.01227505,0.99385566,0.2416687,-0.22253418,9.800995,3.439331,-15.34729,-38.25531,0.23848577,-0.21591108,9.801372,0.00053684413,9.5024705e-05,-0.0007753372,0.0,-4.5776367e-05,0.00022888184
0.010901415,-0.012247792,0.9938503,0.2368927,-0.20578003,9.8033905,2.7877808,-15.536499,-38.34076,0.2388046,-0.21532743,9.801376,0.00070893764,0.0016604215,-0.00019836426,-6.1035156e-05,1.5258789e-05,0.0002746582
0.010898219,-0.012287944,0.9938518,0.2368927,-0.21296692,9.8033905,2.5863647,-16.499329,-38.378906,0.2388246,-0.21612112,9.801359,-0.00077869,-0.0011153072,0.0014753342,-0.00012207031,-0.00016784668,0.00035095215
0.010892033,-0.012285723,0.9938534,0.23210144,-0.21534729,9.808182,3.2592773,-15.873718,-37.825012,0.23869632,-0.21609439,9.801363,-0.00040833652,0.00053831935,0.00019550323,-0.00012207031,-4.5776367e-05,9.1552734e-05
0.010887327,-0.0122562805,0.9938541,0.23210144,-0.21534729,9.791428,2.267456,-16.297913,-38.77716,0.23854078,-0.21553136,9.801378,-0.0004862249,0.0016439855,-0.00083065033,-0.00018310547,-0.00022888184,0.0004119873
0.01088377,-0.012318275,0.9938561,0.23928833,-0.21296692,9.805786,3.0639648,-15.020752,-36.662292,0.23859914,-0.21675311,9.801351,-0.0005324036,-0.0014634132,-0.0010194778,-0.00012207031,-4.5776367e-05,0.00015258789
0.010893049,-0.012332704,0.99385387,0.23449707,-0.21774292,9.812973,2.4765015,-15.1901245,-38.786316,0.23881471,-0.21701024,9.80134,0.00068837404,-0.00024680793,-0.00019168854,-0.00012207031,1.5258789e-05,0.00035095215
0.010872722,-0.012333305,0.99385923,0.2416687,-0.21534729,9.793823,1.8844604,-15.885925,-38.526917,0.2384097,-0.21707676,9.801349,-0.00057557225,0.00078625977,0.0005083084,-0.00018310547,6.1035156e-05,3.0517578e-05
0.010846254,-0.012336784,0.99386615,0.23449707,-0.21534729,9.800995,3.2958984,-15.145874,-37.301636,0.23788792,-0.21721604,9.801357,-0.00077685714,-0.0005033314,0.000497818,-6.1035156e-05,0.00012207031,4.5776367e-05
0.010869691,-0.01235637,0.99386036,0.24406433,-0.22732544,9.7986145,2.5405884,-15.621948,-38.65204,0.23839724,-0.2175359,9.801338,0.0010877401,5.1259995e-05,0.00049877167,-0.00012207031,1.5258789e-05,3.0517578e-05
0.010925726,-0.012363733,0.9938459,0.2416687,-0.21296692,9.805786,2.482605,-15.270996,-37.747192,0.23953262,-0.21752878,9.801311,0.0021089613,0.00075651705,-0.0004644394,-0.00024414062,-4.5776367e-05,0.00015258789
0.010903602,-0.01237585,0.99385184,0.22732544,-0.21534729,9.805786,3.4469604,-16.793823,-39.907837,0.23911569,-0.2178254,9.801314,-0.0006021559,-0.00010918081,0.00091934204,-0.00012207031,6.1035156e-05,9.1552734e-05
0.0108618,-0.012339429,0.99386215,0.23928833,-0.21057129,9.808182,2.8518677,-15.896606,-38.342285,0.23820418,-0.21722594,9.801351,-0.001361832,0.0019245744,-0.0005044937,-0.00018310547,6.1035156e-05,0.00015258789