rotationVector_x,rotationVector_y,rotationVector_z,accelerometer_x,accelerometer_y,accelerometer_z,magneticField_x,magneticField_y,magneticField_z,gravity_x,gravity_y,gravity_z,linearAcceleration_x,linearAcceleration_y,linearAcceleration_z,gyroscope_x,gyroscope_y,gyroscope_z
0.010849465,-0.012358683,0.99386567,0.23928833,-0.21534729,9.7986145,2.4993896,-16.574097,-38.616943,0.23799777,-0.2176356,9.801346,-0.00018432736,-0.00078739226,-0.0008163452,-0.00012207031,6.1035156e-05,3.0517578e-05
0.010871319,-0.012375033,0.99386024,0.23928833,-0.21296692,9.796219,2.973938,-15.092468,-37.504578,0.2384687,-0.21789645,9.801329,0.0010063499,-5.207956e-05,0.0001001358,0.0,1.5258789e-05,9.1552734e-05
0.010894698,-0.01238422,0.9938543,0.2368927,-0.21774292,9.8033905,2.458191,-15.933228,-37.197876,0.23895518,-0.21801303,9.801313,0.00030741096,-0.0004235804,-0.0013742447,-6.1035156e-05,-0.00010681152,3.0517578e-05
0.010900588,-0.012359599,0.9938524,0.2416687,-0.21774292,9.8033905,1.9134521,-16.972351,-39.42871,0.23902154,-0.21751578,9.801324,0.00023108721,0.0014685541,0.0008468628,-0.00012207031,1.5258789e-05,0.000289917
0.01090867,-0.01236064,0.99385023,0.23928833,-0.22013855,9.7986145,2.1438599,-15.505981,-38.459778,0.23918524,-0.21751432,9.801319,0.000550881,0.00026735663,-0.000869751,6.1035156e-05,-4.5776367e-05,0.00010681152
0.010906244,-0.012348487,0.9938507,0.2368927,-0.21296692,9.7986145,2.6901245,-15.907288,-38.337708,0.23911138,-0.21728326,9.801327,-0.00032547116,0.00027035177,-0.0008955002,6.1035156e-05,6.1035156e-05,0.00022888184
0.010869389,-0.012288586,0.99385935,0.23449707,-0.21774292,9.7986145,2.5482178,-15.6311035,-37.597656,0.2382498,-0.21621138,9.801372,-0.0023502707,0.00040474534,0.00070762634,0.00012207031,6.1035156e-05,-3.0517578e-05
0.010815248,-0.012281728,0.99387336,0.2368927,-0.21774292,9.8033905,3.2180786,-14.924622,-38.461304,0.23715344,-0.21622299,9.801397,-0.001727879,0.0013786256,0.00016307831,-0.00030517578,6.1035156e-05,-0.0002746582
0.01082572,-0.012279226,0.9938706,0.2368927,-0.20817566,9.796219,3.0090332,-15.882874,-38.874817,0.23735751,-0.21614592,9.801394,0.0006736517,-0.00035971403,0.0015382767,0.0,-0.00022888184,-3.0517578e-05
0.010851509,-0.012284915,0.99386394,0.24406433,-0.22253418,9.808182,2.5878906,-16.348267,-38.876343,0.23788477,-0.21618775,9.80138,0.00015302002,-7.9885125e-05,-0.0005645752,-0.00018310547,-0.00010681152,9.1552734e-05
0.010860758,-0.012356298,0.9938627,0.2368927,-0.21296692,9.791428,2.545166,-15.78064,-37.249756,0.23821853,-0.21755856,9.801342,0.00076682866,-0.002282098,0.0010614395,0.00012207031,-0.00016784668,0.00021362305
0.010857434,-0.012350835,0.99386346,0.23928833,-0.21534729,9.808182,1.423645,-15.557861,-37.83722,0.23814069,-0.21746068,9.801346,-0.0008189827,2.0712614e-06,-0.001200676,-0.00018310547,0.00018310547,-9.1552734e-05
0.010810751,-0.012396461,0.9938764,0.24645996,-0.21296692,9.805786,3.0960083,-15.957642,-37.835693,0.23730263,-0.2184784,9.801344,-0.0014265776,-0.0008920282,0.0009660721,-0.00018310547,1.5258789e-05,0.00022888184
0.0108244615,-0.01234125,0.9938719,0.23928833,-0.21774292,9.8033905,2.7038574,-15.768433,-37.55493,0.23746166,-0.21736202,9.801365,0.0008161515,0.0022886544,-0.0004787445,0.0,-0.00010681152,0.00021362305
0.01087788,-0.012370963,0.99385846,0.2416687,-0.21534729,9.796219,2.8656006,-15.756226,-37.635803,0.23859136,-0.21779917,9.801328,0.0013699085,-0.00039166212,-0.0004711151,0.0,-4.5776367e-05,0.00015258789
0.010866491,-0.012347479,0.9938611,0.2416687,-0.21057129,9.8033905,1.7105103,-16.18805,-38.882446,0.23831472,-0.21737069,9.801344,-0.0002834648,0.0008650422,0.00063991547,-0.00024414062,6.1035156e-05,0.0002746582
0.0108857555,-0.012287721,0.99385506,0.23449707,-0.22492981,9.7986145,2.6397705,-15.026855,-39.665222,0.23857506,-0.21615037,9.801365,0.00069381297,0.0029722005,-0.002603531,0.0,0.00012207031,-0.00015258789
0.01088543,-0.012263156,0.99385476,0.2368927,-0.22013855,9.7986145,3.3187866,-16.152954,-39.09149,0.23851724,-0.21567093,9.801376,6.5520406e-05,0.0012592077,-0.0025291443,-0.00012207031,6.1035156e-05,0.00015258789
0.010844183,-0.0122802835,0.9938658,0.2416687,-0.21296692,9.793823,3.3584595,-15.2771,-38.916016,0.23772871,-0.2161169,9.801386,-0.0013096929,-0.00043523312,0.0010309219,0.0,-4.5776367e-05,-9.1552734e-05
0.010870126,-0.012302247,0.99385935,0.22970581,-0.20578003,9.808182,4.611206,-15.991211,-39.112854,0.23829302,-0.21647651,9.801365,0.00097619,-0.00053186715,0.0014839172,0.0,6.1035156e-05,-0.00021362305
0.010847857,-0.012259188,0.9938645,0.24406433,-0.21534729,9.805786,3.6437988,-16.210938,-38.363647,0.23775813,-0.21569455,9.801394,-0.00063434243,0.0015492737,-0.0004491806,-0.00018310547,0.00012207031,-0.0002746582
0.010854304,-0.012245242,0.99386257,0.23928833,-0.21534729,9.800995,3.2318115,-16.378784,-38.607788,0.23785785,-0.21540451,9.801398,0.00044631958,0.0010239482,0.0008211136,-0.00012207031,-4.5776367e-05,0.00022888184
0.010877631,-0.012238388,0.9938564,0.23449707,-0.21296692,9.8033905,3.0273438,-15.44342,-39.01367,0.2383097,-0.21520767,9.801392,0.0011701584,0.0008401722,0.0011796951,-6.1035156e-05,1.5258789e-05,-0.00021362305
0.010887896,-0.012241528,0.99385375,0.23449707,-0.21534729,9.7986145,2.420044,-14.8376465,-37.731934,0.23852138,-0.2152414,9.801386,0.0002412945,0.00015671551,-3.8146973e-06,-6.1035156e-05,6.1035156e-05,-3.0517578e-05
0.010864559,-0.012276084,0.9938604,0.2368927,-0.21296692,9.8033905,3.2958984,-14.994812,-38.02643,0.23812714,-0.21597995,9.801379,-0.0005566925,-0.0012542158,0.00016021729,6.1035156e-05,6.1035156e-05,-0.00015258789
0.010853059,-0.012231049,0.9938627,0.2416687,-0.21534729,9.796219,3.2546997,-16.021729,-37.6297,0.23780334,-0.21513034,9.801405,-0.0002180934,0.0012396574,-0.0011816025,6.1035156e-05,0.00012207031,3.0517578e-05
0.01089564,-0.012248981,0.99385184,0.2368927,-0.20578003,9.7986145,3.3325195,-16.088867,-37.719727,0.23869169,-0.21536626,9.801379,0.0020131469,-0.00068211555,-0.0006284714,0.0,1.5258789e-05,0.00015258789
0.010889187,-0.012280254,0.99385405,0.24406433,-0.22013855,9.793823,2.4765015,-15.41748,-37.54883,0.23862804,-0.2159951,9.801367,-7.177889e-05,-0.0005441457,-0.00025177002,-0.00018310547,0.00012207031,-0.00015258789
0.01091048,-0.012300348,0.9938488,0.23449707,-0.21296692,9.810577,2.4047852,-15.05127,-38.453674,0.23909552,-0.21633057,9.801348,0.0016156137,-0.00068478286,-0.00033664703,-6.1035156e-05,6.1035156e-05,-0.00015258789
0.010893012,-0.012288333,0.99385315,0.23928833,-0.21057129,9.7986145,2.1194458,-16.168213,-38.064575,0.23872133,-0.21614274,9.80136,-0.00089506805,0.001049459,0.0013790131,-0.00012207031,1.5258789e-05,-9.1552734e-05
0.010879805,-0.012277172,0.99385643,0.24406433,-0.22013855,9.800995,4.38385,-15.718079,-38.822937,0.2384341,-0.21596012,9.801372,-0.00036653876,0.00085558,-0.0009918213,-0.00018310547,6.1035156e-05,3.0517578e-05
0.010828705,-0.012319554,0.9938705,0.23449707,-0.21534729,9.810577,2.7496338,-16.337585,-38.72986,0.23750125,-0.21692638,9.8013735,-0.0013619512,-0.0017447323,0.0017271042,-0.00018310547,6.1035156e-05,3.0517578e-05
0.010844812,-0.012318571,0.99386626,0.23449707,-0.21774292,9.808182,2.3635864,-16.15448,-37.61902,0.23782115,-0.21686386,9.801368,0.00071132183,0.00083468854,0.00019931793,-0.00018310547,1.5258789e-05,-9.1552734e-05
0.010814876,-0.0123194335,0.9938741,0.2368927,-0.21534729,9.810577,3.829956,-15.538025,-38.687134,0.2372246,-0.21696122,9.801379,-0.0011041611,0.0009471774,0.0014123917,0.0,1.5258789e-05,3.0517578e-05
0.010836813,-0.012281751,0.99386775,0.2368927,-0.21534729,9.800995,3.4927368,-15.774536,-39.17389,0.23758446,-0.21616542,9.801388,0.00093372166,0.0008663386,-0.00018405914,0.0,1.5258789e-05,-1.5258789e-05
0.010885572,-0.012303756,0.99385536,0.24645996,-0.21534729,9.810577,2.3513794,-16.522217,-37.165833,0.23860486,-0.21646439,9.801357,0.0016004592,-6.198883e-05,-0.0020284653,-6.1035156e-05,1.5258789e-05,0.00015258789
0.010851646,-0.012317015,0.9938644,0.23210144,-0.21296692,9.800995,2.154541,-15.286255,-38.415527,0.2379545,-0.21681502,9.801366,-0.0010799617,-0.00043831766,-0.00087451935,-0.00030517578,0.00012207031,-0.00015258789
0.010855659,-0.012331853,0.99386364,0.2368927,-0.21774292,9.805786,2.871704,-15.458679,-38.253784,0.23806562,-0.2170943,9.801355,0.0009480268,0.0010577291,0.0010204315,-0.00012207031,0.00018310547,0.00015258789
0.010876257,-0.012292592,0.9938576,0.23449707,-0.22253418,9.810577,2.130127,-15.950012,-37.794495,0.23839538,-0.21627119,9.801366,0.001344651,0.0016604215,-0.00076007843,6.1035156e-05,6.1035156e-05,-0.00015258789
0.010907479,-0.012308928,0.9938497,0.2368927,-0.21057129,9.805786,2.178955,-15.005493,-36.92627,0.23905343,-0.21650642,9.801344,0.00092089176,-0.00049109757,0.0007677078,-0.00030517578,7.6293945e-05,-9.1552734e-05
0.010899738,-0.012359894,0.99385256,0.23928833,-0.22013855,9.8033905,3.3874512,-14.69574,-38.345337,0.23900518,-0.21752383,9.801324,0.00023180246,-0.000660643,0.0016393661,-0.00018310547,-4.5776367e-05,3.0517578e-05
0.01090588,-0.012363552,0.993851,0.23928833,-0.21057129,9.808182,2.2460938,-15.1397705,-37.78534,0.23913556,-0.21757881,9.80132,9.764731e-05,-0.00011396408,0.0003004074,0.0,1.5258789e-05,0.00010681152
0.010869808,-0.012385333,0.99386084,0.23928833,-0.22013855,9.810577,2.7755737,-15.829468,-38.09967,0.23845997,-0.21810189,9.801324,-0.0006535202,-0.00055882335,-0.0006055832,-6.1035156e-05,6.1035156e-05,0.00015258789
0.010878757,-0.012371685,0.9938583,0.2368927,-0.22253418,9.805786,3.2196045,-14.8498535,-38.597107,0.23861039,-0.21781093,9.801327,0.00013926625,0.00058700144,0.00023841858,-0.00018310547,6.1035156e-05,-9.1552734e-05
0.010892744,-0.01237103,0.9938546,0.2416687,-0.21296692,9.805786,2.9174805,-16.104126,-39.06555,0.23888862,-0.21776044,9.801322,0.0012835264,0.00054727495,0.0009498596,0.0,0.00012207031,-0.00021362305
0.010930143,-0.012337774,0.9938443,0.24406433,-0.22492981,9.810577,2.6260376,-15.698242,-37.838745,0.23956667,-0.21700929,9.801321,0.0015686303,0.0021897405,-0.00015735626,-0.00048828125,0.0001373291,9.1552734e-05
0.010947606,-0.012377054,0.99384034,0.23449707,-0.21534729,9.820145,2.6290894,-15.701294,-37.31079,0.23999777,-0.2177302,9.801295,0.0011519939,0.000257805,-0.0012140274,-0.00036621094,-6.1035156e-05,0.00022888184
0.0109160235,-0.012395904,0.9938489,0.23449707,-0.22253418,9.800995,2.2705078,-16.299438,-38.55133,0.23940587,-0.21818402,9.8013,-0.0011418313,1.0222197e-05,0.0014352798,0.0,1.5258789e-05,3.0517578e-05
0.010896208,-0.01239282,0.99385405,0.23928833,-0.21774292,9.805786,2.4368286,-16.218567,-38.238525,0.2390033,-0.21817712,9.801309,-0.0007407516,0.0002489239,0.00015449524,-0.00018310547,1.5258789e-05,3.0517578e-05
0.010896154,-0.012352702,0.9938534,0.2416687,-0.21296692,9.800995,2.1835327,-16.374207,-38.86566,0.23891851,-0.21739288,9.801329,-0.00016000867,0.0011220872,-0.0022668839,0.0,-4.5776367e-05,0.00015258789
0.0108977,-0.012342264,0.99385285,0.2416687,-0.21057129,9.805786,2.519226,-16.13617,-38.67798,0.23892763,-0.21718462,9.801333,-0.0001641661,0.00066512823,-0.00038909912,0.0,-4.5776367e-05,-9.1552734e-05
0.010935123,-0.012323587,0.9938427,0.2368927,-0.22253418,9.8033905,3.5964966,-15.408325,-38.49945,0.23963657,-0.21671847,9.801326,0.0015098155,0.00068333745,0.0010099411,0.00012207031,6.1035156e-05,9.1552734e-05
0.010915443,-0.012284674,0.99384725,0.24406433,-0.21534729,9.791428,3.2653809,-15.727234,-37.947083,0.23916198,-0.21601073,9.801353,-0.0008839071,0.0014248043,3.1471252e-05,0.0,0.00024414062,3.0517578e-05
0.010884517,-0.0122932475,0.9938555,0.2368927,-0.22013855,9.805786,2.9312134,-15.966797,-38.056946,0.23856184,-0.21626177,9.801363,-0.00027412176,-0.0002553165,-0.00077819824,-0.00024414062,0.00024414062,-0.00015258789
0.010830655,-0.01231888,0.99386996,0.23449707,-0.21057129,9.808182,2.6245117,-15.698242,-37.98828,0.23753883,-0.21690798,9.8013735,-0.0009152889,-0.0008121133,-0.0011663437,0.0,-4.5776367e-05,-9.1552734e-05
0.010843154,-0.0123053,0.99386644,0.22970581,-0.21534729,9.8033905,3.4973145,-15.779114,-38.64746,0.23776032,-0.2166088,9.801374,-0.00018523633,0.000804916,0.00082683563,-0.00024414062,1.5258789e-05,-0.00021362305
0.010849459,-0.012320104,0.9938651,0.23928833,-0.21534729,9.8033905,2.7893066,-15.538025,-38.191223,0.23791721,-0.2168813,9.801365,0.000368163,-0.0001064837,0.0005540848,-6.1035156e-05,-0.00016784668,-0.00015258789
0.010875213,-0.0122996615,0.993858,0.23449707,-0.21296692,9.8033905,2.4291992,-16.363525,-38.34381,0.23838927,-0.21641223,9.801363,0.000583604,0.0013585538,0.0024518967,-0.00012207031,1.5258789e-05,0.00015258789
0.010869084,-0.012304514,0.9938597,0.23928833,-0.22013855,9.8033905,2.2888184,-16.012573,-37.812805,0.2382769,-0.2165236,9.801363,-9.968877e-06,0.0002695918,-0.0009174347,-0.00012207031,0.00030517578,-3.0517578e-05
0.010865585,-0.012340574,0.9938612,0.24406433,-0.21774292,9.796219,3.227234,-14.857483,-37.5412,0.23828222,-0.21723811,9.801348,0.00046680868,-0.00070242584,-0.00077342987,-0.00030517578,1.5258789e-05,0.00015258789
0.01088468,-0.012342373,0.99385625,0.23928833,-0.21774292,9.808182,4.0771484,-15.602112,-37.651062,0.2386676,-0.21722183,9.801338,0.0010352433,0.001210615,0.00061035156,-0.00018310547,0.00018310547,-3.0517578e-05
0.0108595975,-0.012298281,0.99386203,0.23449707,-0.21296692,9.796219,2.482605,-15.194702,-38.183594,0.23807432,-0.21642731,9.801371,-3.6612153e-05,0.002555415,-0.0010299683,-0.00018310547,1.5258789e-05,3.0517578e-05
0.010873273,-0.012314416,0.99385875,0.24406433,-0.22013855,9.808182,3.4210205,-15.710449,-38.856506,0.23838128,-0.21670593,9.801356,0.00063346326,-0.00053720176,-0.0013284683,-0.00012207031,0.00024414062,-3.0517578e-05
0.01090341,-0.012351476,0.9938515,0.2416687,-0.21057129,9.805786,3.1585693,-16.241455,-38.424683,0.239061,-0.21734935,9.801327,0.0016189069,-0.0008429736,0.0010280609,-0.00012207031,-4.5776367e-05,-9.1552734e-05
0.010921049,-0.012326587,0.9938465,0.23928833,-0.20817566,9.808182,2.6138306,-15.840149,-38.39569,0.23936155,-0.21681511,9.801331,0.0008277744,0.0022258162,0.00021457672,-0.00018310547,6.1035156e-05,-9.1552734e-05
0.010884904,-0.01234082,0.99385613,0.23449707,-0.21534729,9.808182,3.2485962,-16.0141,-38.534546,0.23866886,-0.21719088,9.801339,-0.0013418496,-0.00027267635,-0.00048446655,-0.00012207031,-0.00010681152,-0.00015258789
0.0108731445,-0.012347612,0.99385935,0.23449707,-0.21534729,9.808182,2.7236938,-15.176392,-38.191223,0.23844798,-0.21735536,9.801341,-0.0006323606,0.0003645867,-9.536743e-07,-0.00030517578,0.00018310547,-0.00015258789
0.010849414,-0.012357901,0.99386567,0.23928833,-0.21534729,9.796219,3.0670166,-14.945984,-36.87439,0.23799512,-0.21762043,9.801346,4.3720007e-05,0.00016193092,0.0004749298,0.0,0.00012207031,9.1552734e-05
0.010880477,-0.0123391105,0.99385726,0.2368927,-0.20817566,9.810577,2.6763916,-16.27655,-38.11035,0.2385768,-0.21716937,9.801342,0.0013883859,0.0011415929,-0.00032424927,-0.00018310547,6.1035156e-05,3.0517578e-05
0.010881116,-0.012348282,0.99385726,0.24406433,-0.21296692,9.8033905,4.182434,-15.013123,-37.913513,0.2386087,-0.217347,9.801337,0.00014583766,0.00011853874,0.00042819977,0.0,0.00012207031,0.00022888184
0.010929627,-0.012328843,0.9938443,0.23449707,-0.21774292,9.800995,3.0166626,-15.661621,-39.13269,0.23953772,-0.21683607,9.801326,0.0021025836,0.0010400116,-0.00019454956,-0.00012207031,-0.00016784668,9.1552734e-05
0.010895244,-0.012376132,0.99385405,0.24645996,-0.21774292,9.8033905,3.3462524,-15.4953,-39.11133,0.23894924,-0.21785346,9.801318,-0.0011276156,-0.0012942851,-0.00091838837,6.1035156e-05,0.00012207031,0.00015258789
0.010917171,-0.0123736095,0.99384826,0.24645996,-0.21774292,9.8033905,3.692627,-15.037537,-38.72986,0.23938225,-0.21774499,9.80131,0.001078859,1.7911196e-05,-0.0012569427,-6.1035156e-05,6.1035156e-05,-3.0517578e-05
0.010917003,-0.012349089,0.9938479,0.23928833,-0.21296692,9.7986145,3.479004,-16.142273,-39.09607,0.23932767,-0.21726598,9.801321,-5.38975e-05,0.0011994988,-0.00020599365,-6.1035156e-05,-4.5776367e-05,9.1552734e-05
0.010914717,-0.012324095,0.9938481,0.23449707,-0.21534729,9.805786,2.2827148,-16.08429,-38.28125,0.23922978,-0.21678346,9.801334,4.400313e-05,0.0012052059,2.5749207e-05,-0.00018310547,6.1035156e-05,-9.1552734e-05
0.010934,-0.012353383,0.9938435,0.2416687,-0.22013855,9.786652,1.8798828,-16.108704,-38.11798,0.23967639,-0.2173041,9.801312,0.0007596016,-0.0004002601,0.0022611618,-0.00024414062,-4.5776367e-05,-9.1552734e-05
0.010925499,-0.012317905,0.99384516,0.24406433,-0.21057129,9.812973,2.418518,-14.836121,-37.95929,0.23943233,-0.21663333,9.801332,-0.00043283403,0.0017995089,0.00022888184,-0.00012207031,1.5258789e-05,-9.1552734e-05
0.010968703,-0.012343929,0.99383426,0.23449707,-0.22253418,9.793823,2.1499634,-15.664673,-36.831665,0.24035022,-0.2170255,9.801302,0.001966402,7.605553e-05,0.0031900406,-0.00024414062,0.00018310547,3.0517578e-05
0.010935769,-0.012362944,0.9938432,0.23210144,-0.22253418,9.7986145,2.9785156,-15.098572,-36.749268,0.23973171,-0.21748625,9.801307,-0.0005224794,-0.00018493831,-0.00041675568,-0.00012207031,1.5258789e-05,0.00015258789
0.010946937,-0.012327895,0.99383974,0.2368927,-0.21774292,9.805786,3.1707764,-16.023254,-38.305664,0.23988168,-0.2167708,9.801319,7.008016e-05,0.0019450933,-0.00203228,6.1035156e-05,6.1035156e-05,-3.0517578e-05
0.010930749,-0.012339336,0.99384415,0.23928833,-0.21774292,9.7986145,3.7628174,-15.325928,-38.339233,0.23941961,-0.21669464,9.801332,-0.0008890927,0.00017870963,-0.0010404587,-6.1035156e-05,-0.00010681152,9.1552734e-05
0.010904896,-0.012375272,0.9938515,0.2416687,-0.20817566,9.800995,2.4841309,-15.196228,-38.108826,0.23914036,-0.21781062,9.801314,-0.00061668456,-0.0003773272,0.0010910034,-0.00012207031,-4.5776367e-05,-3.0517578e-05
0.01090576,-0.012353749,0.9938509,0.2416687,-0.21534729,9.789032,2.9312134,-15.963745,-38.433838,0.23911272,-0.21738745,9.801325,0.00014276803,0.0008645654,-0.0011873245,-6.1035156e-05,6.1035156e-05,3.0517578e-05
0.010888531,-0.012357697,0.9938555,0.23928833,-0.21057129,9.7986145,2.7908325,-15.539551,-37.8891,0.23877658,-0.21751109,9.80133,-0.0004646778,0.0004991144,-0.0014295578,-0.00036621094,1.5258789e-05,3.0517578e-05
0.010909642,-0.012343258,0.9938497,0.24406433,-0.22492981,9.810577,2.1240234,-16.020203,-38.18817,0.23916839,-0.21717185,9.801328,0.0010411143,0.0020760149,0.00081539154,-0.00030517578,0.00012207031,3.0517578e-05
0.0109324595,-0.012372228,0.9938442,0.23928833,-0.21534729,9.800995,2.9083252,-16.47644,-38.537598,0.23968497,-0.21767674,9.801305,0.001492396,0.00017935038,-0.00057029724,-0.00036621094,0.00030517578,-3.0517578e-05
0.010942059,-0.012365023,0.9938416,0.2416687,-0.21534729,9.808182,2.8747559,-15.385437,-38.24005,0.23986179,-0.21750994,9.801304,0.0013027042,0.0017026663,0.0010566711,-0.00030517578,0.00012207031,-0.0002746582
0.010931752,-0.012333804,0.9938438,0.24406433,-0.21296692,9.7986145,3.0975342,-15.80658,-38.409424,0.23959054,-0.21692733,9.801323,0.00013929605,0.0016085953,6.1035156e-05,-0.00018310547,0.00012207031,-0.00021362305
0.0109530855,-0.0123453,0.99383837,0.23928833,-0.22013855,9.808182,3.9657593,-16.035461,-39.3219,0.24004094,-0.2170945,9.801308,0.0013645589,0.00081692636,0.00020885468,0.0,0.00018310547,-0.00015258789
0.010922118,-0.012322362,0.9938461,0.23928833,-0.22013855,9.8033905,2.7679443,-15.974426,-38.42926,0.2393741,-0.21672961,9.801332,-0.0010903031,0.00046016276,0.0007762909,-6.1035156e-05,-0.00016784668,-0.0002746582
0.010932764,-0.012352795,0.99384385,0.2368927,-0.21774292,9.805786,3.7109375,-16.4917,-38.650513,0.23965046,-0.21729594,9.801313,8.440018e-05,-0.00042293966,-0.0013866425,-0.00030517578,6.1035156e-05,9.1552734e-05
0.010918665,-0.012374229,0.99384785,0.23449707,-0.22013855,9.805786,2.7496338,-16.488647,-38.00659,0.2394134,-0.21775307,9.801309,-0.0003979057,3.6239624e-05,0.00019073486,-0.00030517578,6.1035156e-05,0.00010681152
0.010885344,-0.01235139,0.9938562,0.23928833,-0.22253418,9.800995,3.5217285,-15.646362,-36.80725,0.23869972,-0.21739636,9.801334,-0.00066769123,0.0020953864,0.0018911362,-0.00024414062,0.00012207031,3.0517578e-05
0.010880104,-0.012340044,0.9938574,0.23928833,-0.21534729,9.805786,2.1591187,-15.367126,-37.527466,0.23857132,-0.21718864,9.801342,-3.8832426e-05,0.000915274,-0.0009756088,-0.00012207031,6.1035156e-05,0.00022888184
0.010897835,-0.012356045,0.99385303,0.2368927,-0.22013855,9.793823,3.010559,-16.036987,-37.92572,0.23895909,-0.21745372,9.801327,0.0012440532,-3.1888485e-05,-0.00065135956,-6.1035156e-05,0.00012207031,3.0517578e-05
0.010842664,-0.012393004,0.993868,0.23210144,-0.21057129,9.810577,2.3727417,-15.782166,-38.52539,0.2379334,-0.21832497,9.801332,-0.0017990172,-0.001058653,0.0008506775,-0.00030517578,1.5258789e-05,-9.1552734e-05
0.01084228,-0.012361092,0.9938676,0.24406433,-0.22013855,9.810577,2.4841309,-15.34729,-37.30774,0.23785922,-0.21770205,9.801349,-0.00030450523,0.0019169301,0.0012044907,-0.00012207031,0.00012207031,-9.1552734e-05
0.010899053,-0.012372059,0.993853,0.24406433,-0.21774292,9.8033905,2.3864746,-15.640259,-37.59308,0.23901686,-0.21776354,9.801318,0.0032970756,8.614361e-05,0.0012750626,6.1035156e-05,0.00024414062,3.0517578e-05
0.010885785,-0.01236865,0.9938564,0.2368927,-0.21774292,9.805786,2.7633667,-16.12091,-38.308716,0.23874456,-0.21773267,9.801326,-1.8969178e-05,-0.00018647313,0.00021362305,-0.00018310547,-0.00016784668,-3.0517578e-05
0.010883246,-0.012347844,0.99385667,0.23928833,-0.21774292,9.796219,2.2109985,-15.867615,-38.235474,0.23865037,-0.21733268,9.801336,-0.0010966659,0.0015482455,-0.0014429092,0.00018310547,-0.00022888184,0.00015258789
0.010909454,-0.012306113,0.99384916,0.23928833,-0.21534729,9.810577,3.1097412,-15.513611,-38.57727,0.23908705,-0.21644606,9.801345,0.00064355135,0.0011113584,-0.002084732,-6.1035156e-05,0.00018310547,-0.0002746582
0.010882992,-0.012291944,0.99385583,0.23928833,-0.22013855,9.800995,1.7272949,-16.052246,-37.345886,0.23852862,-0.21624035,9.801363,-0.00045910478,0.0011340529,-0.0013904572,-0.00018310547,0.00018310547,-3.0517578e-05
0.010878462,-0.012331979,0.9938577,0.2368927,-0.22253418,9.805786,2.1942139,-16.384888,-37.43286,0.23852167,-0.21703538,9.801347,0.0004889518,-0.0011652708,0.0016260147,0.00012207031,0.00012207031,-3.0517578e-05
0.010908269,-0.0123155955,0.99384964,0.2416687,-0.21534729,9.805786,2.8656006,-15.834045,-36.972046,0.2390832,-0.21663469,9.801342,0.00089277327,0.0003528446,-0.00035190582,0.00018310547,-6.1035156e-05,9.1552734e-05
0.010923953,-0.012275182,0.99384487,0.2416687,-0.22253418,9.8033905,3.9123535,-15.913391,-36.50055,0.2393122,-0.21580218,9.801354,0.00041346252,-1.206994e-06,0.0010623932,6.1035156e-05,-4.5776367e-05,9.1552734e-05
0.0109562725,-0.012286735,0.9938366,0.2368927,-0.20578003,9.800995,2.9022217,-15.106201,-36.523438,0.23998222,-0.21594079,9.801334,0.0018700063,-0.0003132671,0.0019760132,-6.1035156e-05,0.00024414062,-3.0517578e-05
0.010934974,-0.012256577,0.99384165,0.2368927,-0.21774292,9.796219,2.5650024,-15.115356,-38.32245,0.23949358,-0.21540865,9.801359,-0.0005098283,0.0010617673,3.1471252e-05,0.0,-4.5776367e-05,-3.0517578e-05
0.010913089,-0.012263833,0.9938475,0.2416687,-0.22253418,9.800995,3.4866333,-16.072083,-38.47809,0.23907138,-0.21560957,9.801364,-0.0008009821,-0.00040383637,-0.00029468536,0.0,0.00012207031,-3.0517578e-05
0.010898112,-0.012294397,0.99385196,0.23449707,-0.21296692,9.8033905,3.5873413,-15.551758,-38.68103,0.23883595,-0.21624757,9.801356,0.0001770109,-0.001467064,-0.0021162033,0.00012207031,0.00024414062,-0.00021362305
0.010888268,-0.012273467,0.99385417,0.2368927,-0.21296692,9.800995,3.0929565,-14.21051,-37.405396,0.23859552,-0.2158649,9.801371,-4.3988228e-05,0.0005353838,-0.0009384155,-0.00018310547,0.00018310547,-3.0517578e-05
0.010872639,-0.01226627,0.9938581,0.23449707,-0.22253418,9.812973,2.3040771,-15.722656,-37.527466,0.23826814,-0.21576627,9.80138,0.0005122125,0.0006656945,9.536743e-06,6.1035156e-05,1.5258789e-05,-0.0001373291
0.010891744,-0.012309681,0.99385387,0.23928833,-0.21057129,9.805786,2.3208618,-15.356445,-37.52899,0.23874056,-0.2165636,9.801352,0.0009924471,-0.0016418844,0.0006465912,6.1035156e-05,0.00018310547,-0.0002746582
0.010893994,-0.012292006,0.993853,0.2368927,-0.21774292,9.800995,3.138733,-16.603088,-38.95111,0.23874864,-0.21621194,9.801359,0.00025631487,0.00090019405,0.0009088516,-0.00024414062,-4.5776367e-05,-0.0002746582
0.010913083,-0.012290698,0.99384797,0.24406433,-0.22013855,9.800995,2.7175903,-15.324402,-38.220215,0.23912743,-0.21613489,9.8013525,0.0008254051,0.00034692883,0.0010852814,-6.1035156e-05,-0.00010681152,0.00015258789
0.010946302,-0.012322683,0.9938398,0.2368927,-0.21534729,9.805786,2.6016235,-16.209412,-38.09204,0.2398581,-0.21667062,9.801322,0.0005777925,-0.0005607754,-0.00086307526,-0.00012207031,1.5258789e-05,-3.0517578e-05
0.010942936,-0.012302927,0.99384034,0.2368927,-0.20817566,9.791428,2.519226,-15.983582,-39.479065,0.23974954,-0.21629341,9.801332,0.00021876395,0.0012085587,-0.0004234314,-0.00018310547,0.00018310547,-0.00021362305
0.010895538,-0.012300265,0.9938527,0.24406433,-0.21534729,9.8033905,1.953125,-16.479492,-36.839294,0.23879674,-0.21636926,9.801354,-0.0014583021,0.00080254674,-0.000746727,-0.00018310547,0.00012207031,-0.00021362305
0.010905076,-0.012291417,0.99385005,0.23449707,-0.21296692,9.796219,2.9327393,-15.892029,-38.11798,0.23896888,-0.21617053,9.801354,0.0012423396,0.0008442104,-0.0003490448,-6.1035156e-05,6.1035156e-05,-9.1552734e-05
0.010868411,-0.012255282,0.99385905,0.2416687,-0.20817566,9.800995,2.9281616,-15.887451,-38.720703,0.23816071,-0.21556284,9.801388,-0.0015451312,0.0016644746,0.00088977814,-0.00024414062,6.1035156e-05,0.0002746582
0.010851174,-0.012285939,0.99386406,0.24406433,-0.21774292,9.800995,2.5268555,-15.991211,-38.34839,0.23788022,-0.21620868,9.80138,-5.8695674e-05,-0.0003145337,-4.4822693e-05,-0.00012207031,1.5258789e-05,0.0002746582
0.010861538,-0.01224909,0.9938607,0.23928833,-0.21774292,9.7986145,2.6870728,-16.056824,-37.991333,0.23801048,-0.21546029,9.801394,-0.0001668781,0.0020297617,-0.0017728806,-0.00024414062,6.1035156e-05,0.00015258789
0.01086799,-0.01226806,0.99385935,0.2368927,-0.21534729,9.810577,2.9388428,-15.6692505,-38.752747,0.23817895,-0.2158138,9.801381,0.0006016344,0.000240013,0.0007352829,-0.00012207031,-0.00016784668,0.00015258789
0.010872042,-0.0123093985,0.993859,0.23449707,-0.22013855,9.800995,1.1306763,-15.304565,-35.507202,0.23834622,-0.21661118,9.80136,-4.4941902e-05,-0.00087945163,0.00049877167,-0.00018310547,-0.00010681152,0.00022888184
0.010904891,-0.012320808,0.9938506,0.24406433,-0.21057129,9.789032,2.5741577,-14.968872,-38.142395,0.23902655,-0.2167457,9.80134,0.00023947656,-0.00025983155,-0.00029945374,-0.00012207031,-0.00010681152,-0.00015258789
0.010903205,-0.012297077,0.99385065,0.24645996,-0.21774292,9.800995,2.7069092,-15.466309,-38.6261,0.23894331,-0.21628626,9.8013525,-0.00014717877,0.0018885732,-0.0014648438,0.0,-0.00010681152,-9.1552734e-05
0.0109365005,-0.012334974,0.99384254,0.2368927,-0.21774292,9.7986145,3.3416748,-15.794373,-38.038635,0.23968789,-0.2169374,9.80132,0.0010440499,-0.0012869388,-0.0011358261,-0.00018310547,-4.5776367e-05,0.00010681152
0.010882195,-0.0123441545,0.9938569,0.23928833,-0.22253418,9.789032,2.394104,-15.422058,-37.623596,0.23862168,-0.21726339,9.801339,-0.0024677813,1.3187528e-05,0.0025978088,-0.00024414062,-0.00010681152,0.000289917
0.010902561,-0.012355197,0.9938518,0.2368927,-0.21057129,9.810577,2.7038574,-15.766907,-37.631226,0.23915473,-0.21624665,9.801349,-0.00038662553,0.0021184385,0.0012207031,-0.00012207031,-0.00022888184,0.00021362305
0.010893566,-0.012293688,0.9938531,0.24406433,-0.21534729,9.808182,2.5283813,-16.06903,-37.835693,0.23874359,-0.21624598,9.801358,-0.0016576797,0.0007006526,0.0016202927,-0.00018310547,1.5258789e-05,0.00015258789
0.010879952,-0.012267529,0.99385625,0.23928833,-0.21296692,9.8033905,2.7923584,-15.541077,-37.66327,0.23841691,-0.21577118,9.801376,-0.00039170682,0.001422137,0.00060367584,-0.00018310547,1.5258789e-05,9.1552734e-05
0.010863633,-0.012282529,0.9938607,0.25125122,-0.21296692,9.7986145,3.5964966,-15.408325,-38.57422,0.23812209,-0.21610844,9.801376,-0.0007954538,0.00030833483,-0.001502037,-0.00024414062,-4.5776367e-05,0.00035095215
0.010895007,-0.012302304,0.99385285,0.24645996,-0.21296692,9.800995,2.5100708,-16.282654,-38.635254,0.2387904,-0.21641055,9.801353,0.0014201254,-0.00010672212,-4.196167e-05,6.1035156e-05,-0.00010681152,-9.1552734e-05
0.010932898,-0.012264022,0.99384236,0.23449707,-0.21534729,9.8033905,3.0853271,-16.099548,-38.39264,0.23946764,-0.21555981,9.801355,0.0012045801,0.0019211322,0.0009317398,-0.00024414062,0.00012207031,0.00022888184
0.01092717,-0.012279377,0.9938441,0.2416687,-0.21774292,9.805786,3.3035278,-16.596985,-38.275146,0.23938525,-0.21587552,9.801351,0.00032384694,8.7067485e-05,0.00014400482,-0.00012207031,1.5258789e-05,-9.1552734e-05
0.010924902,-0.012306084,0.9938451,0.2416687,-0.21774292,9.810577,2.3452759,-16.514587,-38.220215,0.23939574,-0.21640383,9.801339,7.177889e-05,-0.0008211285,-0.00022792816,-0.00012207031,-0.00010681152,3.0517578e-05
0.010951456,-0.012351855,0.9938389,0.23928833,-0.21296692,9.805786,3.0792236,-16.3208,-37.98523,0.24002208,-0.21722707,9.801306,0.0008690357,-0.0009494424,0.00082302094,-0.00012207031,1.5258789e-05,3.0517578e-05
0.010907012,-0.012337393,0.9938503,0.24406433,-0.21774292,9.810577,3.0456543,-15.231323,-37.989807,0.23910357,-0.21706428,9.8013315,-0.0022653192,0.000560984,-0.00040245056,0.0,-0.00010681152,-3.0517578e-05
0.010921046,-0.012362011,0.9938471,0.23928833,-0.21534729,9.810577,1.8981934,-15.745544,-37.968445,0.2394355,-0.21750776,9.801314,0.00026455522,-0.00089661777,0.0005283356,6.1035156e-05,-0.00010681152,3.0517578e-05
0.010941413,-0.012322672,0.99384105,0.23928833,-0.21534729,9.8033905,2.3895264,-15.72113,-36.776733,0.23976037,-0.2166836,9.801324,0.00089482963,0.0018703043,0.00051498413,-0.00024414062,6.1035156e-05,9.1552734e-05
0.010932724,-0.012309943,0.99384314,0.2416687,-0.22013855,9.805786,3.2669067,-15.574646,-38.52234,0.23956013,-0.21645819,9.801334,-0.00033907592,0.0009275377,2.0980835e-05,6.1035156e-05,0.00018310547,-0.00021362305
0.01093112,-0.0123182,0.9938437,0.24645996,-0.21534729,9.810577,1.7242432,-15.9729,-38.235474,0.23954533,-0.21662395,9.801331,0.0006311089,-0.0001052618,-0.0007829666,-0.00024414062,-4.5776367e-05,-0.0002746582
0.010943567,-0.012292997,0.99384004,0.2368927,-0.22253418,9.800995,2.9129028,-16.177368,-39.308167,0.2397414,-0.21609755,9.801337,-0.0002772957,0.0019883066,-0.00034713745,-0.00012207031,-0.00010681152,0.00015258789
0.010938698,-0.012283091,0.9938411,0.2416687,-0.21296692,9.793823,2.3742676,-15.934753,-37.423706,0.2396234,-0.21591702,9.801344,-0.00063309073,0.00037412345,8.678436e-05,0.0,-0.00010681152,-1.5258789e-05
0.010904896,-0.012272495,0.9938498,0.2416687,-0.21057129,9.7986145,3.2684326,-15.730286,-37.493896,0.23892577,-0.21580106,9.801364,-0.0016002655,0.0004900992,-0.0010576248,-0.00018310547,-4.5776367e-05,-9.1552734e-05
0.010921749,-0.012270031,0.99384534,0.2368927,-0.21534729,9.805786,3.0044556,-16.03241,-38.67798,0.23925743,-0.2157074,9.801358,0.00070655346,0.00087057054,0.000102996826,-0.00012207031,6.1035156e-05,-0.0002746582
0.010891966,-0.012324087,0.99385405,0.23928833,-0.21296692,9.810577,2.7023315,-15.766907,-37.78076,0.23877506,-0.21684466,9.801344,-0.00073458254,-0.0015769154,6.198883e-05,-0.00024414062,1.5258789e-05,0.00022888184
0.010883748,-0.012267658,0.99385524,0.2416687,-0.21534729,9.810577,2.8396606,-16.267395,-37.8891,0.23849304,-0.2157635,9.801375,-0.0006945282,0.0033350587,0.0011701584,-0.00036621094,0.00012207031,9.1552734e-05
0.010898744,-0.012277909,0.9938515,0.23928833,-0.21296692,9.8033905,2.5268555,-15.916443,-38.55896,0.23881413,-0.21592349,9.801364,0.00088973343,0.00062818825,0.00015449524,-0.00018310547,-0.00010681152,0.00022888184
0.010917489,-0.012286774,0.9938467,0.23928833,-0.21296692,9.8033905,3.1463623,-16.609192,-38.046265,0.23920727,-0.21604627,9.801352,0.0009876043,0.0009635389,-0.0014867783,-0.00030517578,-4.5776367e-05,0.00016784668
0.010908498,-0.012318187,0.99384964,0.2416687,-0.21774292,9.7986145,2.3406982,-16.589355,-38.08441,0.23909318,-0.21668473,9.80134,-0.0010610372,-0.00078332424,0.0009317398,0.0,-4.5776367e-05,3.0517578e-05
0.010926696,-0.012293406,0.99384445,0.23449707,-0.20817566,9.800995,2.6794434,-16.125488,-38.609314,0.23940511,-0.2161511,9.801345,0.0010404736,0.0015507042,-0.0014543533,-0.00012207031,0.00012207031,-3.0517578e-05
0.010928781,-0.012291823,0.99384385,0.2368927,-0.22013855,9.793823,2.3483276,-16.444397,-37.904358,0.23944347,-0.21611452,9.801345,0.00029298663,0.00078968704,-0.00065135956,-0.00030517578,-0.00010681152,-0.00015258789
0.010932931,-0.012327916,0.9938434,0.24885559,-0.22013855,9.7986145,2.307129,-15.649414,-37.513733,0.2396018,-0.21680902,9.801325,-0.00010460615,-0.00091579556,-0.00041675568,0.0,0.00012207031,-3.0517578e-05
0.010955758,-0.012321738,0.9938373,0.23449707,-0.21057129,9.8033905,3.0761719,-16.244507,-38.648987,0.24004512,-0.21662658,9.801318,0.0013661236,0.0005726814,0.0006761551,-0.00012207031,-0.00010681152,0.00015258789
0.010890967,-0.012307452,0.993854,0.2416687,-0.22492981,9.7986145,2.722168,-15.3289795,-37.69226,0.23872039,-0.2165221,9.8013525,-0.0028121024,0.00095164776,-0.00034618378,-0.00018310547,6.1035156e-05,0.00015258789
0.01095136,-0.012335844,0.99383867,0.23928833,-0.22013855,9.800995,3.8101196,-16.052246,-38.412476,0.2399867,-0.2169143,9.801313,0.0021392852,0.00014545023,0.000582695,-0.00024414062,1.5258789e-05,-3.0517578e-05
0.0109554855,-0.012338125,0.99383765,0.24645996,-0.22013855,9.815353,2.420044,-16.35437,-39.549255,0.2400739,-0.21694772,9.80131,0.00038446486,0.00018431246,-0.00089359283,0.00012207031,-0.00010681152,0.00022888184
0.0109862,-0.0123102255,0.99382913,0.23210144,-0.21057129,9.805786,1.423645,-15.557861,-37.911987,0.24062942,-0.2163192,9.801311,0.00076822937,0.0010098219,0.0017967224,-0.00012207031,-0.00010681152,-3.0517578e-05
0.010983932,-0.012320556,0.9938299,0.24645996,-0.21774292,9.7986145,2.998352,-16.253662,-38.272095,0.24060568,-0.21652731,9.801306,-0.00065894425,2.746284e-05,0.0013694763,-0.00012207031,-0.00010681152,3.0517578e-05
0.010972864,-0.012355109,0.99383336,0.2368927,-0.22253418,9.793823,2.6474,-15.185547,-37.886047,0.24045676,-0.21723287,9.801295,-0.00025962293,-0.0007067472,-0.0005168915,-0.00012207031,0.00012207031,0.00022888184
0.010949787,-0.012313942,0.9938387,0.2416687,-0.22013855,9.812973,2.079773,-15.447998,-36.935425,0.23990947,-0.21649028,9.801324,0.00075508654,0.0016684383,-0.00053596497,-0.00018310547,-0.00010681152,3.0517578e-05
0.010966078,-0.012367375,0.99383533,0.2416687,-0.21534729,9.7986145,3.1524658,-16.31012,-38.8916,0.24034676,-0.21749103,9.801291,8.1300735e-05,-0.0018846989,-0.0006761551,0.00021362305,-7.6293945e-05,0.00016784668
0.010980677,-0.012350737,0.9938313,0.2368927,-0.22013855,9.796219,3.4332275,-15.570068,-37.92267,0.24060377,-0.21712627,9.801294,5.2303076e-05,-8.355081e-05,0.0013074875,3.0517578e-05,-3.0517578e-05,0.000289917
0.010944528,-0.012345614,0.99384063,0.24645996,-0.21534729,9.791428,2.0767212,-15.21759,-38.6261,0.23987053,-0.21712375,9.801311,-0.00088745356,-0.0003349781,-0.00041770935,3.0517578e-05,0.00015258789,-0.00015258789
0.010923687,-0.012313537,0.9938456,0.23928833,-0.20817566,9.8033905,1.9805908,-15.664673,-38.11035,0.23938704,-0.21655285,9.801336,-0.00040194392,0.0010148883,-0.00012111664,9.1552734e-05,-7.6293945e-05,-9.1552734e-05
0.010967269,-0.012300237,0.99383396,0.2416687,-0.21774292,9.805786,2.682495,-16.127014,-38.154602,0.24023023,-0.21617511,9.801325,0.00090895593,0.00063452125,-0.00023841858,9.1552734e-05,4.5776367e-05,-0.0002746582
0.010964196,-0.012279499,0.9938344,0.23449707,-0.21774292,9.796219,3.3340454,-15.939331,-38.294983,0.24012542,-0.2157779,9.801334,0.0003182441,0.000461936,-0.0017633438,-3.0517578e-05,9.1552734e-05,-3.0517578e-05
0.010961041,-0.012301251,0.99383557,0.24406433,-0.21774292,9.805786,3.3615112,-15.203857,-38.900757,0.24010786,-0.21621175,9.801326,0.0005686134,-0.00054354966,0.00089740753,3.0517578e-05,0.00015258789,-3.0517578e-05
0.010963576,-0.012267934,0.9938344,0.2368927,-0.22013855,9.7986145,2.9556274,-15.457153,-37.652588,0.24008887,-0.21555346,9.801341,0.00033819675,0.0004812628,0.00043678284,9.1552734e-05,-0.0001373291,0.00016784668
0.010972201,-0.012242938,0.9938317,0.24645996,-0.22013855,9.808182,3.6865234,-15.260315,-38.246155,0.24020892,-0.2150414,9.801349,-0.00074243546,0.00092969835,-2.7656555e-05,9.1552734e-05,4.5776367e-05,0.0004119873
0.01097032,-0.0122699095,0.99383265,0.2368927,-0.21534729,9.808182,2.5222778,-16.062927,-38.589478,0.24022776,-0.21557386,9.801337,0.00043611228,-0.0013991445,0.0006170273,9.1552734e-05,-1.5258789e-05,9.1552734e-05
0.010950681,-0.012314285,0.9938385,0.2416687,-0.22253418,9.7986145,3.1219482,-15.524292,-36.99341,0.23992807,-0.21649458,9.801324,-0.00045342743,-0.0019270927,-0.0013513565,-3.0517578e-05,4.5776367e-05,-3.0517578e-05
0.0109571945,-0.0123052485,0.99383664,0.24406433,-0.22253418,9.800995,2.4719238,-15.567017,-37.27722,0.24003935,-0.21630031,9.801326,0.00015361607,2.9042363e-05,-9.918213e-05,0.00021362305,9.1552734e-05,-9.1552734e-05
0.010998121,-0.0123087745,0.993826,0.24406433,-0.21296692,9.820145,2.4734497,-15.414429,-38.002014,0.24086463,-0.2162586,9.801307,0.0022200793,-0.0004928708,-0.0007162094,9.1552734e-05,4.5776367e-05,9.1552734e-05
0.010993979,-0.012281716,0.9938266,0.23449707,-0.22013855,9.812973,2.531433,-16.14685,-37.095642,0.24072523,-0.21574073,9.801321,-5.3480268e-05,0.00066791475,0.0014314651,9.1552734e-05,0.00015258789,-9.1552734e-05
0.010952094,-0.012306234,0.993838,0.2416687,-0.21774292,9.810577,2.7664185,-16.201782,-37.41913,0.23993948,-0.21633336,9.801328,-0.0007213801,-0.0011173636,0.0015897751,-9.1552734e-05,0.00015258789,-9.1552734e-05
0.010933668,-0.012263285,0.9938421,0.23928833,-0.20578003,9.805786,2.6809692,-16.05072,-38.89618,0.2394815,-0.21554333,9.801355,-0.00075015426,0.0016921908,-6.0081482e-05,-9.1552734e-05,9.1552734e-05,-0.00015258789
0.0109048225,-0.012252478,0.9938495,0.25125122,-0.21534729,9.7986145,2.2476196,-15.1397705,-37.71057,0.23888248,-0.21540986,9.8013735,-0.0006250888,0.00059838593,0.00012111664,3.0517578e-05,0.00015258789,-0.00015258789
0.010970142,-0.0122612305,0.9938325,0.23210144,-0.21296692,9.805786,3.5842896,-15.701294,-38.55896,0.24020605,-0.21540464,9.801341,0.002825141,0.00012177229,8.010864e-05,-9.1552734e-05,-0.0001373291,0.000289917
0.010975586,-0.012296138,0.9938317,0.24885559,-0.21534729,9.805786,2.9403687,-15.8203125,-38.027954,0.24038786,-0.21607247,9.801322,0.00028336048,-0.0013953447,-0.001707077,3.0517578e-05,-7.6293945e-05,-0.00015258789
0.011000476,-0.012304936,0.9938253,0.24645996,-0.21057129,9.805786,2.5299072,-15.916443,-38.48419,0.24090365,-0.21617715,9.801307,0.00071932375,-9.0405345e-05,-0.0004940033,-9.1552734e-05,0.0002746582,-3.0517578e-05
0.010956277,-0.012298645,0.99383676,0.23928833,-0.21296692,9.805786,3.817749,-15.830994,-38.594055,0.24000722,-0.21617368,9.80133,-0.0009982437,0.00036981702,-0.00081157684,-9.1552734e-05,9.1552734e-05,-9.1552734e-05
0.010951861,-0.012318348,0.99383825,0.23928833,-0.22013855,9.8033905,2.609253,-15.988159,-38.275146,0.23996012,-0.21657082,9.801321,0.00072965026,-0.00066937506,-0.00022125244,0.00021362305,9.1552734e-05,3.0517578e-05
0.010961142,-0.012270835,0.99383503,0.2416687,-0.21534729,9.808182,1.8035889,-15.968323,-38.238525,0.24004629,-0.21561675,9.80134,0.00037796795,0.0010353476,0.0017576218,9.1552734e-05,-7.6293945e-05,-9.1552734e-05
0.010958836,-0.012319942,0.99383646,0.24645996,-0.21296692,9.805786,2.3880005,-15.5685425,-37.652588,0.24010287,-0.21658315,9.801317,-0.0004027635,-0.0020658374,0.0005340576,-3.0517578e-05,-7.6293945e-05,3.0517578e-05
0.010967865,-0.012293414,0.99383366,0.24645996,-0.21296692,9.805786,2.015686,-14.863586,-37.94861,0.24022782,-0.21604006,9.801326,-4.902482e-05,0.0014599115,-0.00043201447,-3.0517578e-05,-7.6293945e-05,-3.0517578e-05
0.010981737,-0.012312743,0.9938304,0.2416687,-0.21296692,9.793823,1.8096924,-15.745544,-38.72223,0.2405455,-0.21638049,9.8013115,0.00058601797,-0.0005875379,0.00066947937,-9.1552734e-05,4.5776367e-05,-3.0517578e-05
0.010989365,-0.012310209,0.9938283,0.2368927,-0.20817566,9.808182,2.4856567,-15.045166,-38.68103,0.24069265,-0.21631032,9.80131,0.00045083463,4.862249e-05,-0.0009908676,-0.00021362305,-1.5258789e-05,0.00022888184
0.010988605,-0.012356148,0.99382925,0.2368927,-0.21057129,9.7986145,2.609253,-15.988159,-38.275146,0.24077351,-0.21721059,9.801287,-0.0003491789,-0.0012006164,0.00014209747,0.00015258789,4.5776367e-05,0.00016784668
0.01093791,-0.012298058,0.9938416,0.2416687,-0.21534729,9.808182,2.6947021,-15.835571,-38.17444,0.23963892,-0.21621178,9.801337,-0.0016256273,0.0016444474,0.0013589859,3.0517578e-05,-7.6293945e-05,9.1552734e-05
0.01096478,-0.012329792,0.9938351,0.23928833,-0.22253418,9.805786,2.3086548,-15.498352,-38.087463,0.24024226,-0.21675968,9.801311,0.0006532669,-0.0014209747,-0.0011672974,3.0517578e-05,4.5776367e-05,3.0517578e-05
0.010944527,-0.012317385,0.99384016,0.24406433,-0.21534729,9.7986145,2.545166,-15.628052,-37.898254,0.23981157,-0.21657182,9.801326,-0.00032688677,0.00076563656,-0.0018892288,9.1552734e-05,9.1552734e-05,-3.0517578e-05
0.0109055005,-0.012275828,0.9938497,0.2368927,-0.21534729,9.805786,2.3788452,-15.788269,-37.771606,0.23894481,-0.2158646,9.801362,-0.0015877932,-0.00019200146,-0.00095272064,-9.1552734e-05,4.5776367e-05,0.000289917
0.010922219,-0.0122784395,0.99384534,0.23928833,-0.22013855,9.8033905,2.406311,-15.129089,-37.864685,0.23928434,-0.21587053,9.8013525,0.0009159446,0.0007828772,0.0020751953,9.1552734e-05,4.5776367e-05,-0.0002746582
0.010916016,-0.012274377,0.9938469,0.23928833,-0.21057129,9.808182,1.8539429,-15.023804,-37.217712,0.23915192,-0.21580786,9.801358,-0.0001334697,-0.00095051527,-0.0007009506,3.0517578e-05,9.1552734e-05,-0.00015258789
0.0108999815,-0.01226152,0.9938509,0.23449707,-0.21057129,9.796219,1.9943237,-15.374756,-38.050842,0.23880465,-0.21559973,9.801372,-0.0005109459,0.00051140785,0.00065135956,-9.1552734e-05,4.5776367e-05,-3.0517578e-05
0.010881988,-0.01229707,0.9938562,0.23928833,-0.22013855,9.793823,2.4627686,-15.710449,-37.683105,0.23851927,-0.21634328,9.801361,-0.0002233535,-0.0008984059,-0.00019550323,3.0517578e-05,9.1552734e-05,-9.1552734e-05
0.010908776,-0.0122934785,0.99384916,0.24406433,-0.21774292,9.796219,3.237915,-16.384888,-37.77771,0.23904714,-0.21620087,9.8013525,0.0016437471,0.0003940314,1.8119812e-05,3.0517578e-05,9.1552734e-05,3.0517578e-05
0.0109423315,-0.012276598,0.9938401,0.2416687,-0.21774292,9.810577,2.6550293,-16.712952,-38.35144,0.23968245,-0.21578026,9.801346,0.0014690906,0.00022855401,0.0009727478,-3.0517578e-05,9.1552734e-05,4.5776367e-05
0.010980191,-0.012311791,0.99383074,0.24406433,-0.21296692,9.800995,2.7145386,-15.32135,-38.597107,0.24051262,-0.21636608,9.801313,0.002054602,-0.00084733963,0.0014419556,-9.1552734e-05,9.1552734e-05,-9.1552734e-05
0.010982982,-0.012287404,0.9938296,0.2368927,-0.22253418,9.8033905,3.1829834,-15.882874,-37.3703,0.24051738,-0.21588169,9.801323,0.0003656149,0.0008248091,0.00047969818,0.00015258789,4.5776367e-05,0.00016784668
0.010933116,-0.012273269,0.9938424,0.23928833,-0.21534729,9.810577,3.413391,-15.855408,-38.734436,0.23949131,-0.21574003,9.801351,-0.0016971827,0.00020253658,-0.00063991547,-9.1552734e-05,9.1552734e-05,-0.00015258789
0.01093838,-0.012272824,0.99384105,0.23928833,-0.21774292,9.812973,3.4210205,-15.786743,-38.116455,0.23959558,-0.2157171,9.801349,0.0003591478,0.00017139316,-0.00075244904,0.00015258789,-0.0001373291,-9.1552734e-05
0.010958832,-0.012262454,0.9938355,0.2368927,-0.22013855,9.8033905,3.1280518,-15.075684,-38.563538,0.23998259,-0.21545912,9.801345,0.0004490763,-9.025633e-05,-0.00034046173,0.00021362305,4.5776367e-05,-9.1552734e-05
0.010959981,-0.012229647,0.9938347,0.23928833,-0.21534729,9.796219,3.0563354,-15.090942,-37.205505,0.23993693,-0.21481453,9.80136,0.0002516061,0.0006984621,-7.1525574e-05,-3.0517578e-05,4.5776367e-05,-0.00021362305
0.010971103,-0.012217314,0.9938316,0.23928833,-0.21774292,9.808182,2.7648926,-15.9713745,-38.80768,0.24013339,-0.21454336,9.801362,6.3583255e-05,0.0004196614,-0.0006875992,3.0517578e-05,4.5776367e-05,-0.00021362305
0.010945769,-0.012261423,0.9938389,0.23449707,-0.20578003,9.8033905,1.5716553,-15.762329,-38.412476,0.2397194,-0.21547426,9.801352,-0.00024402142,-0.0020021796,0.00032901764,0.0002746582,0.00015258789,-0.00015258789
0.010952341,-0.0122163175,0.99383646,0.23928833,-0.20578003,9.812973,2.4353027,-14.622498,-37.010193,0.23975644,-0.21457458,9.801371,0.0006698966,0.0007083118,0.00084781647,3.0517578e-05,9.1552734e-05,-0.00021362305
0.010979646,-0.012267409,0.99383014,0.2416687,-0.21774292,9.796219,2.5619507,-15.339661,-37.687683,0.2404089,-0.21549976,9.801334,0.0014574677,-0.0019726157,-0.0005559921,9.1552734e-05,-1.5258789e-05,-3.0517578e-05
0.010937398,-0.012260182,0.9938411,0.25125122,-0.21296692,9.777069,2.5894165,-16.349792,-38.723755,0.23954953,-0.21547258,9.801355,-0.0015237182,-0.0005558133,0.0009050369,0.00015258789,0.00015258789,9.1552734e-05
0.01092057,-0.012269305,0.99384564,0.2416687,-0.21774292,9.789032,3.3477783,-15.647888,-38.08441,0.23923235,-0.21569641,9.801359,-0.00025258958,-0.0007982403,0.0005979538,-9.1552734e-05,0.0002746582,9.1552734e-05
0.01093149,-0.0123077845,0.99384344,0.24885559,-0.21057129,9.7986145,3.1036377,-15.812683,-37.58087,0.23953095,-0.2164193,9.801335,0.0016199946,-0.0010543317,-0.0016822815,3.0517578e-05,-1.5258789e-05,-0.00015258789
0.01095849,-0.012286849,0.993836,0.23928833,-0.21774292,9.793823,2.8076172,-15.17334,-37.890625,0.24002677,-0.21593703,9.801333,0.0008916408,0.0008484274,-0.00095939636,-3.0517578e-05,-0.0001373291,9.1552734e-05
0.010964157,-0.0123121925,0.993835,0.25125122,-0.22253418,9.8033905,3.0975342,-15.731812,-38.69629,0.24019301,-0.21641725,9.801319,3.1098723e-05,-0.0005854964,-0.0006341934,-0.00015258789,0.00015258789,-3.0517578e-05
0.011001066,-0.0123130195,0.9938253,0.24406433,-0.21534729,9.7986145,3.4866333,-15.844727,-39.717102,0.24093236,-0.21633363,9.801303,0.0016690791,0.0005236864,0.00020885468,-3.0517578e-05,9.1552734e-05,3.0517578e-05
0.010981584,-0.012299969,0.9938302,0.23928833,-0.21296692,9.8033905,3.9596558,-16.183472,-39.20288,0.24051571,-0.21613114,9.801317,-0.00052043796,0.0010219067,-0.0014562607,-0.00021362305,-1.5258789e-05,-9.1552734e-05
0.010998614,-0.012326771,0.99382615,0.24406433,-0.21296692,9.800995,2.5604248,-15.109253,-39.076233,0.24091212,-0.21660915,9.801297,0.0007362515,-0.00064246356,0.00079250336,9.1552734e-05,-1.5258789e-05,-0.00021362305
0.011016761,-0.012265817,0.9938204,0.2368927,-0.21296692,9.8033905,3.2714844,-15.428162,-38.641357,0.24114722,-0.21536823,9.801319,0.0009934306,0.00050856173,-0.000500679,-3.0517578e-05,-1.5258789e-05,0.00016784668
0.010948756,-0.012236584,0.9938377,0.24406433,-0.21296692,9.805786,2.1316528,-16.026306,-37.283325,0.23972718,-0.21498054,9.801363,-0.0026248097,0.0010984689,0.0015802383,-9.1552734e-05,9.1552734e-05,-3.0517578e-05
0.010937238,-0.01228403,0.9938415,0.24645996,-0.21534729,9.810577,2.381897,-15.562439,-38.557434,0.2395962,-0.21593933,9.801345,-0.00010329485,-0.0013086647,-0.00085544586,-3.0517578e-05,4.5776367e-05,-9.1552734e-05
0.010933107,-0.012274643,0.9938425,0.24645996,-0.21057129,9.8033905,3.1204224,-15.447998,-37.35504,0.23949401,-0.21576694,9.801351,-1.1578202e-05,0.00020682812,0.0008611679,3.0517578e-05,-1.5258789e-05,3.0517578e-05
0.010985065,-0.012275588,0.9938289,0.23449707,-0.22013855,9.791428,3.0334473,-15.524292,-37.89673,0.24053429,-0.21564502,9.801328,0.0020452887,-0.00014533103,0.0012130737,-3.0517578e-05,-1.5258789e-05,-0.00015258789
0.010946178,-0.012308538,0.9938396,0.2416687,-0.21534729,9.810577,3.1143188,-15.592957,-37.612915,0.23982605,-0.21639438,9.801329,-0.0015238672,-0.001097247,-0.0020666122,0.00015258789,9.1552734e-05,0.00022888184
0.010951482,-0.012297036,0.993838,0.23449707,-0.21774292,9.800995,2.456665,-15.856934,-37.564087,0.23990802,-0.21615517,9.801332,0.000779137,0.00010742247,0.00085258484,-3.0517578e-05,0.00015258789,-0.0002746582
0.0108878715,-0.012260884,0.99385405,0.23928833,-0.21534729,9.7986145,1.5579224,-16.055298,-38.39569,0.2385613,-0.21561992,9.801376,-0.0021651834,0.00050902367,-0.0021572113,0.00015258789,0.00021362305,3.0517578e-05
0.0109109385,-0.012253883,0.9938479,0.23449707,-0.21296692,9.8033905,1.3214111,-14.254761,-37.568665,0.23900762,-0.21542083,9.80137,0.0014700145,0.00030322373,-0.00063991547,-3.0517578e-05,4.5776367e-05,-1.5258789e-05
0.010910205,-0.012254658,0.99384815,0.24406433,-0.21534729,9.800995,2.3880005,-15.567017,-37.80365,0.2389946,-0.215438,9.801371,0.0005287975,-0.00015901029,-0.0005950928,3.0517578e-05,4.5776367e-05,3.0517578e-05
0.010937748,-0.012271015,0.9938412,0.2368927,-0.21057129,9.7986145,2.5375366,-15.771484,-38.4552,0.23957917,-0.21568348,9.801351,0.00089627504,-0.000622347,0.0007238388,3.0517578e-05,-7.6293945e-05,-3.0517578e-05
0.010924515,-0.0123093715,0.9938453,0.24406433,-0.21534729,9.800995,2.3010254,-15.641785,-38.267517,0.23939489,-0.21646917,9.801338,-0.0003774613,-0.0014936775,0.001917839,-9.1552734e-05,4.5776367e-05,9.1552734e-05
0.010951063,-0.012303238,0.99383825,0.2368927,-0.21057129,9.793823,2.682495,-16.12854,-38.23242,0.2399126,-0.21627754,9.801329,0.0012423396,0.0004786998,0.0011148453,-3.0517578e-05,4.5776367e-05,-9.1552734e-05
0.010937089,-0.012239118,0.9938408,0.2416687,-0.21057129,9.800995,2.2994995,-15.794373,-37.768555,0.23949933,-0.21506158,9.801366,-0.0009419024,0.0025952905,-0.0021238327,0.00015258789,-0.0001373291,0.00021362305
0.0109669175,-0.012225598,0.99383277,0.24406433,-0.22253418,9.8033905,2.6428223,-15.411377,-37.101746,0.24006708,-0.21471664,9.801359,0.00086440146,0.00010445714,0.00049495697,-9.1552734e-05,0.00021362305,-0.00015258789
0.010945895,-0.012266783,0.99383897,0.2416687,-0.20817566,9.8033905,2.7786255,-15.83252,-37.72278,0.23973313,-0.2155787,9.801349,0.0002245903,-0.0011752099,0.002240181,-0.00021362305,-0.0001373291,0.00016784668
0.010948555,-0.012280536,0.9938385,0.2416687,-0.21057129,9.805786,2.0645142,-15.586853,-38.171387,0.23981503,-0.21584043,9.801341,-0.00058093667,0.0002978146,0.0005493164,-9.1552734e-05,-1.5258789e-05,9.1552734e-05
0.0109514715,-0.01228662,0.99383783,0.23928833,-0.21534729,9.808182,2.583313,-14.901733,-37.29706,0.23988605,-0.21595153,9.801337,7.4252486e-05,0.000156641,-0.0007390976,-3.0517578e-05,4.5776367e-05,-3.0517578e-05
0.010943939,-0.012259623,0.9938394,0.2416687,-0.20817566,9.796219,1.9134521,-15.30304,-38.409424,0.23967905,-0.21544398,9.8013525,-0.00022004545,0.0008661598,0.0010919571,-3.0517578e-05,0.00016784668,3.0517578e-05
0.010949545,-0.012231901,0.9938375,0.23928833,-0.21057129,9.800995,3.85437,-15.104675,-38.072205,0.23973316,-0.21488684,9.801365,0.0009381473,0.001737088,-0.0005464554,-0.00015258789,9.1552734e-05,3.0517578e-05
0.010941215,-0.0122441435,0.99383986,0.23928833,-0.22013855,9.810577,2.645874,-15.032959,-38.911438,0.2395923,-0.2151487,9.801362,-0.00012199581,-0.00017173588,-0.0003633499,-3.0517578e-05,4.5776367e-05,-9.1552734e-05
0.010918184,-0.012275008,0.99384636,0.23449707,-0.21534729,9.817749,2.7145386,-15.32135,-38.74817,0.23919657,-0.21581434,9.801357,-0.000655815,-0.0014281273,-0.0013637543,9.1552734e-05,0.00015258789,-3.0517578e-05
0.010922939,-0.012293601,0.9938454,0.2416687,-0.21534729,9.796219,2.3330688,-15.141296,-37.109375,0.23933041,-0.21616507,9.801346,0.0011068135,-0.0010675341,0.0008420944,9.1552734e-05,0.00015258789,-9.1552734e-05
0.010931576,-0.012294455,0.9938432,0.2368927,-0.21534729,9.800995,2.331543,-15.216064,-36.82251,0.23950481,-0.21615845,9.801342,0.0011772811,0.00013062358,-8.4877014e-05,-3.0517578e-05,0.00015258789,0.00022888184
0.010914554,-0.012288946,0.99384755,0.2368927,-0.22013855,9.812973,2.3239136,-15.206909,-37.802124,0.2391531,-0.21609662,9.801351,-0.00013501942,4.0486455e-05,-0.0011816025,-0.00021362305,0.00021362305,0.00016784668
0.010950239,-0.012311213,0.99383855,0.2368927,-0.21057129,9.793823,1.8493652,-15.174866,-36.869812,0.23991282,-0.2164357,9.801326,0.0017230958,-8.7469816e-05,0.0004968643,3.0517578e-05,-1.5258789e-05,-3.0517578e-05
0.010915748,-0.012298484,0.99384737,0.2416687,-0.21296692,9.8033905,2.9937744,-14.732361,-36.97815,0.23919693,-0.21627994,9.801347,-0.0011269599,0.00045606494,-0.0015830994,-0.00015258789,9.1552734e-05,-3.0517578e-05
0.010932037,-0.0122502735,0.99384236,0.23928833,-0.21296692,9.805786,2.597046,-14.456177,-38.189697,0.23942171,-0.21529333,9.801363,0.0008032769,0.002105981,-0.0002641678,3.0517578e-05,0.00015258789,-9.1552734e-05
0.01093306,-0.01223777,0.9938419,0.2416687,-0.20817566,9.805786,2.8839111,-15.318298,-37.69684,0.23941603,-0.2150461,9.801369,0.00011360645,0.0008778125,-0.0017719269,9.1552734e-05,-7.6293945e-05,0.00016784668
0.01090488,-0.012225097,0.99384904,0.23928833,-0.22253418,9.793823,3.4057617,-14.63623,-36.369324,0.23882645,-0.21487436,9.801387,-0.0012107044,-5.2005053e-06,0.00056648254,-3.0517578e-05,-1.5258789e-05,-3.0517578e-05
0.010898836,-0.012306986,0.99385196,0.2416687,-0.22013855,9.810577,2.6504517,-14.883423,-39.25934,0.23887667,-0.21649179,9.80135,0.0004172325,-0.001744464,0.0017967224,-9.1552734e-05,9.1552734e-05,9.1552734e-05
0.010911555,-0.012307503,0.9938486,0.24406433,-0.20817566,9.793823,2.0828247,-15.071106,-38.59558,0.23913196,-0.21646759,9.801344,0.00087209046,-8.383393e-05,0.0005531311,-0.00015258789,-1.5258789e-05,-9.1552734e-05
0.0109177325,-0.012242281,0.99384594,0.2416687,-0.21534729,9.805786,3.1143188,-15.44342,-38.11035,0.23911916,-0.21517566,9.801373,-8.0138445e-05,0.0029305518,0.00037193298,0.00015258789,9.1552734e-05,0.00035095215
0.010893371,-0.01221661,0.9938519,0.24885559,-0.22253418,9.8033905,2.947998,-14.007568,-36.753845,0.23857874,-0.21473943,9.801395,-0.00048816204,0.00057540834,-0.0010309219,-3.0517578e-05,4.5776367e-05,3.0517578e-05
0.010903067,-0.012270202,0.99385023,0.24406433,-0.21534729,9.793823,3.050232,-15.234375,-37.538147,0.2388844,-0.21576114,9.801365,0.00014035404,-0.0017353445,0.0021886826,3.0517578e-05,-7.6293945e-05,-3.0517578e-05
0.010925521,-0.012248173,0.99384403,0.23928833,-0.21774292,9.796219,1.1077881,-15.281677,-38.674927,0.23928712,-0.21526986,9.801367,0.0007122457,0.0006452352,-0.0010957718,0.00015258789,0.00015258789,3.0517578e-05
0.01095623,-0.012235239,0.99383575,0.24406433,-0.21296692,9.800995,1.5426636,-14.978027,-36.439514,0.23987368,-0.21493402,9.801359,0.0020240545,0.0005463362,0.00069618225,3.0517578e-05,9.1552734e-05,0.00016784668
0.010954977,-0.012259873,0.99383646,0.23449707,-0.21534729,9.796219,3.7979126,-14.671326,-37.680054,0.23990017,-0.21541907,9.801349,0.00029550493,-0.0013430566,0.0018949509,-3.0517578e-05,9.1552734e-05,3.0517578e-05
0.010934467,-0.01229828,0.9938425,0.2368927,-0.21296692,9.810577,2.027893,-16.389465,-38.33313,0.2395706,-0.21622545,9.801339,-0.00031720102,-0.0012570769,-0.0003232956,-9.1552734e-05,-1.5258789e-05,0.00016784668
0.010905422,-0.012256185,0.9938494,0.2368927,-0.21534729,9.808182,2.8244019,-16.252136,-39.92462,0.23890223,-0.21548072,9.801372,-0.0015853494,0.0013676733,0.0012197495,0.00015258789,-0.0001373291,3.0517578e-05
0.010948382,-0.012281313,0.99383855,0.23928833,-0.21296692,9.800995,3.2104492,-15.1474,-37.976074,0.23981321,-0.21585609,9.801341,0.0020358562,-0.0013564229,0.0011224747,9.1552734e-05,4.5776367e-05,0.00016784668
0.010995566,-0.012248569,0.9938257,0.24406433,-0.21774292,9.791428,3.1921387,-15.661621,-37.475586,0.24068758,-0.21508834,9.801336,0.0016657561,0.0016910881,-0.0013256073,-0.00015258789,-1.5258789e-05,0.00016784668
0.0109844655,-0.012298885,0.9938294,0.2416687,-0.21774292,9.8033905,2.8915405,-15.097046,-37.80365,0.24057102,-0.21610215,9.801316,-0.0005851239,-0.0013942719,-0.0023107529,3.0517578e-05,-1.5258789e-05,-9.1552734e-05
0.011005895,-0.012283318,0.9938235,0.23449707,-0.22013855,9.808182,2.7160645,-15.473938,-37.571716,0.2409667,-0.21573979,9.801314,0.0009394586,0.0006273836,-0.0010652542,-0.00015258789,0.00021362305,-9.1552734e-05
0.010958363,-0.012259196,0.99383557,0.2416687,-0.21534729,9.817749,1.8371582,-15.162659,-38.45215,0.23996642,-0.21539667,9.801347,-0.0011792481,0.00077810884,0.0005559921,-3.0517578e-05,9.1552734e-05,0.00010681152
0.010952308,-0.012247188,0.993837,0.24406433,-0.21534729,9.796219,3.1280518,-15.2282715,-37.68921,0.2398203,-0.21517825,9.801355,-8.010864e-05,0.0007959902,0.0006971359,-0.00015258789,4.5776367e-05,3.0517578e-05
0.01096562,-0.012265842,0.9938338,0.2368927,-0.21296692,9.808182,2.206421,-14.193726,-37.96997,0.24012531,-0.21550702,9.80134,0.000800997,-0.00030592084,0.00030326843,-3.0517578e-05,0.00015258789,4.5776367e-05
0.010962816,-0.012279863,0.9938348,0.2416687,-0.22253418,9.805786,2.0614624,-15.583801,-38.54828,0.24009861,-0.21578874,9.801335,0.0008112788,-0.00023829937,0.0013170242,3.0517578e-05,4.5776367e-05,-0.00044250488
0.010964097,-0.01229752,0.99383473,0.2416687,-0.21774292,9.7986145,2.331543,-15.061951,-37.69684,0.24016117,-0.21613055,9.801327,-0.00020234287,-0.00062431395,0.00040340424,-3.0517578e-05,4.5776367e-05,-3.0517578e-05
0.010959921,-0.012326139,0.9938363,0.2416687,-0.21296692,9.810577,3.0654907,-14.793396,-37.89978,0.24013752,-0.2167014,9.801314,0.0003004223,-0.0010049045,-0.0005264282,-0.00021362305,-7.6293945e-05,0.00022888184
0.010985968,-0.012320233,0.99382937,0.2416687,-0.22013855,9.815353,3.1921387,-15.663147,-37.553406,0.2406457,-0.2165155,9.801306,0.0007479638,0.00096559525,0.0004491806,-9.1552734e-05,4.5776367e-05,-0.00015258789
0.01100438,-0.0123291,0.9938247,0.2416687,-0.22253418,9.800995,2.532959,-15.843201,-38.47046,0.24103223,-0.21663907,9.801293,0.0013210028,0.00011564791,-0.0011367798,-3.0517578e-05,0.00015258789,-0.00015258789
0.01097553,-0.012295632,0.9938317,0.2416687,-0.21057129,9.8033905,1.9943237,-15.374756,-38.050842,0.24038567,-0.21606271,9.801322,-0.0009185225,0.000989303,0.0014762878,0.00015258789,0.00015258789,-0.00021362305
0.010950879,-0.012292968,0.99383813,0.2368927,-0.21534729,9.791428,2.368164,-16.004944,-37.89215,0.23988746,-0.21607722,9.801333,-0.0006570965,-0.00089631975,0.0006494522,0.00015258789,9.1552734e-05,-0.0002746582
0.011001414,-0.012345613,0.99382573,0.23449707,-0.21296692,9.800995,2.3971558,-15.501404,-36.80725,0.24100749,-0.21696997,9.801287,0.0020487607,-0.000974983,0.00044631958,-9.1552734e-05,0.00021362305,-0.00021362305
0.010966985,-0.0123110255,0.9938342,0.24406433,-0.21774292,9.815353,3.3370972,-15.942383,-37.76703,0.24024709,-0.21638681,9.801319,-0.0007581264,0.00082084537,-0.0014619827,9.1552734e-05,9.1552734e-05,-0.00021362305
0.0109739015,-0.012331681,0.9938327,0.22970581,-0.21296692,9.800995,1.8692017,-14.736938,-36.63025,0.2404285,-0.21677198,9.801306,0.0007250905,-0.0009330064,0.001086235,9.1552734e-05,0.00021362305,-0.00033569336
0.01093737,-0.0123281395,0.99384224,0.24645996,-0.21057129,9.796219,2.7389526,-15.1901245,-36.231995,0.239691,-0.2168014,9.801323,-0.00043967366,5.327165e-05,-0.00039196014,-9.1552734e-05,4.5776367e-05,0.000289917
0.01094265,-0.012294283,0.9938403,0.24406433,-0.21534729,9.800995,3.2440186,-14.491272,-37.61902,0.23972577,-0.21612518,9.801337,-0.00023211539,0.0015162826,-0.0010614395,-3.0517578e-05,-1.5258789e-05,-0.00015258789
0.010948101,-0.012295774,0.9938389,0.23928833,-0.21774292,9.810577,3.2928467,-15.068054,-38.041687,0.23983781,-0.2161396,9.801333,0.00037764013,-0.00015194714,-0.00039482117,3.0517578e-05,9.1552734e-05,-9.1552734e-05
0.010966681,-0.012346802,0.99383485,0.2368927,-0.21296692,9.808182,3.024292,-15.666199,-38.453674,0.24031582,-0.21708716,9.801302,0.0015607774,-0.0020573586,0.0013284683,0.00015258789,0.00021362305,-3.0517578e-05
0.010942263,-0.012315391,0.99384075,0.2416687,-0.20817566,9.8033905,4.359436,-15.922546,-40.975952,0.23976216,-0.21653895,9.801328,-0.0007567555,0.0004942864,0.00024795532,3.0517578e-05,9.1552734e-05,-0.0002746582
0.01096365,-0.012303138,0.9938349,0.2416687,-0.22013855,9.796219,3.2592773,-15.264893,-41.25061,0.24016397,-0.2162416,9.801324,0.0009867847,0.00021760166,0.00047683716,3.0517578e-05,9.1552734e-05,9.1552734e-05
0.010937679,-0.012286961,0.99384147,0.24885559,-0.22253418,9.805786,3.95813,-15.800476,-41.38794,0.23961109,-0.21599542,9.801342,-0.0003399402,0.00089250505,-0.002240181,9.1552734e-05,0.0002746582,3.0517578e-05
0.010966762,-0.012273598,0.9938336,0.23928833,-0.21296692,9.8033905,3.616333,-16.334534,-41.18042,0.24016438,-0.21565561,9.801337,0.0021947771,0.00056117773,0.0007352829,-9.1552734e-05,-1.5258789e-05,-0.00015258789
0.010956166,-0.012280074,0.9938365,0.24406433,-0.22492981,9.7986145,4.043579,-15.724182,-40.99884,0.23996617,-0.21581085,9.801338,-0.00023546815,-0.00022602081,0.0003271103,9.1552734e-05,0.00015258789,-3.0517578e-05
0.01099214,-0.012291206,0.9938273,0.2416687,-0.21057129,9.796219,2.5543213,-15.332031,-38.74359,0.24070834,-0.21593125,9.801317,0.001649335,-0.00059619546,-0.0002641678,9.1552734e-05,-1.5258789e-05,-0.00015258789
0.0110047,-0.012256024,0.9938234,0.2416687,-0.21296692,9.796219,3.0014038,-16.18042,-38.331604,0.24088573,-0.2152094,9.80133,0.0002821535,0.0010771006,-1.5258789e-05,-9.1552734e-05,0.00015258789,-0.0002746582
0.010983875,-0.012257498,0.9938289,0.23928833,-0.22253418,9.8033905,1.3946533,-16.215515,-38.04474,0.24047264,-0.21529451,9.801336,-0.0002578944,0.00019367039,-0.0006532669,3.0517578e-05,4.5776367e-05,3.0517578e-05
0.010949248,-0.012283328,0.99383837,0.2416687,-0.21057129,9.805786,3.289795,-14.910889,-39.44397,0.23983474,-0.21589316,9.80134,-0.0010684133,-0.0011022389,0.0011606216,-0.00021362305,9.1552734e-05,9.1552734e-05
0.0109427,-0.01227455,0.9938399,0.2416687,-0.21774292,9.805786,1.3259888,-15.777588,-38.708496,0.23968554,-0.21573922,9.801347,0.00028677285,0.00089482963,-3.0517578e-05,-9.1552734e-05,0.00021362305,-3.0517578e-05
0.010949028,-0.012310506,0.9938389,0.23928833,-0.21296692,9.796219,2.786255,-15.534973,-38.56659,0.23988713,-0.21642517,9.801327,0.00078833103,-0.0012751818,0.0010967255,3.0517578e-05,-1.5258789e-05,-9.1552734e-05
0.010949716,-0.0123015,0.99383855,0.23449707,-0.21296692,9.7986145,2.5527954,-15.406799,-38.305664,0.23988207,-0.2162472,9.801331,0.00030985475,0.00022102892,-0.00039196014,0.0002746582,4.5776367e-05,-0.00021362305
0.010931817,-0.0122690825,0.9938427,0.2416687,-0.21774292,9.810577,2.9907227,-14.573669,-38.53302,0.2394566,-0.21566167,9.801353,-0.0009261817,0.00033581257,-0.0001039505,-9.1552734e-05,-0.0001373291,-0.00015258789
0.010974149,-0.012258772,0.99383146,0.23449707,-0.20578003,9.8033905,2.8427124,-16.04004,-38.749695,0.24028097,-0.21534573,9.80134,0.0011165887,0.0007381886,9.8228455e-05,0.0002746582,-7.6293945e-05,-0.00033569336
0.010999479,-0.012247277,0.9938246,0.23449707,-0.22013855,9.808182,2.1392822,-15.501404,-39.138794,0.24076308,-0.21505249,9.801335,0.0008662045,-0.00050371885,-0.0002670288,3.0517578e-05,0.00015258789,-0.00021362305
0.010966483,-0.012225198,0.9938329,0.23928833,-0.21296692,9.808182,3.692627,-14.962769,-38.864136,0.24005754,-0.21470997,9.801359,-0.0012804717,0.0008175522,-0.0012874603,-0.00015258789,0.00015258789,-9.1552734e-05
0.010938487,-0.012233719,0.9938404,0.2368927,-0.22013855,9.7986145,3.3355713,-15.864563,-38.42926,0.239516,-0.21495225,9.801369,-0.0004956275,9.933114e-05,8.678436e-05,-3.0517578e-05,-1.5258789e-05,0.00022888184
0.01095238,-0.012215351,0.9938364,0.24406433,-0.21296692,9.8033905,2.7755737,-15.67688,-39.12506,0.23975514,-0.21455555,9.80137,0.0006890148,0.00067332387,0.00085926056,0.00015258789,4.5776367e-05,-0.00021362305
0.011006527,-0.012245335,0.99382275,0.2416687,-0.21534729,9.800995,2.36969,-15.70282,-39.414978,0.24089983,-0.21499543,9.801333,0.0026468486,-0.0012733191,0.00072956085,-9.1552734e-05,0.00015258789,-9.1552734e-05
0.010984008,-0.012257774,0.99382883,0.2416687,-0.22013855,9.808182,2.9144287,-14.585876,-37.701416,0.24047591,-0.21529959,9.801337,-3.8057566e-05,-0.0002554357,-0.00032138824,-9.1552734e-05,-1.5258789e-05,-0.00015258789
0.010997788,-0.012281879,0.9938256,0.2368927,-0.22013855,9.7986145,2.243042,-15.364075,-37.1521,0.24080169,-0.2157336,9.801319,0.000109523535,-0.00029473007,-4.2915344e-05,-9.1552734e-05,-1.5258789e-05,-0.00015258789
0.01097408,-0.012273557,0.9938317,0.2416687,-0.21774292,9.8033905,2.507019,-14.761353,-37.416077,0.2403105,-0.21563497,9.801332,-0.00082699955,0.00031793118,-0.00050735474,-0.00015258789,4.5776367e-05,-9.1552734e-05
0.01096808,-0.012301666,0.9938337,0.24645996,-0.22492981,9.7986145,2.734375,-15.110779,-37.27112,0.24024938,-0.21620081,9.801322,0.00019933283,-0.0007981211,-0.00033855438,-3.0517578e-05,0.00021362305,-0.00033569336
0.010975779,-0.012280905,0.9938314,0.24406433,-0.20817566,9.8033905,2.8671265,-15.606689,-38.056946,0.24035984,-0.21577409,9.80133,0.0007991046,0.0009327829,0.0005636215,9.1552734e-05,4.5776367e-05,-9.1552734e-05
0.011000018,-0.01229875,0.9938253,0.24406433,-0.21534729,9.800995,2.645874,-15.261841,-37.600708,0.24088153,-0.21605743,9.80131,0.0012314767,-0.00069999695,0.00053596497,-3.0517578e-05,0.00015258789,-0.00015258789
0.011018016,-0.012273344,0.9938202,0.22970581,-0.21774292,9.800995,1.9897461,-15.522766,-37.701416,0.24118803,-0.21551198,9.801314,-0.00095945597,-0.0005336553,-0.0014047623,9.1552734e-05,-7.6293945e-05,-9.1552734e-05
0.010969696,-0.012244477,0.9938324,0.24645996,-0.21774292,9.8033905,3.2913208,-15.142822,-37.904358,0.24016209,-0.21507828,9.80135,-0.0018692166,0.00070761144,0.0011358261,-9.1552734e-05,4.5776367e-05,-0.00015258789
0.010996261,-0.012196918,0.9938246,0.2416687,-0.22013855,9.8033905,2.0568848,-16.035461,-36.59973,0.24059337,-0.21407653,9.801361,0.000807181,0.0016328245,0.00043010712,3.0517578e-05,4.5776367e-05,-0.00021362305
0.01100441,-0.0122284535,0.993823,0.24645996,-0.21534729,9.7986145,2.8686523,-15.606689,-37.90741,0.2408222,-0.21467108,9.801342,0.0010413826,-0.0011205822,0.0007610321,3.0517578e-05,0.00015258789,-0.00039672852
0.010970291,-0.012235949,0.9938321,0.2416687,-0.21774292,9.8033905,2.5482178,-15.55481,-38.18512,0.24015613,-0.2149099,9.8013525,-0.0011670738,-0.00063218176,0.0005044937,3.0517578e-05,4.5776367e-05,-0.00021362305
0.01096779,-0.012228956,0.99383265,0.24406433,-0.21534729,9.808182,3.0639648,-14.942932,-37.32605,0.24009156,-0.21477996,9.801358,0.00036482513,0.00016963482,-0.0027008057,3.0517578e-05,0.00033569336,-0.00021362305
0.010944626,-0.012256678,0.99383914,0.24406433,-0.22492981,9.810577,1.4953613,-15.693665,-38.397217,0.23955448,-0.21532317,9.801359,3.3289194e-05,-0.001375094,0.0015487671,3.0517578e-05,-7.6293945e-05,3.0517578e-05
0.011001668,-0.012291045,0.9938248,0.24406433,-0.21534729,9.796219,2.279663,-16.15448,-38.294983,0.24089842,-0.21590234,9.801313,0.0026377887,-0.0010740161,0.0007953644,3.0517578e-05,9.1552734e-05,-0.00015258789
0.010995821,-0.012262181,0.99382585,0.2368927,-0.21534729,9.808182,3.1051636,-15.737915,-37.942505,0.24072117,-0.21535379,9.80133,-4.027784e-05,0.0005168766,-0.0010738373,3.0517578e-05,4.5776367e-05,-9.1552734e-05
0.010990331,-0.012290045,0.99382776,0.2368927,-0.21774292,9.7986145,3.5964966,-15.409851,-38.27362,0.24066976,-0.21591343,9.801318,0.00024217367,-0.0010630935,0.001042366,-3.0517578e-05,4.5776367e-05,-0.00039672852
0.010934006,-0.012253664,0.9938419,0.23449707,-0.21534729,9.805786,2.0996094,-14.631653,-38.885498,0.23946816,-0.21535434,9.801361,-0.001650989,0.0012303591,-0.0013856888,3.0517578e-05,0.00021362305,-0.00039672852
0.010915226,-0.012264744,0.99384695,0.2416687,-0.21296692,9.800995,3.3813477,-14.840698,-38.449097,0.23911601,-0.21562164,9.801363,-0.00035326183,-0.001126349,2.5749207e-05,3.0517578e-05,0.00015258789,-3.0517578e-05
0.010887975,-0.012262286,0.99385405,0.2368927,-0.21534729,9.805786,2.241516,-15.211487,-38.102722,0.23856631,-0.21564706,9.801376,-0.00051668286,-0.00015845895,-0.00031375885,0.00015258789,0.00015258789,-0.00015258789
0.010943267,-0.012242875,0.99383926,0.2368927,-0.21296692,9.7986145,3.439331,-15.423584,-37.89215,0.23963064,-0.21511836,9.801362,0.0020376295,0.0009753257,-0.0014810562,-9.1552734e-05,-1.5258789e-05,9.1552734e-05
0.01094099,-0.012247966,0.99384,0.23928833,-0.21296692,9.796219,2.770996,-14.154053,-38.13629,0.2395958,-0.21522403,9.80136,0.00013439357,-0.0008277148,0.001244545,0.00021362305,4.5776367e-05,9.1552734e-05
0.01094357,-0.012256642,0.99383944,0.2416687,-0.21534729,9.796219,2.6641846,-14.89563,-37.449646,0.23966546,-0.2153867,9.801354,0.0003142208,-0.00042566657,-0.00045490265,3.0517578e-05,-1.5258789e-05,-3.0517578e-05
0.01094723,-0.012246461,0.9938383,0.24645996,-0.22732544,9.793823,1.6342163,-14.300537,-38.420105,0.23971732,-0.21517773,9.801357,0.00026774406,-0.00063951313,-0.00046539307,0.00021362305,4.5776367e-05,9.1552734e-05
0.010989525,-0.012313855,0.99382836,0.24645996,-0.21534729,9.805786,2.6565552,-15.04364,-37.405396,0.24070348,-0.21638119,9.801308,0.0021488965,-0.0020593256,6.67572e-06,9.1552734e-05,0.00015258789,-3.0517578e-05
0.01093401,-0.012318425,0.99384296,0.23928833,-0.21057129,9.810577,3.7002563,-15.045166,-37.599182,0.23960356,-0.21662055,9.80133,-0.002264902,-0.0006248802,0.00048160553,-3.0517578e-05,-7.6293945e-05,-0.00019836426
0.010916872,-0.012327932,0.99384755,0.24645996,-0.21774292,9.8033905,1.6967773,-14.811707,-37.8479,0.2392809,-0.2168527,9.801332,0.00019565225,-0.00038033724,0.0011091232,3.0517578e-05,0.00015258789,-0.00015258789
0.01094894,-0.0122998655,0.9938387,0.2416687,-0.22253418,9.800995,3.0456543,-15.231323,-37.98828,0.23986313,-0.21621734,9.8013315,0.0015305728,0.00091160834,0.00041866302,-3.0517578e-05,0.00015258789,-3.0517578e-05
0.010940381,-0.01227364,0.9938405,0.23210144,-0.21534729,9.808182,3.37677,-15.141296,-37.30316,0.23963727,-0.21572767,9.801348,0.00056527555,0.0006379187,-0.0011663437,9.1552734e-05,0.00021362305,-9.1552734e-05
0.010948731,-0.0122298645,0.99383765,0.24406433,-0.21296692,9.805786,2.8045654,-15.171814,-38.267517,0.23971263,-0.21484922,9.801366,0.00027872622,0.0014219433,-0.0014219284,3.0517578e-05,9.1552734e-05,-0.00015258789
0.010940384,-0.012231302,0.99383986,0.2368927,-0.22013855,9.8033905,3.40271,-14.404297,-38.134766,0.23954886,-0.21489987,9.801369,0.00045599043,2.6166439e-05,-0.0011167526,9.1552734e-05,9.1552734e-05,-0.00015258789
0.010920799,-0.0122417165,0.9938451,0.24406433,-0.21057129,9.805786,2.786255,-15.687561,-37.69226,0.23917925,-0.21515635,9.801372,9.596348e-05,-0.0006674081,0.0010080338,3.0517578e-05,0.0002746582,-9.1552734e-05
0.010918146,-0.012213669,0.99384534,0.2368927,-0.21296692,9.805786,1.3427734,-15.641785,-37.246704,0.23906763,-0.21461509,9.801386,-4.2557716e-05,0.00047515333,0.00050354004,3.0517578e-05,9.1552734e-05,-9.1552734e-05
0.010917307,-0.01221064,0.9938455,0.24645996,-0.21774292,9.8033905,3.0761719,-14.575195,-37.705994,0.23904453,-0.21455814,9.801388,0.00019919872,0.00044105947,0.0020971298,3.0517578e-05,-1.5258789e-05,0.00016784668
0.010939589,-0.012196393,0.99383944,0.23928833,-0.21296692,9.8033905,3.0303955,-15.597534,-37.911987,0.23945996,-0.21421942,9.801385,0.0009840876,0.00081032515,-0.0008401871,3.0517578e-05,9.1552734e-05,3.0517578e-05
0.010954774,-0.012191191,0.9938354,0.24406433,-0.21774292,9.7986145,1.6281128,-14.52179,-38.01117,0.23975246,-0.2140767,9.80138,0.0014112741,-0.0005249083,-0.00025749207,3.0517578e-05,0.00021362305,3.0517578e-05
0.010960953,-0.012182455,0.99383366,0.23928833,-0.22253418,9.796219,2.8045654,-15.097046,-38.630676,0.23985767,-0.2138892,9.801383,0.0005771369,-0.00047308207,0.0009384155,0.00021362305,4.5776367e-05,-3.0517578e-05
0.010955089,-0.012233186,0.99383605,0.24645996,-0.22013855,9.805786,2.8808594,-15.162659,-38.798523,0.2398466,-0.21489696,9.801361,-0.00011372566,-0.0018744022,-0.001285553,3.0517578e-05,-1.5258789e-05,-3.0517578e-05
0.010943714,-0.012269544,0.9938396,0.23449707,-0.2033844,9.817749,2.2109985,-15.867615,-38.235474,0.2396953,-0.21563858,9.801348,0.00028397143,-0.0013635755,-0.00022029877,3.0517578e-05,0.00015258789,-0.00015258789
0.010938856,-0.012288865,0.9938412,0.24406433,-0.22492981,9.805786,2.6443481,-15.184021,-38.26294,0.23963863,-0.2160295,9.801342,0.0005378574,-0.0014323592,0.0025501251,3.0517578e-05,9.1552734e-05,3.0517578e-05
0.010927705,-0.012231091,0.99384314,0.2368927,-0.1986084,9.793823,2.8686523,-15.608215,-37.90741,0.23929505,-0.21492995,9.8013735,-8.071959e-05,0.002273634,0.0013809204,9.1552734e-05,0.00015258789,-3.0517578e-05
0.010910336,-0.012148012,0.9938463,0.24406433,-0.21534729,9.82254,3.0166626,-14.221191,-36.798096,0.23877439,-0.21335243,9.801421,-0.00074242055,0.0030707717,-0.0017995834,-3.0517578e-05,9.1552734e-05,-0.00015258789
0.010910054,-0.012211599,0.9938474,0.2368927,-0.21296692,9.791428,3.3050537,-14.775085,-38.208008,0.23890162,-0.21459647,9.801391,0.0010569245,-0.0021429658,-0.00039958954,-3.0517578e-05,0.0002746582,-0.00015258789
0.010947119,-0.012235616,0.99383813,0.23928833,-0.20817566,9.793823,3.1463623,-14.712524,-38.113403,0.23969246,-0.21496603,9.801364,0.0019335896,-0.0010754317,-0.0004348755,0.00015258789,4.5776367e-05,3.0517578e-05
0.010944823,-0.012282947,0.9938395,0.23928833,-0.22013855,9.808182,3.4851074,-14.552307,-37.039185,0.2397455,-0.21589768,9.801342,0.0004528612,-0.0010818988,0.00066947937,-0.00021362305,0.00015258789,-0.00015258789
0.010954833,-0.012303962,0.99383724,0.23449707,-0.22013855,9.805786,2.9556274,-15.304565,-38.60321,0.23998947,-0.21628155,9.801328,0.0008870959,-0.001164943,0.0018854141,-3.0517578e-05,9.1552734e-05,-0.0002746582
0.010937619,-0.012299438,0.9938417,0.23928833,-0.21296692,9.808182,3.1524658,-14.642334,-37.721252,0.239636,-0.21623957,9.801337,6.8455935e-05,0.00045533478,-0.0014629364,-3.0517578e-05,0.00015258789,3.0517578e-05
0.010968253,-0.012305418,0.9938338,0.24645996,-0.21534729,9.805786,3.0532837,-14.857483,-38.970947,0.24026069,-0.21627371,9.80132,0.0020640641,0.00049315393,0.0002937317,-9.1552734e-05,0.0002746582,-0.00021362305
0.0109467935,-0.012288356,0.9938391,0.2416687,-0.20817566,9.786652,3.2150269,-14.92157,-38.7619,0.23979619,-0.2159981,9.801338,-0.0007954687,0.0011629909,-0.0013875961,-0.00015258789,4.5776367e-05,-0.00015258789
0.010979485,-0.012238427,0.9938297,0.2416687,-0.22013855,9.810577,2.6794434,-15.8203125,-40.28473,0.24034503,-0.21493351,9.801348,0.0008070022,0.0022497624,3.4332275e-05,-9.1552734e-05,-7.6293945e-05,-9.1552734e-05
0.0109474305,-0.012234592,0.9938381,0.2416687,-0.21296692,9.808182,3.4088135,-15.698242,-40.51361,0.23969652,-0.21494515,9.801364,-0.0011589825,-0.00014309585,-0.0007829666,3.0517578e-05,4.5776367e-05,-3.0517578e-05
0.010950739,-0.012262737,0.99383765,0.24645996,-0.21296692,9.805786,2.8198242,-14.729309,-38.70697,0.23982146,-0.21548653,9.801349,0.0010808408,-0.0005489439,0.0012350082,-9.1552734e-05,0.00015258789,-0.0002746582
0.010974865,-0.012293197,0.9938318,0.23928833,-0.21534729,9.796219,2.7114868,-15.470886,-38.09967,0.2403673,-0.2160169,9.801324,0.0010204315,-0.00073313713,0.00018596649,-9.1552734e-05,9.1552734e-05,-0.00021362305
0.010931437,-0.012276225,0.9938429,0.23449707,-0.21057129,9.796219,2.4551392,-15.550232,-39.46228,0.23881172,-0.21552145,9.801373,-0.0010064095,0.00069114566,-0.0014152527,-9.1552734e-05,9.1552734e-05,-0.00015258789
0.010960394,-0.012240003,0.99383473,0.2368927,-0.21774292,9.793823,2.5634766,-15.188599,-38.261414,0.23996685,-0.21501592,9.801355,0.0028672218,0.00017754734,-0.0007915497,0.00015258789,0.00015258789,-0.00021362305
0.010977153,-0.012262314,0.99383074,0.23449707,-0.21534729,9.7986145,2.758789,-14.524841,-37.530518,0.24034841,-0.21540688,9.801338,0.0010688752,-0.0013545454,-0.001490593,0.0002746582,9.1552734e-05,-0.00015258789
0.01096699,-0.012269512,0.9938335,0.24406433,-0.21534729,9.812973,3.5995483,-15.335083,-38.56201,0.24016038,-0.21557507,9.801338,-0.00019598007,6.839633e-06,0.00027942657,-3.0517578e-05,9.1552734e-05,-9.1552734e-05
0.011002313,-0.012291964,0.9938246,0.24406433,-0.20817566,9.805786,3.5232544,-15.423584,-37.290955,0.24091323,-0.21591856,9.801312,0.0016819537,-0.0010759681,0.0006608963,-9.1552734e-05,-1.5258789e-05,-9.1552734e-05
0.010975957,-0.0122547895,0.9938309,0.2416687,-0.20817566,9.808182,3.1585693,-14.494324,-37.841797,0.24030875,-0.21526296,9.801341,-0.0008408278,0.0016230345,0.001244545,-3.0517578e-05,4.5776367e-05,-0.00021362305
0.011004058,-0.012227524,0.9938231,0.23928833,-0.21774292,9.7986145,1.5869141,-15.550232,-37.46338,0.24081323,-0.21465386,9.801343,0.0012627542,0.0015302747,0.0025806427,3.0517578e-05,9.1552734e-05,-3.0517578e-05
0.011000306,-0.0122441705,0.99382436,0.23928833,-0.21774292,9.791428,2.8839111,-15.318298,-37.69684,0.2407731,-0.2149895,9.801336,-0.00012926757,-0.0010045618,-0.00019359589,3.0517578e-05,-1.5258789e-05,0.00016784668
0.010948748,-0.012285326,0.99383855,0.2416687,-0.21534729,9.805786,3.0548096,-15.011597,-37.94403,0.2398289,-0.21593356,9.801338,-0.0013249815,-0.0017487854,-0.00092601776,-9.1552734e-05,0.00015258789,9.1552734e-05
0.010956641,-0.012269357,0.9938362,0.2416687,-0.21296692,9.7986145,3.378296,-15.068054,-37.36267,0.23995325,-0.21560001,9.801343,0.00045198202,0.00031857193,0.00048732758,0.00015258789,-1.5258789e-05,0.00022888184
0.010999468,-0.012260196,0.99382484,0.24645996,-0.21057129,9.800995,1.7196655,-16.12091,-38.038635,0.24078988,-0.2153051,9.801329,0.001543656,0.0009506643,-0.0017471313,-9.1552734e-05,9.1552734e-05,-0.00021362305
0.011024218,-0.012249367,0.99381816,0.2416687,-0.20817566,9.805786,2.4551392,-14.031982,-37.79602,0.24126178,-0.2150264,9.801324,0.0008510798,0.00043559074,-0.0006875992,-3.0517578e-05,-0.0001373291,-0.0002746582
0.011038102,-0.012270851,0.9938149,0.24645996,-0.22492981,9.808182,2.4642944,-15.559387,-38.331604,0.2415842,-0.21540886,9.801308,0.0014777482,-0.0003900975,-0.0003004074,-3.0517578e-05,0.00021362305,9.1552734e-05
0.011029599,-0.0122987805,0.99381757,0.23210144,-0.21296692,9.8033905,3.4469604,-15.124512,-38.58795,0.24147277,-0.21597797,9.801297,0.00039313734,-0.0017229766,0.00043201447,9.1552734e-05,9.1552734e-05,0.00022888184
0.010975161,-0.012294878,0.9938318,0.24406433,-0.21774292,9.800995,2.4490356,-16.001892,-37.742615,0.24037671,-0.21604897,9.801323,-0.0018414855,1.6823411e-05,-0.0008325577,3.0517578e-05,9.1552734e-05,9.1552734e-05
0.010979871,-0.012284506,0.9938304,0.2368927,-0.21534729,9.815353,1.4434814,-15.042114,-38.337708,0.24044915,-0.21583344,9.801326,0.00070746243,0.0002770871,0.00024318695,3.0517578e-05,0.00015258789,-0.00015258789
0.010973458,-0.012248079,0.99383146,0.2368927,-0.21774292,9.7986145,2.5177002,-16.133118,-38.754272,0.24024479,-0.21513852,9.801346,-5.3033233e-05,0.0012637228,0.00032138824,-3.0517578e-05,0.00015258789,-9.1552734e-05
0.010942017,-0.012248444,0.9938397,0.24406433,-0.22013855,9.779465,2.6275635,-15.548706,-38.33618,0.23961729,-0.21523061,9.801359,-0.0010908991,-0.0005647391,0.0002002716,9.1552734e-05,4.5776367e-05,-0.00021362305
0.010979145,-0.012213274,0.99382937,0.24406433,-0.21774292,9.796219,3.0319214,-15.370178,-38.84735,0.24028562,-0.21444263,9.80136,0.0018561482,0.0022064447,-0.0024204254,-9.1552734e-05,0.00015258789,-0.00015258789
0.010985956,-0.01226372,0.9938284,0.23449707,-0.22013855,9.8033905,2.394104,-15.344238,-38.36212,0.24052726,-0.21541056,9.801333,0.00065280497,-0.0013570786,-1.4305115e-05,-9.1552734e-05,9.1552734e-05,-9.1552734e-05
0.010986185,-0.012267306,0.9938284,0.2416687,-0.21774292,9.808182,2.6184082,-15.844727,-37.7182,0.24053934,-0.21548007,9.8013315,0.0010939687,-0.00032380223,0.001578331,3.0517578e-05,0.00015258789,-0.0002746582
0.011000557,-0.012288712,0.993825,0.2368927,-0.21774292,9.793823,1.2176514,-14.61792,-38.693237,0.24087134,-0.21585974,9.801315,0.0012444407,-0.0018462539,0.00039863586,9.1552734e-05,0.00016784668,-0.0002746582
0.010994719,-0.012297429,0.9938267,0.24885559,-0.21534729,9.805786,3.4362793,-15.419006,-38.420105,0.24077292,-0.21604596,9.801313,0.00063203275,1.28000975e-05,-0.00053215027,3.0517578e-05,0.00021362305,9.1552734e-05
0.011011349,-0.01227626,0.993822,0.23210144,-0.22013855,9.800995,2.4002075,-15.122986,-38.5437,0.24106093,-0.21558705,9.801316,0.0005517453,0.0005187541,0.0017185211,9.1552734e-05,9.1552734e-05,-3.0517578e-05
0.011014673,-0.012306221,0.9938216,0.23928833,-0.22253418,9.812973,2.786255,-15.383911,-39.216614,0.24119005,-0.21616387,9.8013,0.00019305944,-0.0008110404,2.9563904e-05,-3.0517578e-05,-1.5258789e-05,-0.00015258789
0.010971249,-0.01234919,0.9938337,0.23928833,-0.21296692,9.8033905,2.972412,-14.9383545,-38.52997,0.2404121,-0.21712148,9.801298,-0.0016551167,-0.0017879903,-0.0010976791,-0.00015258789,-1.5258789e-05,3.0517578e-05
0.011001756,-0.01230038,0.9938249,0.2416687,-0.21774292,9.793823,1.9851685,-15.518188,-38.22937,0.24091971,-0.21608461,9.801309,0.00095131993,0.0017208904,-9.250641e-05,9.1552734e-05,-7.6293945e-05,-0.00015258789
0.010997033,-0.01233806,0.99382675,0.2416687,-0.22013855,9.793823,2.7313232,-15.032959,-37.93335,0.24090415,-0.21683416,9.801293,0.000984773,-0.00088721514,-0.0015001297,-3.0517578e-05,0.00021362305,-3.0517578e-05
0.010981863,-0.012303051,0.99383014,0.23928833,-0.21774292,9.827316,3.0715942,-14.572144,-38.38501,0.24052776,-0.21619065,9.801316,-0.00034365058,0.0013615638,0.0021924973,-0.00015258789,0.00021362305,-9.1552734e-05
0.010968336,-0.012311855,0.99383384,0.23210144,-0.21774292,9.805786,2.2705078,-16.300964,-38.40027,0.24027582,-0.21639937,9.801317,-0.00081291795,-0.00033333898,0.00034618378,-9.1552734e-05,-7.6293945e-05,-0.00015258789
0.010951958,-0.012300677,0.99383795,0.2416687,-0.21774292,9.810577,4.412842,-15.136719,-38.552856,0.23992515,-0.21622506,9.801331,-0.00047837198,0.0004529655,0.0013494492,3.0517578e-05,-1.5258789e-05,3.0517578e-05
0.010947461,-0.012281392,0.9938388,0.2368927,-0.21296692,9.791428,3.314209,-16.300964,-38.745117,0.23979497,-0.21586013,9.801341,0.0003543049,0.00081832707,0.0012111664,-3.0517578e-05,0.00021362305,3.0517578e-05
0.0109787015,-0.012258294,0.99383026,0.24406433,-0.20817566,9.808182,2.9632568,-15.309143,-38.15155,0.24037093,-0.21532407,9.801338,0.0012417287,0.0014460832,-0.0023851395,-0.00015258789,-1.5258789e-05,-0.0002746582
0.011030127,-0.012267709,0.9938169,0.24406433,-0.20817566,9.8033905,3.1829834,-15.805054,-37.88452,0.24141826,-0.21536902,9.801312,0.0014104843,-0.00089906156,0.0004787445,0.00015258789,0.00015258789,-0.00015258789
0.010994135,-0.012252017,0.9938261,0.2416687,-0.22013855,9.796219,3.201294,-15.214539,-38.82141,0.24066623,-0.21515961,9.801335,-0.0009379089,0.0010320246,-0.00095272064,-0.00021362305,4.5776367e-05,0.0002746582
0.010968889,-0.012244537,0.9938326,0.23928833,-0.21534729,9.808182,3.741455,-15.609741,-39.68048,0.2401461,-0.21508162,9.80135,4.3854117e-05,0.0004912764,0.00094509125,-9.1552734e-05,0.0002746582,3.0517578e-05
0.010970011,-0.012258611,0.9938325,0.23928833,-0.21534729,9.8033905,3.9291382,-15.090942,-38.900757,0.24019796,-0.21535376,9.801342,-6.556511e-07,-0.000679031,0.0006303787,3.0517578e-05,9.1552734e-05,3.0517578e-05
0.010970255,-0.012243518,0.99383223,0.23928833,-0.22013855,9.812973,3.630066,-14.602661,-38.63983,0.24017127,-0.215058,9.80135,0.00074988604,0.0011859089,-0.000538826,-0.00015258789,0.00015258789,-0.00015258789
0.010975287,-0.01219474,0.9938301,0.24406433,-0.21296692,9.796219,3.6315918,-14.375305,-39.726257,0.24016976,-0.21409066,9.801371,0.0002914071,0.0021004975,-0.0022735596,-3.0517578e-05,0.00021362305,3.0517578e-05
0.010965573,-0.0122321835,0.99383324,0.2416687,-0.22013855,9.805786,3.439331,-15.270996,-38.99536,0.24005398,-0.21484903,9.801356,0.00014609098,-0.0016729832,0.0013494492,-3.0517578e-05,-7.6293945e-05,-9.1552734e-05
0.010930538,-0.012217789,0.9938422,0.23210144,-0.21057129,9.800995,2.6397705,-15.332031,-38.142395,0.23932384,-0.21466221,9.801378,-0.0012701899,5.8293343e-05,-0.00037574768,0.00015258789,9.1552734e-05,0.00022888184
0.0109667145,-0.012219365,0.99383277,0.2416687,-0.21774292,9.796219,3.4332275,-15.41748,-38.796997,0.24005,-0.21459532,9.801363,0.0018223077,-0.00048686564,0.0008611679,3.0517578e-05,0.00015258789,-3.0517578e-05
0.010952757,-0.012245107,0.9938368,0.2368927,-0.21534729,9.808182,3.9169312,-15.461731,-38.371277,0.23982497,-0.2151364,9.801357,-0.00079505146,-0.00044223666,-0.0021352768,-9.1552734e-05,-0.0001373291,-3.0517578e-05
0.0109759765,-0.012246043,0.99383074,0.23928833,-0.21534729,9.808182,2.5634766,-15.188599,-38.186646,0.24029087,-0.21509191,9.801346,0.0004171729,-1.3425946e-05,1.4305115e-05,0.00015258789,-1.5258789e-05,0.00016784668
0.0109734675,-0.012247822,0.99383146,0.2416687,-0.22013855,9.808182,3.6376953,-16.355896,-38.31787,0.24024445,-0.21513347,9.801346,0.00022698939,-0.00020748377,-0.0006246567,-9.1552734e-05,-1.5258789e-05,-7.6293945e-05
0.010973533,-0.012256635,0.9938316,0.23928833,-0.21296692,9.789032,2.709961,-15.467834,-38.40027,0.24026416,-0.21530561,9.801341,0.00066176057,-0.00026285648,0.0014925003,-3.0517578e-05,9.1552734e-05,-9.1552734e-05
0.01097839,-0.012256978,0.9938303,0.23928833,-0.21296692,9.82254,2.8518677,-14.379883,-36.6745,0.24036196,-0.21529919,9.801339,0.00035211444,-0.0005286932,-0.001411438,3.0517578e-05,4.5776367e-05,0.00016784668
0.011025545,-0.012314033,0.9938189,0.2416687,-0.21534729,9.800995,2.7938843,-15.544128,-37.435913,0.24142367,-0.21628717,9.801291,0.0021301657,-0.0016663224,0.0022563934,3.0517578e-05,9.1552734e-05,3.0517578e-05
0.010994109,-0.0122917695,0.99382675,0.24406433,-0.22013855,9.8033905,3.9047241,-15.602112,-39.15558,0.24074888,-0.21593696,9.801316,-0.00077334046,0.00037238002,-0.0005788803,9.1552734e-05,9.1552734e-05,0.00016784668
0.011012,-0.012300618,0.9938222,0.24406433,-0.22253418,9.808182,2.3391724,-16.28418,-39.83612,0.24112491,-0.21606155,9.801304,0.0009752363,0.0005210489,0.0021715164,-9.1552734e-05,-1.5258789e-05,-9.1552734e-05
0.010966306,-0.012271967,0.9938337,0.23928833,-0.22013855,9.808182,3.0960083,-15.730286,-38.92212,0.24015182,-0.21562491,9.801337,-0.001621142,0.000786975,-0.0012617111,3.0517578e-05,0.00015258789,9.1552734e-05
0.010996056,-0.012227518,0.9938252,0.2368927,-0.21534729,9.7986145,2.6062012,-15.985107,-38.575745,0.24065334,-0.2146754,9.801347,0.0007330328,0.0017561466,0.0010728836,-0.00015258789,-3.0517578e-05,-3.0517578e-05
0.010980625,-0.012207226,0.9938289,0.2416687,-0.21296692,9.810577,2.937317,-15.666199,-39.279175,0.24030253,-0.21432038,9.801363,-0.0008100718,-0.00028766692,-0.0023231506,0.0002746582,-1.5258789e-05,3.0517578e-05
0.011026227,-0.012215316,0.9938171,0.23210144,-0.21774292,9.800995,3.1036377,-15.583801,-38.81836,0.2412306,-0.21435516,9.801339,0.001840204,0.00024022162,0.0018014908,9.1552734e-05,-1.5258789e-05,-3.0517578e-05
0.011001192,-0.012202277,0.9938234,0.2416687,-0.22013855,9.812973,3.3447266,-15.492249,-39.411926,0.2407031,-0.21416797,9.801356,-0.0007299632,0.0007568002,-0.0011901855,-0.00021362305,4.5776367e-05,3.0517578e-05
0.010986923,-0.012245877,0.9938279,0.23928833,-0.21534729,9.796219,2.9571533,-15.3793335,-38.316345,0.24050924,-0.21505906,9.801341,0.0009075254,-0.0005117357,-0.0022325516,3.0517578e-05,4.5776367e-05,0.00016784668
0.010977624,-0.012263765,0.9938306,0.2416687,-0.21296692,9.796219,1.7364502,-15.603638,-38.690186,0.24036087,-0.21543397,9.801337,-0.00012789667,-0.00061555207,-0.00053310394,-3.0517578e-05,0.00021362305,9.1552734e-05
0.010952015,-0.012235757,0.9938369,0.2416687,-0.22253418,9.805786,1.4846802,-15.913391,-38.441467,0.23979059,-0.21495557,9.801362,-0.00029683113,0.0015366226,0.0005979538,-0.00015258789,9.1552734e-05,-9.1552734e-05
0.010928919,-0.012261268,0.9938433,0.2368927,-0.21774292,9.8033905,3.3599854,-15.354919,-38.17749,0.23938234,-0.2155167,9.801358,-0.0013255626,-0.00052423775,0.0002450943,-0.00021362305,-1.5258789e-05,0.00016784668
0.010932168,-0.012264288,0.99384254,0.23928833,-0.21774292,9.805786,2.7160645,-15.473938,-37.571716,0.23945361,-0.21556701,9.801356,0.00074855983,0.00024870038,0.00048732758,3.0517578e-05,-1.5258789e-05,3.0517578e-05
0.010963882,-0.012274771,0.9938344,0.23210144,-0.21296692,9.800995,3.1967163,-15.515137,-37.67395,0.24010928,-0.2156863,9.801337,0.0012878478,-0.00082808733,0.0007991791,9.1552734e-05,0.00015258789,9.1552734e-05
0.010975099,-0.0122726895,0.99383146,0.2416687,-0.21774292,9.808182,2.5924683,-16.352844,-38.34839,0.24032907,-0.21561529,9.801333,0.0005926192,5.0634146e-05,-0.0010671616,-3.0517578e-05,-1.5258789e-05,0.00016784668
0.010947706,-0.0122661,0.9938385,0.23449707,-0.21296692,9.796219,3.250122,-15.864563,-39.030457,0.23976791,-0.21556048,9.801349,-0.00075630844,-0.0004746914,0.0002374649,0.00015258789,9.1552734e-05,9.1552734e-05
0.010925112,-0.01226439,0.9938444,0.23928833,-0.22013855,9.7986145,2.31781,-16.642761,-40.512085,0.23931283,-0.21558803,9.801359,-0.0003106743,0.00050748885,0.0007982254,-9.1552734e-05,4.5776367e-05,3.0517578e-05
0.010924477,-0.0122737,0.9938447,0.23449707,-0.21296692,9.808182,2.0355225,-16.168213,-38.664246,0.23931961,-0.2157718,9.801355,-6.9990754e-05,-2.886355e-05,-0.00026798248,-9.1552734e-05,4.5776367e-05,-0.0002746582
0.010934067,-0.012237414,0.9938416,0.24406433,-0.21774292,9.805786,3.8345337,-15.390015,-38.882446,0.23943539,-0.2150364,9.801368,0.0010203123,0.0011439472,-0.0013074875,3.0517578e-05,0.00015258789,-3.0517578e-05
0.010943497,-0.01223719,0.99383914,0.24406433,-0.21296692,9.793823,2.746582,-16.56189,-38.020325,0.23962337,-0.21500659,9.801365,0.0005771369,-0.00031028688,0.0008840561,3.0517578e-05,9.1552734e-05,3.0517578e-05
0.010959651,-0.01218699,0.9938341,0.24645996,-0.22013855,9.808182,3.8085938,-16.05072,-38.713074,0.23984115,-0.21398139,9.801381,0.00061400235,0.0012794435,-0.00085258484,0.0002746582,0.00015258789,9.1552734e-05
0.010943312,-0.012189397,0.99383837,0.2416687,-0.21534729,9.808182,3.2287598,-16.377258,-38.83362,0.23951976,-0.2140726,9.801388,-3.2678246e-05,-0.0007747561,0.000541687,0.00015258789,-1.5258789e-05,0.00022888184
0.010943501,-0.012205152,0.9938386,0.2416687,-0.20817566,9.793823,3.3981323,-15.992737,-40.04669,0.23955645,-0.21438013,9.801379,0.00019365549,-0.00048407912,-0.0015621185,9.1552734e-05,4.5776367e-05,-9.1552734e-05
0.010956619,-0.01218222,0.9938348,0.23928833,-0.21774292,9.810577,2.9708862,-16.609192,-39.62555,0.23977062,-0.21389633,9.801386,0.00072683394,0.00021061301,-0.0024843216,0.00015258789,9.1552734e-05,-3.0517578e-05
0.0109509695,-0.012142961,0.99383557,0.24645996,-0.21774292,9.7986145,3.7490845,-15.693665,-38.18817,0.23957562,-0.21314399,9.801407,0.00019991398,0.0013698936,0.00041294098,3.0517578e-05,0.0002746582,-3.0517578e-05
0.010976057,-0.012162219,0.99382937,0.24406433,-0.21774292,9.810577,3.227234,-16.375732,-39.212036,0.24011707,-0.21345271,9.801386,0.0010830611,-0.0007083565,0.00075244904,-3.0517578e-05,-7.6293945e-05,0.000289917
0.010971461,-0.012195751,0.9938311,0.23928833,-0.21296692,9.800995,3.793335,-16.340637,-38.848877,0.24009544,-0.21412076,9.801372,-9.198487e-05,-0.0014688373,0.000500679,3.0517578e-05,4.5776367e-05,9.1552734e-05
0.010908419,-0.0122169675,0.99384797,0.23928833,-0.21534729,9.8033905,3.050232,-15.084839,-38.18512,0.23888017,-0.21470584,9.801389,-0.0015455484,-0.001101777,0.0024032593,-3.0517578e-05,0.00015258789,9.1552734e-05
0.010880562,-0.012212863,0.9938552,0.2368927,-0.21774292,9.815353,3.8894653,-16.12091,-38.20343,0.23831497,-0.21470071,9.801403,-0.0002785772,9.7200274e-05,0.0012807846,-9.1552734e-05,0.00015258789,-3.0517578e-05
0.010872089,-0.012236739,0.9938578,0.2416687,-0.22253418,9.8033905,3.2913208,-14.990234,-38.552856,0.23819554,-0.21519037,9.801395,9.377301e-05,-0.0010841638,-0.000746727,9.1552734e-05,0.00015258789,-3.0517578e-05
0.010871177,-0.01220831,0.99385756,0.23928833,-0.21057129,9.800995,3.0822754,-15.945435,-39.419556,0.23811796,-0.21463698,9.80141,0.00017569959,0.0009829849,-0.00033855438,9.1552734e-05,4.5776367e-05,-0.0002746582
0.010894617,-0.012176545,0.9938509,0.2416687,-0.21774292,9.7986145,3.4072876,-16.001892,-38.764954,0.23851997,-0.21395272,9.8014145,0.00096672773,0.0010131747,-0.00023937225,9.1552734e-05,9.1552734e-05,-3.0517578e-05
0.01090739,-0.012191475,0.9938478,0.23210144,-0.20578003,9.7986145,3.0838013,-16.174316,-38.33313,0.23880637,-0.2142102,9.801402,0.0009239763,-0.0006362647,-9.536743e-07,3.0517578e-05,0.00021362305,-3.0517578e-05
0.010921695,-0.012182756,0.9938439,0.23928833,-0.21057129,9.800995,2.4017334,-16.944885,-38.7619,0.23907395,-0.2140011,9.801399,0.000673756,0.00032924116,-0.0014371872,9.1552734e-05,-1.5258789e-05,3.0517578e-05
0.010940049,-0.012190009,0.99383926,0.23449707,-0.21534729,9.789032,2.5238037,-16.064453,-38.363647,0.23945582,-0.21409337,9.801389,0.0007547289,-0.0007595867,0.0007982254,3.0517578e-05,4.5776367e-05,9.1552734e-05
0.010921401,-0.012207318,0.9938444,0.2368927,-0.21296692,9.805786,3.3706665,-15.287781,-37.332153,0.23911941,-0.21448214,9.801388,-0.000549227,-0.0003912598,-0.0018672943,-3.0517578e-05,-7.6293945e-05,9.1552734e-05
0.010895885,-0.012229165,0.9938514,0.2416687,-0.21774292,9.810577,2.859497,-15.751648,-38.313293,0.23865518,-0.21497813,9.801388,-8.761883e-05,-0.0010983497,0.00019168854,3.0517578e-05,0.0002746582,0.00016784668
0.010899299,-0.012237094,0.9938507,0.23449707,-0.21774292,9.7986145,3.6819458,-15.332031,-38.33618,0.23874,-0.215124,9.801384,0.0010064542,0.00073617697,0.00092220306,-0.00021362305,0.00015258789,-0.00015258789
0.010886199,-0.012241219,0.99385417,0.23928833,-0.21534729,9.793823,3.5827637,-15.699768,-38.861084,0.23848683,-0.21523994,9.801387,-0.00016847253,0.00012935698,-0.0005044937,-0.00021362305,9.1552734e-05,3.0517578e-05
0.010910288,-0.0122652985,0.99384826,0.23210144,-0.22253418,9.808182,3.62854,-16.499329,-38.796997,0.2390185,-0.21564579,9.801365,0.0002745539,-0.0006670505,-0.0011224747,3.0517578e-05,-7.6293945e-05,-3.0517578e-05
0.010924946,-0.012242768,0.9938441,0.22970581,-0.21296692,9.800995,2.6153564,-15.841675,-38.16986,0.23926432,-0.21516572,9.80137,-0.00023512542,0.0012662262,0.0016508102,-0.00015258789,-0.00019836426,-3.0517578e-05
0.010934142,-0.012221112,0.9938413,0.2368927,-0.21774292,9.800995,3.0273438,-15.670776,-37.850952,0.23940283,-0.21471748,9.801376,0.0017766804,0.000574857,-0.0015153885,9.1552734e-05,0.00021362305,-3.0517578e-05
0.010947216,-0.012170527,0.99383706,0.23928833,-0.21534729,9.800995,2.4414062,-16.220093,-37.937927,0.23955828,-0.2136931,9.801394,0.0006608814,0.0014569163,-6.1035156e-05,0.00021362305,0.00021362305,-9.1552734e-05
0.010938341,-0.012183179,0.99383956,0.2416687,-0.21296692,9.796219,3.2714844,-15.428162,-38.641357,0.23940739,-0.21396443,9.801392,-0.0006162524,-0.00065772235,-0.00051784515,9.1552734e-05,-7.6293945e-05,-3.0517578e-05
0.010953135,-0.012214297,0.9938362,0.23928833,-0.21534729,9.796219,2.06604,-15.512085,-38.305664,0.23976806,-0.21453293,9.801371,0.0006876886,-0.0012822598,0.0010881424,3.0517578e-05,-1.5258789e-05,-0.00021362305
0.010951696,-0.012208944,0.9938365,0.23928833,-0.21296692,9.793823,3.9459229,-14.956665,-37.44049,0.23972812,-0.21443215,9.801374,0.00072848797,0.0010117888,-6.866455e-05,-9.1552734e-05,0.00015258789,-9.1552734e-05
0.010911667,-0.012184896,0.9938466,0.2416687,-0.22013855,9.812973,2.7877808,-15.687561,-37.615967,0.23887806,-0.21407,9.801403,-0.002242297,-7.562339e-05,-0.00068855286,9.1552734e-05,-1.5258789e-05,9.1552734e-05
0.010927855,-0.012246631,0.9938434,0.24406433,-0.21057129,9.7986145,2.546692,-15.551758,-38.41095,0.23933052,-0.21523339,9.801366,0.0011164993,-0.0024811924,0.0014505386,-3.0517578e-05,-1.5258789e-05,-9.1552734e-05
0.010942336,-0.012199735,0.9938388,0.23928833,-0.21296692,9.796219,2.7877808,-15.460205,-38.70392,0.23952185,-0.21427736,9.801382,0.0011831373,0.0025316924,-0.0011110306,-9.1552734e-05,0.00015258789,3.0517578e-05
0.010912787,-0.012196282,0.9938465,0.2368927,-0.21296692,9.800995,2.470398,-15.411377,-38.52997,0.23892424,-0.2142896,9.801397,-0.0006055981,-0.00010411441,-0.000746727,-3.0517578e-05,0.00021362305,0.00022888184
0.01090593,-0.012187516,0.99384815,0.23928833,-0.21296692,9.808182,3.2424927,-16.23993,-37.89978,0.2387689,-0.2141367,9.801404,-0.00018431246,0.000928849,-0.0017662048,-9.1552734e-05,4.5776367e-05,3.0517578e-05
0.010930069,-0.012127801,0.9938408,0.2368927,-0.21057129,9.805786,3.6254883,-16.574097,-38.511658,0.23912634,-0.21290398,9.801422,0.0008878261,0.0023249537,0.00041675568,-3.0517578e-05,-1.5258789e-05,-0.00015258789
0.01090226,-0.012131074,0.99384815,0.23928833,-0.21534729,9.7986145,3.1326294,-15.153503,-37.750244,0.23857765,-0.21304303,9.801433,-0.00072416663,-0.0011136085,0.000746727,0.00015258789,0.00015258789,-9.1552734e-05
0.010911229,-0.012193416,0.99384683,0.23928833,-0.21534729,9.810577,1.8783569,-16.030884,-38.783264,0.23888712,-0.21423778,9.801399,0.0006111115,-0.0020537823,0.0014572144,9.1552734e-05,-1.5258789e-05,0.00022888184
0.010949818,-0.012194365,0.99383676,0.24406433,-0.21057129,9.805786,2.949524,-15.527344,-38.1958,0.23966013,-0.21415216,9.801382,0.0015042126,2.3066998e-05,0.00097084045,-0.00015258789,-7.6293945e-05,-3.0517578e-05
0.010941991,-0.012223652,0.99383926,0.2368927,-0.22013855,9.8033905,3.9047241,-15.7547,-38.28125,0.23956493,-0.21474591,9.801371,-0.000292629,-0.00058701634,-0.0012607574,-9.1552734e-05,-1.5258789e-05,-0.00015258789
0.010922382,-0.012229166,0.9938445,0.23928833,-0.21534729,9.7986145,3.9459229,-14.956665,-37.44049,0.23918466,-0.21490669,9.801377,-0.0006170273,0.0002797395,-0.0010004044,-9.1552734e-05,4.5776367e-05,-0.00021362305
0.010910854,-0.012229382,0.99384755,0.2416687,-0.22013855,9.8033905,2.9434204,-15.826416,-37.123108,0.23895477,-0.21494202,9.801382,9.788573e-05,6.0155988e-05,-0.0009860992,-9.1552734e-05,0.00015258789,3.0517578e-05
0.010905376,-0.01223353,0.99384904,0.24406433,-0.21296692,9.808182,1.4770508,-15.983582,-39.057922,0.23885396,-0.21503788,9.801382,-4.120171e-05,0.00039631128,-0.00033855438,-3.0517578e-05,4.5776367e-05,-0.00021362305
0.010934176,-0.012192405,0.9938408,0.23449707,-0.22253418,9.8033905,3.1097412,-15.362549,-39.151,0.23934348,-0.21415608,9.80139,0.0013906658,0.00093476474,9.059906e-05,3.0517578e-05,0.00010681152,9.1552734e-05
0.010909847,-0.01224839,0.9938481,0.24406433,-0.21534729,9.786652,2.809143,-15.101624,-38.102722,0.23897436,-0.2153164,9.8013735,-0.0003889501,-0.0021952093,-0.0002670288,9.1552734e-05,9.1552734e-05,-3.0517578e-05
0.010926217,-0.012233689,0.99384356,0.24406433,-0.21534729,9.796219,3.4744263,-16.290283,-38.749695,0.23927075,-0.21498479,9.8013735,0.0009877384,0.00033301115,-0.0008249283,-3.0517578e-05,0.00010681152,4.5776367e-05
0.010928855,-0.01225887,0.9938433,0.2416687,-0.21534729,9.8033905,3.1021118,-15.809631,-37.882996,0.23937607,-0.21546997,9.801359,0.00087696314,-0.0003824085,0.00041484833,3.0517578e-05,0.00010681152,0.00018310547
0.010927999,-0.012225863,0.99384296,0.2368927,-0.21774292,9.7986145,2.2232056,-15.574646,-38.3255,0.23929001,-0.21482693,9.801376,0.00048309565,0.0016205609,0.0005893707,-0.00021362305,0.00022888184,-0.00019836426
0.010905987,-0.012218048,0.9938486,0.23210144,-0.20817566,9.7986145,1.3900757,-16.212463,-38.346863,0.23883384,-0.21473354,9.80139,-0.0004917532,0.00056289136,-0.000248909,-9.1552734e-05,4.5776367e-05,0.00018310547
0.010877793,-0.012253663,0.99385655,0.23449707,-0.22013855,9.8033905,1.6601562,-15.461731,-38.883972,0.23834483,-0.2155059,9.801385,0.00094109774,-8.3357096e-05,0.0014333725,-9.1552734e-05,0.0,0.00010681152
0.010897048,-0.01222688,0.9938511,0.2416687,-0.21534729,9.793823,2.5299072,-15.766907,-39.208984,0.23867366,-0.21493031,9.801389,0.0008486062,0.00078238547,0.00063610077,-3.0517578e-05,0.00016784668,-1.5258789e-05
0.010909793,-0.01224592,0.9938481,0.2416687,-0.22013855,9.786652,1.6662598,-15.467834,-38.056946,0.23896813,-0.21526824,9.801375,0.0012523681,-0.00055482984,0.0002565384,9.1552734e-05,0.00010681152,-1.5258789e-05
0.010866703,-0.012218597,0.9938589,0.23928833,-0.21534729,9.800995,3.3615112,-15.280151,-38.537598,0.23805004,-0.21485017,9.801407,-0.0011763573,0.0011832565,0.00048351288,-0.00015258789,0.00010681152,0.00024414062
0.010874055,-0.012241876,0.9938574,0.24406433,-0.21534729,9.808182,2.9541016,-15.226746,-39.268494,0.2382455,-0.21528548,9.801391,0.0014962107,-0.0005323291,9.536743e-07,3.0517578e-05,0.000289917,-0.00019836426
0.010909835,-0.012280514,0.9938486,0.2368927,-0.21057129,9.7986145,1.1276245,-15.452576,-35.31189,0.23904122,-0.21594454,9.801358,0.0013916045,-0.0007957965,0.002081871,-0.0002746582,0.0,-0.0001373291
0.010923354,-0.012278435,0.99384505,0.23210144,-0.2033844,9.8033905,3.0441284,-15.383911,-37.113953,0.23930705,-0.2158674,9.801353,0.0013859123,0.00077578425,-0.0013303757,-3.0517578e-05,0.00016784668,-1.5258789e-05
0.010934173,-0.012281149,0.9938423,0.23449707,-0.21534729,9.796219,3.4240723,-15.789795,-37.815857,0.23952891,-0.21589124,9.801347,-3.2514334e-05,0.00056271255,-0.0007162094,-0.00015258789,4.5776367e-05,0.00018310547
0.010916407,-0.012299323,0.99384725,0.2368927,-0.22492981,9.7986145,3.35083,-15.498352,-38.50708,0.23921186,-0.21629459,9.801347,-0.00066146255,-0.00048349798,2.861023e-06,-0.00021362305,-6.1035156e-05,-0.00032043457
0.01092167,-0.012261471,0.9938452,0.23928833,-0.22013855,9.805786,3.0914307,-16.104126,-37.71515,0.23923796,-0.21554027,9.801363,-0.00020827353,0.0016251355,-0.00047397614,3.0517578e-05,-0.00018310547,-7.6293945e-05
0.010971075,-0.0122916605,0.9938328,0.23449707,-0.21057129,9.8033905,3.211975,-15.072632,-38.26294,0.24028833,-0.2159971,9.801326,0.0018591732,-0.00054711103,-0.00047397614,-9.1552734e-05,0.0,-0.0001373291
0.010960052,-0.012305551,0.9938359,0.23210144,-0.21774292,9.793823,2.4642944,-15.708923,-37.834167,0.24009708,-0.21629849,9.801324,-0.0005953014,-0.00048448145,0.0004901886,3.0517578e-05,0.0,6.1035156e-05
0.010950967,-0.012334607,0.9938388,0.23928833,-0.21774292,9.793823,3.112793,-15.440369,-38.485718,0.23997623,-0.21689114,9.801313,-0.0004785508,-0.0013224036,0.00031757355,3.0517578e-05,0.0,4.5776367e-05
0.010927365,-0.012340944,0.99384505,0.23928833,-0.21296692,9.805786,2.192688,-16.383362,-37.65869,0.23951778,-0.21707879,9.801321,-0.0011853576,-0.00019598007,-0.0020132065,-3.0517578e-05,-0.00012207031,0.00018310547
0.010935416,-0.012297901,0.99384224,0.2368927,-0.21057129,9.7986145,2.2857666,-16.160583,-37.464905,0.23958875,-0.21621545,9.801338,-0.0005494356,0.0018185824,0.0008916855,-9.1552734e-05,-0.00018310547,-0.00019836426
0.010926135,-0.012266661,0.99384415,0.2416687,-0.22013855,9.796219,3.8513184,-15.254211,-37.72278,0.23933801,-0.21562968,9.801357,-0.00031138957,0.0014884025,0.0010843277,-0.00015258789,0.0,-1.5258789e-05
0.010923713,-0.012279382,0.993845,0.22970581,-0.21534729,9.8033905,3.3950806,-16.220093,-39.035034,0.23931618,-0.21588492,9.801352,-0.00029061735,-0.0004068464,8.4877014e-05,-9.1552734e-05,-6.1035156e-05,-0.0001373291
0.010901523,-0.012288867,0.99385095,0.23928833,-0.22013855,9.808182,2.6733398,-16.273499,-38.412476,0.23889254,-0.21613026,9.801357,-0.00083851814,-0.0006405115,0.0008497238,9.1552734e-05,0.00010681152,-7.6293945e-05
0.0109286485,-0.012272133,0.99384356,0.24406433,-0.22013855,9.789032,2.6885986,-15.753174,-39.590454,0.23939967,-0.21572988,9.801353,0.00079487264,0.00089149177,0.0008945465,3.0517578e-05,-0.00012207031,-0.0001373291
0.010941139,-0.012257581,0.9938401,0.23928833,-0.21296692,9.8033905,2.29187,-15.786743,-38.6734,0.23961887,-0.21541163,9.801355,0.0005938411,0.0012740046,-0.0014753342,-0.00015258789,4.5776367e-05,4.5776367e-05
0.010959442,-0.012220515,0.9938347,0.23928833,-0.21296692,9.8033905,4.232788,-15.661621,-38.20038,0.23990707,-0.21463744,9.801365,0.0012731403,0.0012113452,-0.00051403046,-3.0517578e-05,0.00024414062,4.5776367e-05
0.010957603,-0.0122543,0.9938357,0.24406433,-0.21774292,9.808182,3.1967163,-15.362549,-38.549805,0.239941,-0.215303,9.80135,0.00026799738,-0.0012269616,0.0007753372,3.0517578e-05,-0.00012207031,4.5776367e-05
0.0109275775,-0.01221644,0.99384296,0.23928833,-0.21057129,9.793823,2.4261475,-16.433716,-38.5849,0.23926188,-0.21464385,9.801381,-0.00047913194,0.0019365847,-0.0006055832,-9.1552734e-05,0.00022888184,0.00018310547
0.010905318,-0.01217784,0.99384815,0.24645996,-0.21774292,9.789032,2.2857666,-16.009521,-38.26599,0.238719,-0.21479414,9.801392,8.364022e-05,-0.0020050555,-0.0021982193,0.00021362305,0.00016784668,-0.0001373291
0.01089127,-0.01224731,0.993853,0.24645996,-0.21057129,9.8033905,2.59552,-16.203308,-38.84735,0.23860088,-0.21534537,9.801382,-0.00050345063,-0.0002591908,-0.0009794235,-9.1552734e-05,0.0,-7.6293945e-05
0.010896974,-0.01225013,0.9938515,0.2368927,-0.22013855,9.793823,2.937317,-15.896606,-37.590027,0.23872074,-0.21538511,9.801377,7.265806e-05,2.8550625e-05,0.0017404556,-0.00015258789,0.0,0.00024414062
0.010921876,-0.012287693,0.9938456,0.24885559,-0.20817566,9.8033905,3.3584595,-15.202332,-39.20288,0.23929682,-0.2160524,9.801349,0.00092972815,-0.00073741376,5.8174133e-05,-3.0517578e-05,-6.1035156e-05,0.00012207031
0.010933112,-0.012286675,0.99384266,0.22732544,-0.22013855,9.808182,2.3162842,-15.4296875,-37.469482,0.23951924,-0.21600215,9.801344,0.00022411346,0.00042694807,0.0008363724,-9.1552734e-05,-6.1035156e-05,-1.5258789e-05
0.010919926,-0.012304958,0.9938464,0.24885559,-0.21057129,9.796219,3.9413452,-15.333557,-35.855103,0.23929395,-0.21639524,9.801342,0.00021399558,-0.00037801266,-0.0007266998,-9.1552734e-05,0.00010681152,0.00030517578
0.010939998,-0.012264024,0.99384046,0.22970581,-0.22013855,9.8033905,3.9794922,-15.8203125,-38.60016,0.23960951,-0.21554068,9.8013525,0.0003928244,0.0011422932,-0.00048732758,3.0517578e-05,0.0,0.00018310547
0.010900757,-0.012261763,0.9938507,0.24406433,-0.20817566,9.800995,1.6448975,-16.056824,-37.57019,0.23882064,-0.21560238,9.801371,-0.0012019277,2.95043e-06,-0.0009584427,9.1552734e-05,4.5776367e-05,-1.5258789e-05
0.010925169,-0.012221424,0.9938437,0.2368927,-0.21534729,9.808182,2.8427124,-16.04004,-38.82599,0.23922417,-0.21474777,9.801379,0.0012479573,0.0025037676,0.0012760162,-0.0002746582,0.00016784668,-1.5258789e-05
0.010897416,-0.012225129,0.99385095,0.23928833,-0.21296692,9.7986145,3.2592773,-15.72113,-38.700867,0.23867735,-0.21489508,9.80139,-0.0010860562,-0.0009237677,0.0010089874,0.00015258789,-6.1035156e-05,-0.0001373291
0.010887419,-0.0121684205,0.9938527,0.2416687,-0.22253418,9.796219,2.458191,-15.78064,-38.15155,0.23835917,-0.21381325,9.801421,-0.0005098134,0.0018118173,-0.0010910034,3.0517578e-05,4.5776367e-05,-0.0002593994
0.010867158,-0.012254452,0.99385935,0.23449707,-0.21296692,9.8033905,2.8457642,-16.04309,-38.372803,0.23813395,-0.21554999,9.801389,-5.747378e-05,-0.0031484514,7.534027e-05,3.0517578e-05,0.00010681152,-0.00019836426
0.010819325,-0.012242723,0.9938717,0.2368927,-0.21774292,9.8033905,2.7664185,-16.05072,-38.142395,0.23715362,-0.2154494,9.8014145,-0.0019477457,-0.00085160136,0.00019550323,9.1552734e-05,4.5776367e-05,-0.0001373291
0.0108772395,-0.012242499,0.99385655,0.2416687,-0.21296692,9.8033905,2.7008057,-15.612793,-38.656616,0.23831047,-0.21528912,9.801391,0.0018999279,0.0009095371,0.0012578964,3.0517578e-05,-6.1035156e-05,0.00024414062
0.010881884,-0.012192719,0.9938545,0.23928833,-0.21057129,9.8033905,2.1224976,-16.09497,-38.050842,0.23829934,-0.21430327,9.801413,-1.937151e-06,0.002324298,0.0005159378,-0.00021362305,-6.1035156e-05,0.00010681152
0.010890592,-0.012230493,0.99385285,0.23928833,-0.21057129,9.8033905,2.2888184,-15.936279,-38.175964,0.23855223,-0.21501839,9.801391,5.9604645e-06,-0.0012785047,-0.0014009476,9.1552734e-05,-0.00012207031,0.00018310547