timestamp,rotationVector_x,rotationVector_y,rotationVector_z,accelerometer_x,accelerometer_y,accelerometer_z,magneticField_x,magneticField_y,magneticField_z,gravity_x,gravity_y,gravity_z,linearAcceleration_x,linearAcceleration_y,linearAcceleration_z,gyroscope_x,gyroscope_y,gyroscope_z
2019-07-01T19:00:58.046Z,-0.008065112,-0.0026035628,0.082060724,0.021530151,-0.1531372,10.02832,3.0776978,15.16571,-32.606506,0.037909746,-0.16183466,9.805242,-0.0034700036,-0.0036913753,0.029559135,0.0002593994,0.0,0.00030517578
2019-07-01T19:00:58.249Z,-0.008068442,-0.0026261895,0.085478835,0.03111267,-0.17228699,10.258026,2.3605347,15.034485,-31.243896,0.03779094,-0.16206673,9.805238,9.946525e-07,-0.00079892576,0.0024719238,7.6293945e-05,6.1035156e-05,-7.6293945e-05
2019-07-01T19:00:58.439Z,-0.008036171,-0.0026246828,0.08670048,0.035888672,-0.1483612,9.84407,2.772522,15.509033,-32.37152,0.03761763,-0.16147989,9.805248,-0.0019627512,-0.0014476478,0.0052394867,0.0001373291,0.0,0.00018310547
2019-07-01T19:00:58.641Z,-0.008043478,-0.002633834,0.09091329,0.035888672,-0.15792847,9.820145,3.4179688,15.09552,-30.065918,0.037099987,-0.16179657,9.805244,-0.0014432184,-0.0009099841,-0.0009737015,7.6293945e-05,-0.00010681152,0.00012207031
2019-07-01T19:00:58.868Z,-0.008036567,-0.0026332901,0.08766153,0.033493042,-0.15553284,9.800995,1.8951416,15.592957,-31.941223,0.037629303,-0.16153865,9.805247,0.00041180477,0.00049331784,-0.0020828247,1.5258789e-05,-0.00016784668,0.00012207031
2019-07-01T19:00:59.049Z,-0.007981632,-0.0027388171,0.09168234,0.03111267,-0.1651001,9.827316,3.4179688,15.47699,-32.102966,0.039136562,-0.16080613,9.805253,0.0010932423,0.0018222928,-0.010957718,-4.5776367e-05,-0.00048828125,6.1035156e-05
2019-07-01T19:00:59.260Z,-0.00801927,-0.002671438,0.0914032,0.112457275,-0.1603241,9.238693,2.6245117,15.486145,-30.709839,0.03779821,-0.16140947,9.805249,-0.0009554252,-0.001981452,0.015181541,0.0001373291,0.0004272461,0.00024414062
2019-07-01T19:00:59.468Z,-0.007967842,-0.0026921201,0.0890852,0.04307556,-0.15074158,9.726822,2.1438599,15.7547,-31.842041,0.038667697,-0.16035259,9.805263,0.0020170324,0.0016870648,-0.0061483383,0.0001373291,7.6293945e-05,0.00012207031
2019-07-01T19:00:59.666Z,-0.007988435,-0.0026040946,0.090444155,0.01914978,-0.19621277,9.951752,2.9418945,15.510559,-31.245422,0.036692996,-0.16065128,9.805264,-0.0046855696,-0.00057163835,0.038020134,-0.00016784668,-0.00022888184,6.1035156e-05
2019-07-01T19:00:59.870Z,-0.007999454,-0.0027311184,0.09013817,-0.01914978,-0.22253418,11.030914,2.670288,16.433716,-30.366516,0.039203983,-0.16107975,9.805249,0.0062764324,-0.00096072257,-0.04023075,0.00019836426,0.00036621094,-1.5258789e-05
2019-07-01T19:01:00.073Z,-0.007927262,-0.0027317868,0.09012614,0.028717041,-0.18424988,9.951752,2.191162,14.952087,-31.478882,0.03934662,-0.15967044,9.805271,-0.002250474,0.0029391795,0.0036611557,-4.5776367e-05,-0.0006713867,0.00030517578
2019-07-01T19:01:00.306Z,-0.007990091,-0.0027527076,0.09017995,0.06460571,-0.14117432,9.542572,0.7888794,15.87677,-30.932617,0.039635476,-0.1609367,9.805249,0.0006597154,-0.0011801869,-0.04270172,-0.00016784668,6.1035156e-05,0.00030517578
2019-07-01T19:01:00.512Z,-0.008011981,-0.0027403506,0.090159096,0.04547119,-0.1483612,9.389435,3.1143188,14.224243,-32.94983,0.03935876,-0.16134156,9.8052435,-0.00060392544,-0.0018409938,0.044905663,7.6293945e-05,-6.1035156e-05,6.1035156e-05
2019-07-01T19:01:00.678Z,-0.008075771,-0.0027390185,0.09016823,0.04067993,-0.15792847,9.745972,3.2073975,14.823914,-34.56726,0.039218426,-0.16258547,9.805223,-0.00021622702,-0.0025176853,-0.0016489029,1.5258789e-05,1.5258789e-05,0.00018310547
2019-07-01T19:01:00.888Z,-0.007981346,-0.0027637077,0.090200506,0.059814453,-0.119644165,9.59761,3.1097412,14.076233,-32.829285,0.03986249,-0.16078617,9.805251,0.00010304153,0.0033195764,-0.0009365082,7.6293945e-05,-0.00030517578,-7.6293945e-05
2019-07-01T19:01:01.096Z,-0.008034601,-0.0028036917,0.090290986,0.04547119,-0.17468262,9.791428,1.9470215,14.712524,-30.763245,0.04053453,-0.16190071,9.80523,0.0001504086,-0.002273336,-0.0011014938,1.5258789e-05,-0.00030517578,-0.00019836426
2019-07-01T19:01:01.290Z,-0.008097491,-0.0027682174,0.090231135,0.021530151,-0.1268158,9.860825,2.5878906,14.683533,-30.871582,0.039740033,-0.16306384,9.805214,-0.00027690828,-0.0016981512,0.015534401,-0.00022888184,0.00032043457,0.00018310547
2019-07-01T19:01:01.487Z,-0.007944294,-0.0028165022,0.09030005,0.04547119,-0.18664551,9.789032,2.6107788,15.34729,-31.643677,0.040943258,-0.16015998,9.805257,0.00021540746,0.004360661,-0.015803337,0.00044250488,-0.0005493164,-7.6293945e-05
2019-07-01T19:01:01.701Z,-0.008018499,-0.0028392624,0.09035971,0.007171631,-0.15792847,10.080963,2.1255493,15.086365,-30.316162,0.041246675,-0.16165206,9.805231,0.0011207312,-0.0032544434,-0.0016069412,7.6293945e-05,0.0001373291,-0.0001373291
2019-07-01T19:01:01.898Z,-0.008053908,-0.0028403439,0.090368465,0.023925781,-0.17706299,9.918243,2.0492554,15.306091,-31.25,0.041203603,-0.1623459,9.80522,-0.0002979897,-0.001307264,0.005785942,-4.5776367e-05,-6.1035156e-05,-1.5258789e-05
2019-07-01T19:01:02.088Z,-0.008193999,-0.002614919,0.08993984,0.0047912598,-0.18424988,10.04985,2.3544312,14.962769,-31.408691,0.03662308,-0.1646668,9.805199,-0.0075432174,-0.004256025,0.05746174,-0.00035095215,0.00036621094,-0.0001373291
2019-07-01T19:01:02.302Z,-0.008084855,-0.0028508971,0.090395495,-0.04547119,-0.27038574,10.569092,2.6809692,15.133667,-31.614685,0.041350443,-0.16297016,9.805209,0.007746935,0.0044095665,-0.0781374,7.6293945e-05,-0.00036621094,0.00012207031
2019-07-01T19:01:02.502Z,-0.008135778,-0.0029498683,0.09060453,0.04307556,-0.15553284,9.693329,0.33569336,14.831543,-31.80542,0.043158792,-0.16414921,9.805181,-0.0010317303,-0.00052656233,0.013325691,-0.0005340576,-0.0012207031,-0.00012207031
2019-07-01T19:01:02.704Z,-0.008171464,-0.0029036847,0.09051805,0.009567261,-0.16270447,10.033112,2.670288,14.91394,-31.809998,0.042207625,-0.16476047,9.805175,-0.0059244446,-0.00093488395,0.04941368,-0.000289917,-0.0010986328,-1.5258789e-05
2019-07-01T19:01:02.911Z,-0.008117347,-0.0030436674,0.09079021,-0.01914978,-0.15792847,10.552353,1.4022827,15.112305,-30.657959,0.044993047,-0.16396429,9.805177,0.0060098507,0.0023095459,-0.060372353,7.6293945e-05,0.00018310547,-6.1035156e-05
2019-07-01T19:01:03.112Z,-0.008095687,-0.0030570629,0.09081317,0.033493042,-0.17228699,10.887344,3.0975342,15.22522,-30.630493,0.045289483,-0.16356616,9.8051815,-0.0005139597,0.00095783174,0.0009021759,-4.5776367e-05,-0.000289917,6.1035156e-05
2019-07-01T19:01:03.309Z,-0.007970649,-0.003109574,0.09089563,0.055038452,-0.12921143,9.506683,3.40271,14.955139,-30.924988,0.046524517,-0.16122147,9.805214,-0.00024871156,0.0043714195,-0.027312279,0.00019836426,-0.0006713867,-1.5258789e-05
2019-07-01T19:01:03.562Z,-0.008196735,-0.0029761372,0.09066887,0.050247192,-0.15074158,9.789032,1.9805908,13.847351,-31.77185,0.04355284,-0.16538924,9.80516,-0.0024137422,-0.0075622797,0.049432755,-0.0004119873,0.0008544922,-7.6293945e-05
2019-07-01T19:01:03.733Z,-0.008062571,-0.0030989589,0.090891436,0.062210083,-0.122039795,9.609573,1.8997192,15.432739,-30.162048,0.04615396,-0.16299763,9.805187,0.0044033043,0.0045921803,-0.034207344,0.00019836426,-0.00016784668,0.00010681152
2019-07-01T19:01:03.927Z,-0.0080984095,-0.0030378976,0.09077504,0.0765686,-0.13877869,9.073578,0.94451904,15.666199,-30.604553,0.044916578,-0.16358349,9.805183,-0.002564948,-0.0019802302,0.030955315,7.6293945e-05,-6.1035156e-05,-1.5258789e-05
2019-07-01T19:01:04.131Z,-0.008140816,-0.0030680043,0.09084366,0.057434082,-0.1531372,9.722046,1.411438,15.486145,-31.715393,0.04541774,-0.1644684,9.805165,0.0009942912,-0.0018183142,-0.000746727,1.5258789e-05,0.0,-7.6293945e-05
2019-07-01T19:01:04.329Z,-0.008030051,-0.0031905232,0.09106991,0.071777344,-0.14596558,9.650253,2.4642944,15.626526,-31.430054,0.047971174,-0.16253428,9.805185,0.0025967695,0.0053075403,-0.033499718,-0.00022888184,-0.00061035156,6.1035156e-05
2019-07-01T19:01:04.530Z,-0.008076114,-0.0030974676,0.09089096,0.047851562,-0.14596558,9.793823,2.3773193,15.400696,-31.169128,0.046100758,-0.16325942,9.805182,-0.002107542,-0.0024573058,0.043377876,7.6293945e-05,0.00036621094,0.00030517578
2019-07-01T19:01:04.730Z,-0.008056636,-0.0030222994,0.09073579,0.055038452,-0.15553284,9.805786,2.1606445,15.888977,-30.305481,0.04469273,-0.1627381,9.805199,-0.00066908076,-0.00016237795,-0.0032730103,0.00019836426,-0.00010681152,0.0004272461
2019-07-01T19:01:04.931Z,-0.008062781,-0.0031025829,0.09089878,0.047851562,-0.1603241,9.800995,1.8081665,15.367126,-31.530762,0.046223164,-0.16300851,9.805186,0.0028200075,0.00010870397,6.0081482e-05,-0.00016784668,-6.1035156e-05,-7.6293945e-05
2019-07-01T19:01:05.145Z,-0.008075395,-0.0030819166,0.09085948,0.047851562,-0.16270447,9.810577,1.385498,14.9002075,-31.607056,0.045803472,-0.1632162,9.805184,-0.0008295439,-0.0009058416,-0.002038002,0.0001373291,0.0,0.00030517578
2019-07-01T19:01:05.341Z,-0.00811169,-0.0031084015,0.090919666,0.047851562,-0.16270447,9.796219,2.1240234,15.164185,-31.056213,0.046246152,-0.16397507,9.805171,0.0011234246,-0.0018104166,-7.915497e-05,7.6293945e-05,6.1035156e-05,4.5776367e-05
2019-07-01T19:01:05.549Z,-0.008776938,-0.004205549,0.08927782,0.050247192,-0.119644165,9.6957245,1.9348145,14.572144,-31.472778,0.06678269,-0.17881317,9.804792,-0.03345403,-0.022823706,0.18776512,-0.002670288,-0.01965332,-0.00048828125
2019-07-01T19:01:05.748Z,-0.009268427,-0.00433656,0.08937512,-0.110076904,-0.5479584,13.998016,2.5543213,15.698242,-30.587769,0.068462394,-0.18864912,9.804596,0.027430974,0.048724636,-0.34469032,-0.0062713623,-6.1035156e-05,-0.00019836426
2019-07-01T19:01:05.953Z,-0.009234326,-0.0049940716,0.08953636,0.026321411,-0.39242554,9.848862,1.7349243,15.197754,-29.598999,0.08133497,-0.18914826,9.804489,0.009194553,0.0032779872,-0.0054740906,-0.00035095215,-0.0064697266,-0.00044250488
2019-07-01T19:01:06.157Z,-0.009234505,-0.004940677,0.0867028,-0.5694885,-0.2679901,6.7286224,1.2817383,14.228821,-30.607605,0.080829196,-0.18882884,9.804499,0.0102253035,0.01218237,-0.11044502,-0.00010681152,0.0005645752,-1.5258789e-05
2019-07-01T19:01:06.360Z,-0.009147701,-0.0051318174,0.08287945,0.22253418,-0.035888672,11.313263,1.7974854,15.06958,-31.063843,0.085430086,-0.1871314,9.804492,0.01016134,0.003005579,-0.051053047,0.0008087158,-0.0020599365,-0.0014190674
2019-07-01T19:01:06.555Z,-0.008665729,-0.005340136,0.081689686,0.011962891,-0.0382843,9.78186,2.1331787,15.383911,-31.011963,0.09049793,-0.17794266,9.804619,0.0068499967,0.01865308,-0.077269554,0.00032043457,-0.0006713867,-0.0001373291
2019-07-01T19:01:06.771Z,-0.008779968,-0.005477377,0.08187947,0.25602722,0.04307556,10.308273,2.3452759,14.668274,-31.089783,0.09296296,-0.18041293,9.804549,0.006147407,-0.0053688884,-0.070988655,0.00044250488,0.00048828125,-0.00018310547
2019-07-01T19:01:06.963Z,-0.008360274,-0.00554453,0.08328262,0.0143585205,0.35414124,5.46521,1.4389038,15.914917,-30.496216,0.0947072,-0.17245135,9.804677,0.002610974,0.015871584,0.027173996,-0.00010681152,-0.00030517578,0.0005340576
2019-07-01T19:01:07.167Z,-0.008884853,-0.0054763686,0.07955892,0.17706299,-0.18424988,10.736603,0.88500977,16.25061,-31.086731,0.093199275,-0.18224476,9.804513,-0.0019377843,-0.020395488,0.012535095,0.0001373291,0.0002593994,-0.00062561035
2019-07-01T19:01:07.371Z,-0.008841211,-0.0055679036,0.074010774,0.088531494,-0.36131287,11.140976,1.4068604,15.336609,-31.21643,0.096065626,-0.1810026,9.804509,0.0047926307,0.0034568608,-0.0037603378,-0.00022888184,-0.00024414062,0.0004272461
2019-07-01T19:01:07.576Z,-0.008811812,-0.0054482645,0.07166124,0.047851562,-0.18664551,8.834305,0.8956909,16.46576,-30.891418,0.09419284,-0.18003267,9.804544,-0.0027770028,0.00076656044,0.022215843,0.00019836426,0.00019836426,-7.6293945e-05
2019-07-01T19:01:07.777Z,-0.00882177,-0.0056009246,0.06725992,0.088531494,0.25125122,3.9385834,1.2557983,15.46936,-30.807495,0.097960256,-0.1800114,9.804508,0.0077901706,0.002231136,-0.04596424,-0.00035095215,0.00018310547,-0.00012207031
2019-07-01T19:01:07.976Z,-0.008719423,-0.005663838,0.065429546,0.13877869,-0.16989136,9.497116,2.6657104,14.767456,-31.687927,0.09965295,-0.17790928,9.80453,0.0015436336,0.0021276027,-0.04373741,0.00074768066,-0.00036621094,0.00016784668
2019-07-01T19:01:08.182Z,-0.008653899,-0.0056819264,0.07028328,0.2368927,-0.1603241,11.889938,2.3132324,15.6814575,-30.430603,0.09923047,-0.17713512,9.804548,-0.0019263625,0.0011565089,0.05747032,-0.00016784668,-0.0004272461,-7.6293945e-05
2019-07-01T19:01:08.382Z,-0.008772056,-0.0056107203,0.07221672,0.08375549,-0.20817566,9.973282,3.0532837,16.023254,-30.39093,0.097326614,-0.17953745,9.804523,-0.0029532537,-0.0020593256,0.012805939,-0.00077819824,0.00019836426,-0.00050354004
2019-07-01T19:01:08.604Z,-0.008671253,-0.0056836554,0.07705735,0.39720154,0.13160706,11.03331,3.0410767,15.881348,-31.02417,0.09803248,-0.17814702,9.804542,0.00073669106,0.002115026,-0.01875019,0.0002593994,-0.00012207031,-0.0002593994
2019-07-01T19:01:08.789Z,-0.008526414,-0.0056349984,0.081050955,0.095718384,-0.22492981,9.942184,1.03302,14.373779,-32.382202,0.09659727,-0.17562997,9.804602,-0.0026262552,0.0029952526,0.004719734,0.00050354004,6.1035156e-05,-0.00050354004
2019-07-01T19:01:09.008Z,-0.008649284,-0.0056779757,0.07728196,0.102890015,-0.33738708,12.756134,1.7852783,15.083313,-32.87201,0.097914614,-0.17773096,9.80455,0.0025574043,-0.0040826946,-0.009610176,1.5258789e-05,0.0,0.00022888184
2019-07-01T19:01:09.197Z,-0.008617642,-0.0056552268,0.077230684,0.10194397,-0.16893005,9.70816,1.3198853,15.263367,-31.758118,0.09752691,-0.17707282,9.804566,0.00024742633,0.0049592853,0.014823914,-0.0010223389,0.00024414062,-0.00093078613
2019-07-01T19:01:09.398Z,-0.008670578,-0.0056385603,0.0772055,0.09307861,-0.17539978,9.661499,1.7181396,15.216064,-32.011414,0.0971253,-0.17808016,9.804553,-0.00024092942,-0.002051264,-0.014362335,7.6293945e-05,0.00018310547,-1.5258789e-05
2019-07-01T19:01:09.603Z,-0.00860201,-0.00563053,0.07717807,0.10696411,-0.17922974,9.927826,1.6784668,14.187622,-31.159973,0.09707703,-0.17672467,9.804577,0.000461407,-0.00089655817,0.012732506,0.000869751,0.00012207031,-0.0005645752
2019-07-01T19:01:09.810Z,-0.008554311,-0.0056980904,0.07730727,0.12705994,-0.16415405,9.8845215,1.8234253,15.5807495,-30.88379,0.098447494,-0.17590699,9.804578,0.0025441423,0.0014524758,-0.019428253,0.0001373291,0.0,-6.1035156e-05
2019-07-01T19:01:10.007Z,-0.008522041,-0.0057668653,0.07744142,0.067474365,-0.19477844,9.753143,2.3910522,15.689087,-30.809021,0.099817604,-0.1753937,9.804573,0.00072657317,-9.357929e-05,-0.008009911,0.00032043457,-0.00048828125,-0.00074768066
2019-07-01T19:01:10.207Z,-0.008621155,-0.005705197,0.07733256,0.10575867,-0.17347717,9.789749,1.3290405,15.254211,-30.552673,0.09848054,-0.17722721,9.804554,-0.0032572225,-0.0048589557,0.011084557,0.0002593994,-0.00018310547,0.00010681152
2019-07-01T19:01:10.416Z,-0.0057633515,0.00023515434,0.07812862,-0.60443115,0.16821289,9.941696,11.103821,14.221191,-29.804993,-0.013429507,-0.112330586,9.805997,-0.078925975,0.17866468,0.07199955,0.02885437,0.055725098,0.014465332
2019-07-01T19:01:10.612Z,-0.009667626,0.121201806,0.16616702,-2.880005,0.17562866,9.410019,18.023682,12.11853,-28.401184,-2.3577394,0.20945564,9.5167,1.0348482,-0.24444978,0.2274046,0.11621094,1.257721,0.46717834
2019-07-01T19:01:10.957Z,-0.016663186,0.19524856,0.25267142,-4.897873,0.40844727,10.039322,22.068787,15.788269,-25.404358,-3.711002,0.6579351,9.053506,0.40254426,-0.1959582,0.4485073,-0.008224487,0.79071045,0.7584381
2019-07-01T19:01:11.017Z,-0.099043645,0.14442213,0.1976203,-3.8538818,-0.9942169,8.126511,12.931824,19.372559,-20.448303,-3.1159565,-1.3138518,9.205161,-2.6274948,1.407076,0.38110447,-0.9025879,-0.3613739,-0.65211487
2019-07-01T19:01:11.286Z,-0.35272256,0.109390855,-0.07232366,-0.7877197,-6.6522827,7.343094,2.0935059,25.43335,-20.658875,-1.4874668,-6.5647016,7.131797,-0.3552481,1.5434752,1.6920109,-1.5796814,0.84391785,-1.6995697
2019-07-01T19:01:11.605Z,-0.40009627,0.058534272,-0.19509967,0.045700073,-7.763031,5.826294,-5.0964355,31.872559,-19.732666,0.5051466,-7.2358623,6.5998106,-0.69742274,-0.040645123,-0.35104132,-0.37419128,-0.17903137,-1.2978668
2019-07-01T19:01:11.810Z,-0.4235574,0.07275299,-0.35031053,1.6984253,-6.7793427,6.982727,-12.809753,32.62329,-22.584534,1.7226399,-7.4134097,6.184194,-1.3083038,-0.1450305,0.06242037,-0.39546204,0.5609131,-1.3737335
2019-07-01T19:01:12.015Z,-0.4320111,0.10386022,-0.49523002,4.8095703,-6.150757,6.21727,-17.16919,34.535217,-24.88556,2.6754255,-7.334387,5.934582,0.40731502,0.6965432,0.8443327,-0.46759033,0.8865051,-1.3560791
2019-07-01T19:01:12.220Z,-0.44330052,0.07359348,-0.53745764,4.4140472,-6.7367554,5.5860443,-19.714355,32.963562,-22.457886,3.6429706,-6.9801254,5.8461103,1.5137291,0.9422741,0.23778057,-0.061309814,0.0025787354,-0.6282959
2019-07-01T19:01:12.424Z,-0.45611712,0.05945559,-0.52735513,3.604309,-7.2880554,5.421417,-24.546814,32.406616,-20.109558,3.8846624,-7.005651,5.656912,-0.014431953,0.043474674,-0.28705692,-0.017990112,-0.20652771,-0.0036773682
2019-07-01T19:01:12.630Z,-0.4637759,0.05787267,-0.52659726,3.945053,-7.475418,5.2132416,-23.742676,32.235718,-19.270325,3.9839926,-7.057024,5.522373,-0.2500434,-0.45272875,-0.24999905,-0.052505493,-0.06010437,-0.034713745
2019-07-01T19:01:12.834Z,-0.44389388,0.023334462,-0.54467297,4.6918488,-6.0433197,5.83107,-24.94049,32.2937,-18.45398,4.416572,-6.440775,5.931331,-0.25228977,-0.73736906,-0.5669718,0.38639832,-0.08532715,-0.26542664
2019-07-01T19:01:13.041Z,-0.44012654,-0.00011543363,-0.54467803,5.2297516,-6.189041,5.69133,-27.174377,29.464722,-20.600891,4.703459,-6.161155,6.0073304,0.20870733,0.24916124,-0.028393745,0.15066528,-0.124176025,-0.103012085
2019-07-01T19:01:13.099Z,-0.43493626,-0.0043253833,-0.51485324,5.6827087,-6.871704,6.310837,-26.042175,29.84314,-21.852112,4.454645,-6.2581763,6.096044,1.1989069,-0.0665946,-0.6194272,0.1481018,-0.05821228,0.30773926
2019-07-01T19:01:13.305Z,-0.3731163,-0.030052233,-0.45022333,4.8708344,-6.4036713,7.0734253,-23.970032,29.93164,-25.016785,3.7725792,-5.667119,7.058456,1.6832044,-0.67668533,-0.116900444,0.9125366,-0.08874512,0.7329712
2019-07-01T19:01:13.502Z,-0.3139856,-0.2090252,-0.3387646,4.1819305,-4.0405273,7.076294,-27.366638,27.89154,-26.121521,5.619931,-3.9193246,7.0160995,-1.3214521,-2.6640532,-0.26859283,1.7461243,-1.8008881,0.6724243
2019-07-01T19:01:13.707Z,-0.21452928,-0.15288366,-0.41067547,3.430832,-1.9814911,9.538986,-28.32489,21.902466,-32.66449,4.3453975,-2.4413931,8.44556,-0.21011257,0.13642597,-0.15290833,0.53404236,1.0748291,-0.701355
2019-07-01T19:01:13.907Z,-0.21201125,-0.05271135,-0.40372804,3.9144135,-0.9667053,8.208572,-21.69342,25.442505,-37.652588,2.5972776,-3.2768404,8.870562,0.7321751,1.5136893,0.3236189,-0.568573,1.0586395,-0.07337952
2019-07-01T19:01:14.102Z,-0.20705885,-0.01030056,-0.22094926,2.0360565,-1.9266968,8.648621,-12.31842,31.362915,-34.79309,1.0898306,-3.8255825,8.963681,2.620965,2.6615322,-0.8074646,-0.1164093,0.35186768,1.4161682
2019-07-01T19:01:14.312Z,-0.17492013,0.019156849,0.007812405,-2.839325,-1.7802582,9.605515,2.243042,31.460571,-35.369873,-0.39665708,-3.3741863,9.199343,0.48915252,1.3993645,0.29415035,0.2747345,0.03691101,1.9835358
2019-07-01T19:01:14.515Z,-0.13553159,-0.0020347533,0.11411301,-3.0439148,-3.3772278,10.126663,-0.012207031,25.917053,-35.273743,-0.26406088,-2.6207159,9.446296,-4.8013606,-0.6991005,0.21749306,0.37417603,-0.6466522,1.351654
2019-07-01T19:01:14.757Z,-0.12081805,-0.017193269,0.017370556,-0.15673828,-5.1560516,11.021576,5.531311,17.048645,-38.212585,-0.46411547,0.7150347,9.76953,-0.14671889,-5.712349,0.748683,0.13642883,-0.11099243,-0.809845
2019-07-01T19:01:14.954Z,0.062179793,0.010555955,0.46085817,0.14883423,-1.1787109,7.5914764,13.465881,5.859375,-40.740967,0.37876457,1.1749977,9.728633,-1.7906322,-2.1683645,-2.2903547,0.2659912,-0.09889221,2.9123688
2019-07-01T19:01:15.173Z,0.05309679,0.052755866,0.75888944,3.5538177,-0.8035126,9.237976,21.488953,-5.9387207,-39.16931,0.1209479,1.4589232,9.696768,1.0672603,-3.104409,-0.9676981,0.32763672,0.6058655,3.1105347
2019-07-01T19:01:15.372Z,0.015036785,-0.039066713,0.827652,3.1999207,1.3462067,9.839767,17.622375,-5.899048,-39.982605,0.67293274,-0.46910852,9.772282,3.1099186,0.48466358,0.09685707,-0.9840851,-0.072631836,1.4011383
2019-07-01T19:01:15.575Z,0.0381307,-0.09421284,0.82258636,3.0762177,0.9056854,11.015121,14.974976,-3.8085938,-40.58075,1.6490139,-1.101575,9.604044,1.0817001,2.880501,0.1946249,-0.38861084,-0.50382996,0.29222107
2019-07-01T19:01:15.774Z,0.012954112,-0.11720318,0.79135853,2.2992706,0.7283783,9.939545,14.404297,-0.5783081,-38.91754,1.580015,-1.666717,9.533939,1.4030032,2.3090267,1.9205322,-0.40112305,0.09420776,-0.14112854
2019-07-01T19:01:16.013Z,0.010098202,-0.09970499,0.77711266,3.4585876,-1.4799652,9.504776,14.816284,-0.40893555,-38.598633,1.3689551,-1.3966174,9.609672,1.5939355,1.3565202,-0.3344288,0.08584595,0.18235779,-0.13685608
2019-07-01T19:01:16.195Z,0.009279549,-0.095575824,0.7283004,3.098465,-2.3074036,9.137482,16.479492,2.3880005,-37.417603,1.4044335,-1.2417527,9.625799,1.9259483,-0.39324868,-0.10416031,-0.0070648193,0.13128662,-0.72151184
2019-07-01T19:01:16.418Z,-0.021383535,-0.12567005,0.6867632,1.5541382,-2.8204193,9.481323,15.362549,7.7682495,-35.3714,1.4758233,-1.9928674,9.487929,0.91314054,-0.93062127,-0.14365864,-0.44633484,0.06347656,-0.4915161
2019-07-01T19:01:16.611Z,-0.022808306,-0.14091578,0.6662605,1.7314453,-2.2133636,9.494247,13.499451,9.3185425,-35.131836,1.7248726,-2.1688519,9.4069805,-0.16856122,-0.55858326,0.42598534,-0.12637329,-0.08215332,-0.26727295
2019-07-01T19:01:16.812Z,-0.031026717,-0.14228943,0.6277099,1.9767151,-2.092041,9.781616,12.730408,11.8133545,-34.36432,1.7521235,-2.217141,9.390673,0.3795482,0.22873974,0.039881706,-0.11439514,0.09829712,-0.43580627
2019-07-01T19:01:17.014Z,-0.039221,-0.15196282,0.5684978,1.8711853,-1.7639923,9.463379,11.59668,15.310669,-34.587097,1.9696558,-2.3156338,9.323555,-0.31110644,0.45249295,0.5373144,-0.19038391,0.019317627,-0.61112976
2019-07-01T19:01:17.232Z,-0.058690686,-0.18131736,0.5076088,2.5677338,-2.0358124,9.272903,8.981323,17.75055,-33.000183,2.4037907,-2.7723966,9.094284,-0.28961158,1.006346,-0.11161423,-0.4033966,-0.09706116,-0.53604126
2019-07-01T19:01:17.440Z,-0.022612438,-0.22586885,0.4312547,3.3423004,-2.358841,8.523956,2.432251,17.628479,-36.23047,3.6770754,-2.2977445,8.796016,-0.6743872,0.05499339,0.3419237,-0.0345459,-0.48605347,-0.8957825
2019-07-01T19:01:17.647Z,-0.0742211,-0.26728478,0.37844226,3.5772705,-3.9795074,8.589523,-1.6830444,23.884583,-31.843567,4.0785003,-3.2694407,8.297408,-0.4673543,0.34967256,0.8841286,-0.77944946,-0.13615417,-0.401474
2019-07-01T19:01:17.854Z,-0.023135558,-0.38306364,0.20793842,6.818344,0.49842834,7.2638855,-18.025208,22.683716,-26.585388,6.6653385,-1.9705303,6.9181404,-2.4099374,-1.9593617,0.59830856,-0.37852478,-1.1398621,-1.8607788
2019-07-01T19:01:18.050Z,-0.22816338,-0.3942684,0.0158143,6.1136627,-3.201355,4.602356,-22.970581,25.561523,-16.810608,6.81214,-4.105435,5.736771,0.5080404,2.3589492,0.8184056,-2.745346,0.27416992,-0.84332275
2019-07-01T19:01:18.256Z,-0.107176475,-0.34360972,-0.07469102,6.0174713,-3.6511993,6.374237,-24.731445,27.40326,-15.609741,6.4244547,-1.4515342,7.26566,0.14648151,3.4453697,-1.0132766,0.70080566,0.9177246,-1.1381226
2019-07-01T19:01:18.459Z,-0.13611813,-0.41308665,-0.16966604,6.661865,-2.013565,5.6161957,-26.985168,26.333618,-9.844971,7.6178203,-0.98629344,6.096427,-1.3640289,-3.0508935,-0.84319496,-0.407547,-0.7859955,-0.86738586
2019-07-01T19:01:18.664Z,-0.33115146,-0.38592577,-0.2789264,4.820587,0.2172699,0.8542328,-35.04944,16.60614,-9.152222,7.9776783,-3.1796408,4.734651,-2.6974773,-4.7795897,-1.2932901,-2.1210938,-0.35331726,-0.22071838
2019-07-01T19:01:18.896Z,-0.58942187,0.17462973,-0.6727194,1.7608795,-16.085754,5.9186554,-30.432129,29.031372,7.458496,6.366721,-7.0641026,2.3945158,-1.3776364,2.1308975,0.09616494,-7.84111,4.010559,-1.7920685
2019-07-01T19:01:19.116Z,-0.39787018,-0.21343058,-0.71018344,4.9830627,-11.151993,4.533676,-42.364502,-8.128357,-3.4683228,7.803154,-1.2423772,5.8084145,2.6800764,3.5061781,-4.2974052,-6.7951202,1.5648804,-0.16000366
2019-07-01T19:01:19.312Z,-0.4260252,0.2786274,-0.84602803,9.420303,-6.484314,1.7805023,-37.698364,16.036987,-5.4611206,6.2033186,-5.947333,4.724242,3.69291,-7.855343,3.601366,-6.6249237,2.7519836,-2.276657
2019-07-01T19:01:19.512Z,-0.5148791,-0.75539446,-0.07044415,3.8251648,-3.259262,-3.8804474,-40.989685,-2.8762817,-1.171875,6.6250153,-2.9870672,-6.5846024,4.0491314,2.8044066,0.21114254,14.812286,1.3976746,-0.5654297
2019-07-01T19:01:19.738Z,0.38222864,-0.6489715,0.56897306,5.803787,-7.7024994,-2.235855,-35.572815,2.3147583,24.430847,8.467914,-4.7670126,-1.3192452,-15.648361,-3.0799809,2.9995332,-15.520416,3.2961426,2.4693756
2019-07-01T19:01:19.932Z,0.66501564,-0.3054658,0.6597222,4.66098,-8.881439,-8.261215,-37.719727,16.348267,10.762024,9.628833,-1.7232722,-0.6973541,-15.067114,-3.0989606,-4.153331,4.4382477,-0.7976074,-2.0680542
2019-07-01T19:01:20.137Z,0.49451455,-0.4083045,0.65624803,7.1313324,-10.73349,-0.65252686,-38.1073,14.500427,4.0756226,9.549005,-1.3990723,1.7405387,-13.767897,-6.2722554,-4.6338167,-2.6695404,1.5510101,-0.4960327
2019-07-01T19:01:20.341Z,0.5752254,-0.24730349,0.678499,7.3538666,-11.471909,1.9606781,-37.924194,12.216187,-0.62561035,9.518324,1.0433521,2.117388,-12.677664,-11.83128,-6.6706433,1.6019745,0.2959137,-1.0488739
2019-07-01T19:01:20.545Z,0.6547156,-0.025456917,0.69290674,6.8085327,-11.376434,2.7962494,-38.320923,14.0060425,0.21057129,9.047977,3.5187635,1.3866496,-10.627861,-16.805424,-3.313041,2.4199219,0.26934814,-1.0256653
2019-07-01T19:01:20.837Z,0.6958185,0.115292154,0.671753,6.682434,-10.967026,3.1872406,-40.420532,11.140442,-5.2703857,8.655488,4.60982,0.049902756,-8.879924,-19.160286,1.4971429,1.6378326,-0.005554199,-0.66555786
2019-07-01T19:01:21.024Z,0.69515395,0.16825466,0.633793,7.4553223,-9.924469,0.8286438,-40.67993,10.072327,-1.4755249,7.6692867,6.1074643,-0.2265064,-6.224762,-21.599503,2.7407417,-0.046279907,-0.2803192,-1.1169891
2019-07-01T19:01:21.213Z,0.6555169,0.18965371,0.6233566,7.384247,-8.576599,3.1566162,-40.447998,10.0997925,-2.9144287,6.5942836,7.2272034,0.67330617,-3.172659,-22.025621,1.4613781,-0.5507355,0.05206299,-1.0080719
2019-07-01T19:01:21.416Z,0.6045471,0.17495443,0.5830422,7.5184937,-8.1064,4.0943604,-41.43982,9.217834,-1.2420654,5.1502056,8.09271,2.0380921,0.062024593,-21.796284,1.6533089,-1.126297,-0.4758606,-0.8172302
2019-07-01T19:01:21.614Z,0.60446846,0.1596052,0.49951705,8.603394,-7.380188,1.3196411,-41.337585,6.628418,-4.6417236,4.0448284,8.673366,2.140675,3.07436,-19.473469,1.999562,0.9533539,-0.16822815,-0.47532654
2019-07-01T19:01:21.812Z,0.68267334,0.25944188,0.41414955,7.8723907,-8.275574,4.0663605,-41.000366,4.2099,-9.753418,2.7808807,9.38132,-0.6541613,4.4732876,-20.977741,5.629584,1.6036835,-0.12992859,-0.930603
2019-07-01T19:01:22.006Z,0.7221464,0.35592625,0.34809208,7.6254425,-7.573532,7.425171,-40.330505,4.7592163,-8.992004,1.5775971,9.232286,-2.906278,6.484865,-18.088993,6.040251,1.263916,0.21199036,-0.90452576
2019-07-01T19:01:22.205Z,0.74630183,0.47152495,0.32408643,8.618713,-6.52092,6.8403625,-40.975952,1.3015747,-10.574341,1.598527,7.97535,-5.478038,6.431068,-13.866372,10.976048,1.6656799,0.9216919,-0.6876068
2019-07-01T19:01:22.408Z,0.73958105,0.48572007,0.33685023,8.516052,-5.510666,5.6815186,-40.020752,1.3031006,-11.895752,1.8194973,7.8785744,-5.548683,6.088421,-12.24308,10.456983,0.1639862,0.26641846,-0.33311462
2019-07-01T19:01:22.610Z,0.70579946,0.46336284,0.35304254,8.549789,-5.8530884,4.5829773,-40.80658,2.8244019,-7.9299927,1.2236357,8.788843,-4.174849,7.516729,-13.611436,7.208763,-0.83680725,-0.23913574,-0.53060913
2019-07-01T19:01:22.810Z,0.6736122,0.44466043,0.35965356,7.932678,-4.6047516,4.384369,-40.8432,2.3254395,-9.690857,0.66871756,9.321837,-2.9709485,7.423728,-12.412769,8.032588,-0.56637573,-0.14103699,-0.5238342
2019-07-01T19:01:23.011Z,0.6265927,0.39785343,0.34411278,8.478485,-4.7243958,5.6982727,-42.71393,-0.289917,-7.9589844,-0.25823647,9.752274,-0.9984305,8.622951,-12.645479,6.2512774,-0.88365173,-0.47677612,-0.66433716
2019-07-01T19:01:23.210Z,0.5649967,0.332047,0.33225325,7.9089966,-4.3463287,4.956009,-40.631104,0.091552734,-11.061096,-0.7357997,9.68069,1.3831985,8.559819,-11.233341,5.9764533,-0.9487152,-0.3040161,-0.51968384
2019-07-01T19:01:23.409Z,0.52353704,0.27061638,0.31074825,8.765625,-4.2180634,3.674652,-40.249634,-0.47149658,-10.664368,-0.7672363,9.30671,2.9944754,9.315881,-10.604965,5.557946,-0.5136566,-0.095947266,-0.37576294
2019-07-01T19:01:23.609Z,0.5580895,0.24170995,0.24819824,8.017151,-4.729889,5.107483,-40.122986,-1.0360718,-12.06665,-0.8577195,9.429864,2.5519342,8.625911,-10.371237,4.2977843,0.5259247,0.0897522,-0.36140442
2019-07-01T19:01:23.811Z,0.57842165,0.1595522,0.16148366,8.295685,-4.4781647,7.186844,-40.478516,0.18463135,-12.710571,-0.61989355,9.394117,2.7453027,8.620023,-9.858959,3.7935734,0.22756958,-0.24983215,-0.30776978
2019-07-01T19:01:24.009Z,0.6968889,0.15315871,0.09960461,8.099945,-3.9926605,6.545334,-38.398743,-0.03967285,-12.992859,-0.7218669,9.778412,-0.17871098,8.321912,-8.56998,5.4048505,1.7330017,0.6665344,-0.3763733
2019-07-01T19:01:24.211Z,0.61258775,0.07112611,-0.0064611165,7.9791107,-4.2015533,6.30365,-38.81836,1.0864258,-11.31134,-1.1757447,9.448722,2.3472676,8.738615,-9.457838,4.513504,-0.9182434,-0.1968689,-0.6771698
2019-07-01T19:01:24.453Z,0.7169437,0.05403213,-0.028583767,8.1102295,-4.2877045,6.36586,-40.156555,-0.019836426,-11.557007,-1.1378725,9.734753,-0.33200863,8.510699,-7.3935,6.407224,1.609726,1.0832062,-0.36128235
2019-07-01T19:01:24.725Z,0.75703454,-0.015041584,-0.0451122,8.444031,-5.0574646,7.0164795,-40.115356,1.083374,-12.391663,-0.47757927,9.688855,-1.438195,8.174056,-7.678154,5.316871,0.7903137,0.52194214,-0.2523651
2019-07-01T19:01:24.891Z,0.6823656,-0.10547428,-0.116006054,8.083191,-5.527176,5.873657,-40.59601,0.97351074,-11.790466,-0.075510696,9.79575,0.4560565,8.258323,-8.322083,5.425663,-0.516037,-0.113861084,-0.42951965
2019-07-01T19:01:25.111Z,0.53089166,-0.21707708,-0.22631378,8.005661,-4.1812134,5.1026917,-40.71045,1.7532349,-10.041809,0.99543136,9.161161,3.3544946,7.9797187,-7.081817,5.6376534,-0.8255005,-0.51116943,-0.28645325
2019-07-01T19:01:25.308Z,0.33807075,-0.29560038,-0.358058,7.0540466,-1.8362579,5.355377,-39.575195,-2.7252197,-14.8498535,2.371888,7.503859,5.851208,6.5305123,-3.249435,4.6670847,-1.0956879,-0.76065063,-0.26690674
2019-07-01T19:01:25.510Z,0.40384537,-0.3300645,-0.27902126,7.8544464,-2.2908936,6.3065186,-39.146423,-2.116394,-14.668274,3.0096269,8.192749,4.471172,5.970302,-3.5509236,5.270664,1.6311646,0.8268738,0.18740845
2019-07-01T19:01:25.717Z,0.2812821,-0.36501518,-0.3179791,6.6051483,-0.44314575,7.0573883,-36.72638,-1.5731812,-16.847229,4.177633,6.8475924,5.6416545,5.679966,-3.1299455,5.952528,-0.28933716,-0.09423828,0.16467285
2019-07-01T19:01:25.914Z,0.20291145,-0.38210112,-0.3545228,6.7616425,-1.1155396,6.9308167,-37.88452,-2.305603,-16.947937,4.801368,5.955867,6.1355443,5.097647,-2.945655,4.777652,0.00289917,0.024993896,0.029434204
2019-07-01T19:01:26.142Z,0.030649472,-0.3494909,-0.33070412,6.435257,-1.351471,6.518051,-32.250977,23.355103,-6.365967,4.1554494,-4.296186,7.774665,3.23915,-3.5819721,1.9999232,-1.1454773,0.13153076,0.9203186
2019-07-01T19:01:26.342Z,0.22736219,-0.2944059,-0.59716785,2.0810394,-6.4785614,5.6891785,-20.29419,-21.479797,-25.802612,1.4405166,6.6172233,7.092789,1.5248177,-1.5928514,6.636221,6.437439,1.3178406,-1.7275543
2019-07-01T19:01:26.547Z,0.3576912,-0.30072567,-0.5527399,0.2675171,4.943573,7.9999237,-17.36908,-24.568176,-25.64392,0.1920223,8.10088,5.5235186,-0.9217497,3.9223993,4.088373,1.2618408,1.0714722,0.036880493
2019-07-01T19:01:26.756Z,0.31369215,-0.2944306,-0.62018955,-0.669281,8.806305,8.948441,-14.28833,-28.025818,-23.529053,-0.027778089,7.617212,6.176382,-0.29295918,2.7409322,7.299218,-0.13961792,0.024505615,-0.099823
2019-07-01T19:01:26.955Z,0.27290812,-0.29092237,-0.6596498,-0.2622528,5.3324127,9.050613,-14.793396,-26.59607,-24.276733,0.10373172,7.1734614,6.6858864,-0.22841154,2.3153434,4.9385486,-0.21871948,-0.2007904,-0.05706787
2019-07-01T19:01:27.159Z,0.24389143,-0.262173,-0.67234504,-0.5592041,4.7062073,8.184647,-15.342712,-23.913574,-27.030945,0.1152203,6.556343,7.291878,-0.675579,1.2696984,4.836431,-0.30534363,0.100372314,0.17268372
2019-07-01T19:01:27.362Z,0.2029647,-0.18863857,-0.67175394,-0.7905884,3.8557892,8.499069,-14.846802,-19.256592,-30.85785,-0.13234772,5.220182,8.300756,-0.97527194,0.64721894,4.843231,-0.7536621,0.3045807,0.26919556
2019-07-01T19:01:27.568Z,0.18557437,-0.17689504,-0.70252395,-1.0738983,2.7582092,9.426056,-14.253235,-18.560791,-30.892944,-0.25368208,4.853728,8.517474,-0.7437335,0.39290428,4.8932085,-0.10443115,-0.026748657,-0.10128784
2019-07-01T19:01:27.773Z,0.1725125,-0.16195087,-0.71780205,-0.80303955,2.8335724,9.345642,-14.0625,-17.282104,-34.414673,-0.34879002,4.4955835,8.708528,-0.6861416,0.3301878,4.703755,-0.11341858,0.05192566,0.050628662
2019-07-01T19:01:27.970Z,0.16623265,-0.13586782,-0.72266245,-0.89323425,2.8637238,9.594498,-14.224243,-17.36908,-33.972168,-0.6053295,4.0678678,8.902608,-0.67186415,0.4397254,4.6097913,-0.17248535,0.16047668,0.07096863
2019-07-01T19:01:28.170Z,0.15242296,-0.13393156,-0.7410465,-1.4139252,2.116211,9.734955,-13.119507,-16.28418,-32.666016,-0.5340302,3.8600874,8.999162,-1.1873149,-0.6522963,4.4334393,-0.005355835,-0.07879639,0.030960083
2019-07-01T19:01:28.372Z,0.14203194,-0.1240416,-0.76428235,-1.4115295,1.6326294,9.081955,-14.794922,-16.108704,-31.880188,-0.62873626,3.5773332,9.109213,-0.9531782,-0.20603943,3.4574304,-0.07902527,-0.06163025,-0.18406677
2019-07-01T19:01:28.577Z,0.14133824,-0.12031538,-0.78369147,-1.1483154,2.0614166,9.530853,-14.761353,-16.900635,-33.177185,-0.7736722,3.492562,9.130927,-0.833583,-0.0907433,4.24849,0.03881836,-0.011413574,-0.17037964
2019-07-01T19:01:28.780Z,0.13408875,-0.10721097,-0.7767521,-2.736435,1.3043365,10.3532715,-16.690063,-18.778992,-32.94983,-0.7686186,3.2269406,9.228568,-2.7630067,-1.3242147,4.598865,-0.048477173,0.015106201,0.3491516
2019-07-01T19:01:28.978Z,0.1367573,-0.100707054,-0.8611757,-2.0147552,1.7481995,9.419113,-13.574219,-24.23706,-35.777283,-1.3635917,2.9860501,9.240914,-0.1331839,0.7814771,2.4956393,0.04095459,-0.16235352,-1.4827728
2019-07-01T19:01:29.179Z,0.10989006,0.029554332,-0.9064351,-0.2074585,2.1676636,8.588791,-8.120728,-19.586182,-43.432617,-2.1894078,0.3511974,9.552672,1.2622918,0.87303066,2.9816666,-1.2792511,0.32583618,-0.966095
2019-07-01T19:01:29.382Z,0.09701541,0.05683026,-0.93869746,-0.7200012,-0.019378662,10.242722,-6.187439,-15.354919,-46.20056,-2.1493948,-0.42619523,9.558705,0.5722908,-0.89500356,3.9713082,-0.20639038,0.04966736,-0.7430115
2019-07-01T19:01:29.581Z,-0.1463171,0.23170707,-0.9146978,-0.97698975,-2.3765564,10.639206,-22.047424,3.8253784,-42.173767,1.2750674,-5.0093064,8.333753,-1.1288222,-0.36194658,3.522996,-2.5115662,-1.7431641,-0.742218
2019-07-01T19:01:29.786Z,-0.195813,0.19480228,-0.90844166,1.125351,-5.8820343,6.7673798,-29.05426,1.1428833,-38.430786,2.2901323,-4.6758914,8.310339,0.12181878,-2.0761008,0.051428318,0.28677368,-0.63339233,-0.009597778
2019-07-01T19:01:29.985Z,-0.2944254,0.15811968,-0.8670285,4.0623016,-3.870636,8.73764,-32.45697,8.444214,-31.367493,3.8606966,-4.822943,7.616077,1.5357153,0.35630012,3.2034402,-0.069244385,-1.1485443,0.2789154
2019-07-01T19:01:30.196Z,-0.24156749,0.039305,-0.81635123,2.2468567,-4.1324005,8.642868,-28.24707,-3.2058716,-34.440613,3.464534,-3.107909,8.631819,-0.50320435,-2.4686227,3.9537058,-1.2381439,-0.64146423,-0.03892517
2019-07-01T19:01:30.489Z,-0.17021707,0.07889714,-0.8174005,1.7108612,-3.3044891,9.221939,-30.526733,1.5167236,-33.459473,1.8860769,-3.0832403,9.116289,0.23486602,-1.8958168,2.393293,0.17515564,0.74832153,0.40089417
2019-07-01T19:01:30.611Z,-0.16176084,0.03847192,-0.7950219,2.5172424,-2.7876434,7.7814636,-28.80249,1.1520386,-37.304688,2.0821662,-2.4506562,9.264408,0.122361064,-1.1129363,1.5667086,0.4658661,-0.2550354,0.45942688
2019-07-01T19:01:30.814Z,-0.12437774,0.05612099,-0.820833,-0.033493042,-0.06700134,8.659622,-28.125,2.0019531,-37.615967,1.3918972,-2.2565007,9.4414625,0.39536166,-1.2500906,1.6652508,0.08860779,0.4419098,-0.26690674
2019-07-01T19:01:31.029Z,-0.14698197,0.062405802,-0.78960574,0.9834442,-6.254837,11.315659,-27.064514,-1.0513306,-39.11133,1.5510987,-2.6744473,9.306546,-0.3922937,1.0733602,0.71412945,-0.20126343,-0.22125244,0.441391
2019-07-01T19:01:31.237Z,-0.13281469,0.048303567,-0.68145883,0.055038452,-1.9692993,9.705292,-30.384827,6.4804077,-32.910156,1.0948507,-2.5161638,9.414914,0.13846534,-4.2110357,2.694169,0.46006775,-0.24586487,1.778717
2019-07-01T19:01:31.457Z,0.049408305,-0.022177154,-0.6522247,-1.3375854,0.6269226,8.286346,-25.616455,7.6278687,-36.49597,-0.30317107,1.0163914,9.749124,-0.6905296,-2.2356591,1.3613639,1.979065,0.6090393,0.6623535
2019-07-01T19:01:31.648Z,0.09893042,0.06382557,-0.6220157,-4.163513,-2.8043823,12.454636,-17.233276,-1.7501831,-43.43109,-2.1759748,0.72337437,9.534791,-0.01801622,-0.05949098,0.64801836,-0.18103027,1.0267029,0.26797485
2019-07-01T19:01:31.870Z,-0.006500357,0.17679217,-0.6234011,-4.742569,-2.5986023,12.406784,-15.249634,9.951782,-40.751648,-2.5614398,-2.2587318,9.192798,-1.6591449,-0.37349725,3.0957947,-1.5097351,0.22328186,-0.43702698
2019-07-01T19:01:32.060Z,0.18558766,0.17384705,-0.64926255,-6.135193,0.8805542,5.448456,-9.141541,10.00061,-41.444397,-4.807367,0.39531782,8.538344,0.3130393,-2.4366567,1.1338468,1.5536499,1.2991486,0.11122131
2019-07-01T19:01:32.280Z,0.3064283,0.19865873,-0.64027,-8.001602,2.3114624,6.2811584,6.588745,-3.2211304,-44.406128,-6.4811807,1.5668211,7.19095,-1.2611656,-0.4486947,0.66419315,0.7465668,1.0634766,0.03590393
2019-07-01T19:01:32.472Z,0.3903442,0.20243914,-0.63334906,-9.434906,2.950348,4.5631104,14.393616,-7.3150635,-41.85791,-7.37731,2.3606167,6.014415,-1.829546,0.23317862,0.7990022,0.6494446,0.6601715,-0.02420044
2019-07-01T19:01:32.692Z,0.53513527,0.1594142,-0.64781314,-8.178665,3.3834534,1.0839539,22.691345,-15.406799,-36.219788,-8.419594,3.4136753,3.6915631,-2.3022337,-0.07694745,1.032732,1.6508942,0.8752594,-0.2979889
2019-07-01T19:01:32.892Z,0.65398914,-0.0011850087,-0.5835307,-5.9030914,3.2973022,-1.7898254,24.461365,-30.401611,-24.243164,-7.473692,6.1889944,1.4179797,-1.6733112,-1.687366,0.71596813,1.5543213,0.54325867,1.3353424
2019-07-01T19:01:33.089Z,0.7154108,-0.13443753,-0.47353446,-8.123627,8.446671,-2.416748,18.78357,-40.852356,-12.850952,-5.336961,8.206318,-0.5861656,-2.2505512,-2.8583527,-0.84409547,0.8526764,0.5926666,1.629303
2019-07-01T19:01:33.298Z,0.8352333,0.0052988576,-0.2795053,2.4263153,3.4432678,-5.374283,14.602661,-45.02411,-9.375,-4.62798,7.728228,-3.8764248,-1.604794,3.2041407,1.5386138,0.5032654,2.7411041,-0.38027954
2019-07-01T19:01:33.401Z,0.88828975,0.16312924,0.1641167,5.802597,6.8075867,-6.455841,12.019348,-43.154907,9.611511,1.5899457,7.4370646,-6.1913266,-4.407765,-0.27551603,-0.25274277,0.38615417,5.179077,0.54537964
2019-07-01T19:01:33.600Z,0.8417274,0.17888197,0.3567544,5.5537415,6.1878357,-4.2424774,-3.161621,-41.726685,14.979553,4.613914,7.254751,-4.7170725,1.973114,-0.33926725,-1.6801591,-0.31793213,1.8425751,0.6170807
2019-07-01T19:01:33.800Z,0.7734658,0.19510987,0.46347475,7.647461,4.845459,-4.823929,-9.257507,-43.452454,6.6482544,5.554494,7.626906,-2.6736317,1.1774058,-0.5634756,-2.5452218,-0.65275574,1.2038574,0.014587402
2019-07-01T19:01:34.001Z,-0.16526426,0.19527157,0.9133434,-0.01914978,2.1798553,2.794815,20.605469,-27.030945,-21.73767,-4.1737995,2.4711723,8.523092,1.8659971,5.54491,2.9777102,-6.8708496,5.6071167,-4.0148315
2019-07-01T19:01:34.288Z,-0.23903449,0.067064345,0.95117396,-2.967102,-1.8831482,7.0707855,34.828186,-2.6947021,-34.873962,-4.700573,0.39133596,8.597782,2.5238428,-1.1704007,-0.8526664,-1.8568878,0.33581543,0.9517212
2019-07-01T19:01:34.493Z,-0.12607384,0.12884419,0.9815557,-0.74894714,-0.47616577,9.712463,30.049133,-12.257385,-36.62567,-2.5879974,2.3230283,9.169308,-1.8051276,-2.5702229,2.8271255,0.5405121,-1.0315552,1.6078491
2019-07-01T19:01:34.698Z,-0.21585314,0.10957509,0.96205324,-4.9483643,1.8257294,7.2263184,32.304382,-12.562561,-34.51233,-4.3435464,1.5345086,8.657325,1.8016329,-1.3039839,3.2374077,-0.25006104,1.057724,-0.27996826
2019-07-01T19:01:34.903Z,0.3010298,-0.20207196,-0.9198959,-6.1160583,3.098709,6.2285156,29.76532,-26.519775,-23.81134,-4.838867,4.5282865,7.228442,-1.0380404,-1.6367662,3.0738535,0.113098145,1.52034,3.1051636
2019-07-01T19:01:35.108Z,0.31132865,-0.2938704,-0.8478155,-3.500702,5.120636,7.410568,15.122986,-40.74707,-15.989685,-3.373275,6.797404,6.21182,-2.9116848,-0.9819732,2.0479236,0.48181152,0.61802673,2.1809692
2019-07-01T19:01:35.313Z,0.24752642,-0.30636197,-0.8693103,-3.5246277,4.9076843,7.688141,11.238098,-43.093872,-17.803955,-2.426011,6.6732183,6.764098,-2.1393697,0.8110018,2.0172448,-0.16900635,-0.5911255,0.22288513
2019-07-01T19:01:35.519Z,0.2385491,-0.2901981,-0.87764573,-4.055832,5.1302185,6.817154,9.463501,-41.238403,-18.562317,-2.411916,6.38813,7.0388093,-1.4944218,0.31482267,2.5268755,-0.20736694,0.11491394,0.18251038
2019-07-01T19:01:35.732Z,0.26501474,-0.2593003,-0.87213707,-4.199402,4.3621216,7.590027,9.80072,-40.849304,-18.873596,-2.9096894,6.094753,7.11042,-1.7784276,0.42669392,1.4770498,-0.2601471,0.50367737,0.2345581
2019-07-01T19:01:35.929Z,0.25451928,-0.20821866,-0.8872311,-3.9792633,3.8883362,8.403595,10.951233,-39.34784,-24.05243,-3.1076853,5.238483,7.685764,-1.4048555,0.48754978,1.7890606,-0.58573914,0.15534973,0.06321716
2019-07-01T19:01:36.134Z,0.22692059,-0.21719348,-0.90259093,-2.897705,4.914856,7.7072754,9.429932,-39.08081,-24.539185,-2.7630737,5.1551466,7.871485,-1.7561202,-0.15285873,2.2171307,0.010101318,-0.28971863,-0.023529053
2019-07-01T19:01:36.339Z,0.1927921,-0.26516107,-0.9108379,-6.7812653,3.2566376,7.7479553,7.624817,-40.08026,-23.762512,-2.1398668,5.685286,7.698629,-1.4084634,0.20828247,1.2848325,0.39915466,-0.51342773,-0.08644104
2019-07-01T19:01:36.543Z,0.3229749,-0.11565058,-0.87949204,-5.9533386,3.7136536,6.130417,13.996887,-35.554504,-26.42517,-4.8230214,4.0844584,7.4984035,-1.4006448,0.07739043,1.8953366,-1.1725922,1.9710999,0.3332672
2019-07-01T19:01:36.602Z,0.3881274,-0.13483967,-0.8301114,-5.7834473,4.8550415,5.8169556,14.505005,-37.368774,-23.34137,-5.3222904,5.064863,6.4954424,-1.6125283,-0.46482992,1.2498722,0.20454407,0.8035431,0.77334595
2019-07-01T19:01:36.805Z,0.39040342,-0.15849097,-0.82733625,-5.8695984,4.8430786,6.312271,12.156677,-39.564514,-23.240662,-5.1803093,5.416086,6.3246183,-1.498311,0.3514824,0.513155,0.16838074,-0.027786255,0.15765381
2019-07-01T19:01:37.010Z,0.37450206,-0.17076157,-0.839531,-5.271393,4.936386,6.20459,11.495972,-40.05127,-22.70813,-4.9787493,5.416735,6.483935,-1.6968598,0.32448626,0.6175556,0.045410156,-0.23175049,-0.026947021
2019-07-01T19:01:37.213Z,0.34587508,-0.18671414,-0.860772,-5.2785645,4.7114716,7.0205383,11.114502,-39.414978,-23.243713,-4.6549907,5.3459997,6.7765565,-1.4933288,0.3885622,0.51723146,0.0708313,-0.41513062,-0.1533966
2019-07-01T19:01:37.400Z,0.32631972,-0.19799048,-0.8791813,-3.768692,4.125229,6.5850525,10.487366,-39.16931,-22.86377,-4.5193295,5.2396007,6.9492908,-1.4635527,0.13522673,0.9593048,0.10142517,-0.31495667,-0.2292633
2019-07-01T19:01:37.621Z,0.24803886,-0.18852745,-0.9271325,-1.9549408,2.1583252,10.473389,13.41095,-36.410522,-24.612427,-3.7404113,4.441214,7.9028673,-1.3476574,0.753458,-0.15954638,-0.1823883,-1.0213623,-0.6843109
2019-07-01T19:01:37.814Z,0.25710186,-0.1989523,-0.9340903,-4.89093,-2.5986023,14.395218,15.737915,-36.39679,-25.23346,-4.1342263,4.3893194,7.7338505,-0.56806254,-0.520175,2.9483228,0.21902466,0.05407715,-0.39274597
2019-07-01T19:01:38.005Z,-0.05519173,-0.13703883,0.97679114,-3.4002075,-16.316666,9.183655,2.5405884,9.544373,-36.706543,-0.6405173,-2.7932885,9.378575,-5.2407002,2.4742696,0.83743095,-2.9805908,-2.4286804,-3.7706604
2019-07-01T19:01:38.209Z,0.17964293,0.36562485,-0.9025428,-1.3256226,-14.055435,7.4967194,15.760803,18.785095,-34.15985,-4.18046,-5.9806824,6.5517626,3.5693846,-2.741528,0.9742956,-2.7508545,0.16059875,3.3944092
2019-07-01T19:01:38.411Z,0.074029215,0.45708346,-0.84254366,-3.0245209,-12.662811,2.4957123,18.61267,25.43335,-30.851746,-3.6901484,-7.1538076,5.6014485,-0.46125412,-3.5773587,1.5213599,-1.5489044,-1.2305908,0.8005371
2019-07-01T19:01:38.602Z,0.06957157,0.53673804,-0.75774765,-7.343567,-1.6319122,4.19223,38.28125,8.833313,-25.146484,-4.8715715,-7.4795375,4.0613666,-0.9737811,-1.9749355,0.673754,-1.1987457,-0.28894043,1.0231934
2019-07-01T19:01:38.804Z,0.06649568,0.37626255,-0.83195895,0.8685913,0.6628113,8.477768,35.614014,4.0374756,-30.923462,-4.053949,-5.6149635,6.9432025,-3.4670157,1.1810269,-3.9827785,1.4374542,-1.334137,0.254776
2019-07-01T19:01:39.004Z,0.04567471,-0.14394838,-0.9151665,5.3647156,14.318649,6.4749756,21.92688,-19.828796,-31.747437,2.4263315,9.275676,2.060372,2.2782967,3.949943,4.684483,4.045639,-5.2744293,-2.982895
2019-07-01T19:01:39.202Z,0.335087,0.17744358,0.7343559,8.341385,3.9385834,9.006592,9.812927,-34.0683,-19.651794,2.8669763,6.255772,6.986855,3.793336,3.1240764,1.3770475,-4.086151,-3.9492645,-1.365799
2019-07-01T19:01:39.404Z,0.4285014,-0.53931534,0.6968591,8.341385,-1.9094696,0.25602722,-2.1514893,-17.919922,-30.65033,7.9698772,-5.6921716,0.50063896,5.1103234,3.8500772,3.8527994,-8.484161,-5.8578644,-0.42462158
2019-07-01T19:01:39.608Z,0.55447316,-0.690333,0.36279395,7.0420837,2.5459595,-4.618149,-33.53882,21.878052,1.3931274,7.8784575,-1.753108,-5.570181,3.2480087,2.0900397,0.117856026,-3.1682587,-2.1669312,-1.249054
2019-07-01T19:01:39.813Z,0.573632,-0.69273406,0.29477787,7.453644,4.051056,-5.5034943,-30.540466,5.49469,34.254456,7.701722,-0.37381235,-6.0592184,3.0299282,4.0287523,-2.0515037,-0.36068726,-0.2539215,-0.3625641
2019-07-01T19:01:40.016Z,0.5589008,-0.7385554,0.22676153,6.029907,3.6394806,-6.065811,-28.837585,-1.8417358,35.9375,6.849338,0.017394999,-7.0183077,2.85595,3.8691027,-2.0308073,-0.2772522,-0.68678284,0.24334717
2019-07-01T19:01:40.215Z,0.56317306,-0.74663305,0.21761915,5.8743744,3.115448,-6.764511,-23.44513,-2.458191,39.518738,6.4940286,-0.101573095,-7.3476295,2.408988,3.2915235,-2.0306063,0.31126404,-0.27946472,-0.011306763
2019-07-01T19:01:40.419Z,0.56206197,-0.7576486,0.16931938,5.8217316,3.6705933,-7.010971,-22.097778,0.38604736,41.70227,6.1058483,0.62883556,-7.648109,2.0582666,2.8826606,-2.4192824,-0.17871094,-0.26004028,-0.17710876
2019-07-01T19:01:40.622Z,0.53686804,-0.77003026,0.15621692,6.1591187,3.596405,-6.9344025,-20.12024,-2.256775,41.841125,6.285759,0.8762883,-7.4760776,2.1538339,3.2342253,-2.5240736,-0.025634766,0.12475586,0.04206848
2019-07-01T19:01:40.838Z,0.49997255,-0.7823823,0.16119829,6.8745728,2.5100708,-6.90329,-19.892883,-0.7080078,41.467285,6.7143574,0.8069838,-7.101871,1.946816,2.989531,-2.2077894,0.111328125,0.29988098,0.114151
2019-07-01T19:01:41.038Z,0.4619776,-0.7959538,0.18689263,6.4534454,2.0889282,-6.1136627,-22.286987,0.019836426,40.12451,7.0584607,0.19627897,-6.8051443,2.321218,2.4265766,-2.3586273,0.3827362,0.24386597,0.2117157
2019-07-01T19:01:41.243Z,0.39203563,-0.79928666,0.23250559,8.470596,1.6031952,-5.419739,-26.048279,4.295349,39.112854,7.9275284,-0.63346416,-5.737892,2.1709213,1.9535153,-2.5749207,0.28285217,0.75320435,0.4418335
2019-07-01T19:01:41.447Z,0.32610148,-0.7983782,0.21202339,7.8388824,2.423935,-4.7162476,-29.397583,7.5302124,35.14862,8.553974,-0.38002652,-4.780742,2.9603887,1.554628,-1.9071879,-0.27015686,0.62254333,0.09472656
2019-07-01T19:01:41.648Z,0.26112455,-0.7566449,0.19434932,9.968506,0.6891327,-1.9980011,-33.82721,6.2438965,31.521606,9.410362,0.01988449,-2.7595432,2.3534393,2.0122075,-1.9059119,-0.2924652,1.1957245,-0.013214111
2019-07-01T19:01:41.847Z,0.24173723,-0.664933,0.17093444,10.042679,3.929016,0.830307,-40.99121,4.0893555,22.543335,9.753253,1.021922,-0.0112344,2.8558345,0.25170928,-1.4971157,-0.20602417,1.4977417,-0.49658203
2019-07-01T19:01:42.063Z,0.22006221,-0.41618395,0.06632706,0.5001068,3.620346,8.008774,-45.77179,-1.4373779,8.172607,7.4674683,3.2557294,5.4596276,2.8302536,1.1287215,-1.2809033,-0.9258728,2.989853,-1.5757446
2019-07-01T19:01:42.276Z,0.23648068,-0.23476666,-0.12357764,-1.0408783,5.517853,7.4249268,-36.14807,-15.377808,-20.207214,3.7307622,4.904378,7.6288185,-1.4090443,0.36356926,2.341919,-0.27975464,1.613739,-1.838974
2019-07-01T19:01:42.481Z,0.18924405,-0.1623446,-0.25160703,0.34217834,5.477173,8.391632,-21.586609,-22.563171,-31.100464,2.043767,4.2721806,8.58731,-2.1473265,1.7902026,2.2329001,-0.70643616,0.49047852,-0.77734375
2019-07-01T19:01:42.693Z,0.17033674,-0.19013086,-0.31542602,2.725418,4.405182,9.200409,-16.619873,-20.832825,-33.29315,2.3544858,4.229706,8.528563,-1.6387287,1.8596332,2.4120502,-0.05744934,-0.28404236,-0.0140686035
2019-07-01T19:01:42.891Z,0.13933371,-0.17071407,-0.33046067,2.2588196,-2.067398,13.713272,-17.68341,-19.371033,-33.40454,2.1697423,3.6144526,8.854284,-1.0279205,1.4932678,1.8913622,-0.30418396,0.18284607,0.30511475
2019-07-01T19:01:43.099Z,-0.061876446,-0.091441385,-0.11205568,2.050644,-2.5531464,8.609375,-16.990662,-8.660889,-35.93445,1.9071282,-0.9975228,9.56756,-2.4208794,1.5874684,2.553587,-1.8221436,0.4420929,3.0173187
2019-07-01T19:01:43.310Z,-0.025960024,-0.097727925,-0.14416441,4.474579,-10.04985,8.614166,-17.87262,6.4590454,-37.953186,1.9602185,-0.22487591,9.606111,-0.16037214,0.8333244,1.6309781,0.38035583,-0.06645203,0.025650024
2019-07-01T19:01:43.507Z,-0.025920395,-0.13715477,-0.15142177,-3.4097748,4.584656,12.447464,-19.509888,5.6900024,-37.36267,2.7093751,-0.09015364,9.424519,-0.30332732,-3.23342,2.3182683,0.3120575,-0.43351746,0.49742126
2019-07-01T19:01:43.708Z,-0.0631234,-0.12079479,-0.23639302,-8.310272,25.914276,7.956131,-20.343018,4.7470093,-35.861206,2.5719447,-0.6310165,9.442314,-2.072019,5.261136,2.37389,-0.6278229,0.018035889,-0.47947693
2019-07-01T19:01:43.916Z,-0.058640614,-0.09829444,-0.2936975,4.771286,-10.281952,9.389435,-20.405579,3.7384033,-37.8006,2.1673896,-0.5252904,9.549706,-0.32883394,1.2270439,2.537362,-0.06692505,0.2086792,-0.29170227
2019-07-01T19:01:44.117Z,0.011553423,-0.12118717,-0.32886255,1.5098724,1.8759766,13.993225,-20.536804,5.8273315,-35.70862,2.1514246,0.99387825,9.515985,0.62029016,-2.017516,0.75898933,0.8608551,0.0262146,-0.0932312
2019-07-01T19:01:44.317Z,0.36738017,-0.082373425,-0.34277132,-2.457428,4.6731873,-0.8446655,-12.445068,-5.4244995,-38.557434,-1.0793393,6.7553825,7.026395,-0.026370525,-3.722952,5.4067416,3.6009827,1.8334198,-0.2314148
2019-07-01T19:01:44.558Z,0.8841913,-0.028513698,-0.15457442,0.96191406,5.029709,-4.3094788,12.098694,-38.446045,-7.096863,-2.4346106,7.7149053,-5.5428605,-0.43610418,-0.7878113,1.7375493,6.515442,3.4667664,-0.38186646
2019-07-01T19:01:44.748Z,0.32994735,-0.11342497,-0.6091411,-7.3914337,4.2113647,10.289139,14.703369,-18.234253,-34.12018,-2.3576014,5.963963,7.4191136,-0.98603,1.673029,-9.893177,-6.4855194,-4.8647156,-0.39183044
2019-07-01T19:01:44.952Z,0.3468198,0.10215661,-0.6759425,-6.118454,2.7828522,2.9359894,30.78003,-17.494202,-19.755554,-5.884619,3.0138805,7.2428007,-2.118137,0.95951414,3.6908984,-1.0470581,1.4180145,-1.6982269
2019-07-01T19:01:45.154Z,0.6791717,0.16463299,-0.51452583,-7.1736755,4.730606,-12.24408,29.99115,-20.722961,16.664124,-8.458303,4.9573727,0.22794212,-2.7089639,-0.7162316,2.3708327,1.1059418,4.1031647,0.8447571
2019-07-01T19:01:45.405Z,0.9120821,0.34671324,0.11108673,5.522629,-1.524231,0.26560974,-34.535217,-8.792114,21.437073,0.70496094,4.1285996,-8.867249,-9.681564,1.3877347,-0.008388996,1.1841888,8.4897,0.6610718
2019-07-01T19:01:45.738Z,-0.5584763,-0.30943418,-0.7180157,6.0921326,1.4404755,-1.1964111,-40.39154,-3.3416748,-17.158508,9.546818,1.321953,1.8113805,-0.40137434,1.6374533,-2.2703507,1.5719147,8.949509,0.66223145
2019-07-01T19:01:45.858Z,-0.42409447,-0.23724629,-0.80626315,-1.3830566,-4.0486603,10.712662,1.1398315,-17.097473,-40.161133,8.276112,0.9457371,5.175128,4.289398,0.3810987,4.0132394,-0.027893066,1.8368378,0.13993835
2019-07-01T19:01:46.031Z,0.24885984,-0.088777,-0.8515025,-14.634506,6.3792725,-1.002594,31.930542,-23.460388,-17.953491,-3.3675342,3.6933005,8.437396,-0.8426546,0.78909135,3.8743482,2.0105743,7.357086,0.56185913
2019-07-01T19:01:46.222Z,0.9070881,0.21077643,-0.27857703,-8.092529,3.2901306,-4.800003,34.753418,-17.967224,20.455933,-5.9270787,3.0267537,-7.2027,-6.3187094,4.0668755,-1.9362559,0.23368835,5.3522644,-0.13287354
2019-07-01T19:01:46.438Z,0.966395,0.071596235,0.17555974,13.591232,-1.5314026,-9.47319,-15.17334,-16.68396,38.467407,3.083832,3.536786,-8.611128,0.32145703,0.84299326,2.3823242,-0.1333313,4.7999268,1.1980896
2019-07-01T19:01:46.659Z,0.8222766,-0.18436301,0.53436494,8.8367,-1.6414795,4.713867,-33.9386,3.529358,25.38147,8.855821,-0.8715506,-4.1213136,4.430177,0.6382726,-4.2731876,1.075592,3.9098206,2.4153595
2019-07-01T19:01:46.858Z,0.5340531,-0.09392696,0.8347195,1.5074768,-0.2536316,8.044662,-39.637756,0.72021484,-18.676758,8.920085,-0.5325899,4.0396543,1.9233274,-0.82654023,3.5211258,1.8305511,4.0729218,-0.19458008
2019-07-01T19:01:47.073Z,0.19336192,-0.11655702,0.97401786,0.7034912,-2.498108,11.971298,-19.89441,-2.178955,-39.331055,3.7344956,-2.1593726,8.806874,-0.57141495,2.3871474,3.1963673,0.43771362,3.4779358,1.9330902
2019-07-01T19:01:47.321Z,-0.08417907,0.10124902,-0.98559797,0.20817566,-1.9573364,9.358322,-11.148071,5.204773,-42.340088,1.4165367,-2.132417,9.466605,-1.0425572,-1.4759372,4.6768274,0.37161255,0.88619995,1.3299713
2019-07-01T19:01:47.523Z,-0.067946315,0.19538347,-0.96936953,-0.99302673,-1.655838,9.468399,-3.262329,8.938599,-42.73224,0.7844378,-3.891186,8.967369,-1.1786683,0.6189029,2.3652225,-1.0203094,0.3240204,-0.06599426
2019-07-01T19:01:47.733Z,-0.002466721,0.172211,-0.975738,-3.0173492,-1.4356995,8.843872,4.5074463,8.143616,-42.837524,-0.40936887,-3.302218,9.224866,-1.1547725,0.37306786,4.0136423,0.25531006,0.6223602,0.012268066
2019-07-01T19:01:47.959Z,0.07310347,0.18909426,-0.9714358,-3.3810577,-1.8161469,9.138184,4.33197,9.585571,-42.082214,-1.850268,-3.4259858,9.000528,-1.6042764,1.2285106,2.7960653,-0.15049744,0.7832031,-0.0818634
2019-07-01T19:01:48.133Z,0.06875154,0.1808732,-0.96777576,-2.5028992,0.42352295,9.300903,4.953003,8.964539,-41.55426,-1.8766629,-3.215907,9.072291,-2.3554559,0.3819735,3.313301,0.09635925,0.016693115,-0.20166016
2019-07-01T19:01:48.336Z,0.101437785,0.1807959,-0.9614845,-4.1443634,-0.9308014,6.3672943,8.270264,3.9398193,-41.960144,-2.5528624,-3.0503702,8.963734,-1.0874845,1.2076039,2.637867,0.027816772,0.38674927,-0.072891235
2019-07-01T19:01:48.542Z,0.15769354,0.12533568,-0.9525136,-5.5872345,0.43310547,8.271988,11.846924,-1.0116577,-40.019226,-3.5073497,-1.6352658,9.010816,-2.4248745,0.32908237,1.3157687,0.6842041,0.40037537,0.26638794
2019-07-01T19:01:48.745Z,0.20416436,0.08919191,-0.9490365,-6.8434753,2.3401794,9.619141,16.557312,-7.939148,-37.165833,-4.190219,-0.7675646,8.833079,-1.3521338,-0.18654346,2.6907415,0.45341492,0.37391663,0.09565735
2019-07-01T19:01:48.949Z,0.2681545,-0.012281617,-0.94794697,-4.6947174,0.8901367,6.175873,11.418152,-0.105285645,-38.4552,-4.9443674,1.1292055,8.393361,-2.2732754,0.8322655,1.9602113,1.1971436,0.39671326,-0.21490479
2019-07-01T19:01:49.151Z,0.17085503,0.100336835,-0.93620133,-4.067795,-0.96191406,8.549561,6.1691284,3.3447266,-39.727783,-3.7085116,-0.8696147,9.0366535,-2.4689994,1.9234664,0.22372627,-1.0784607,-0.8137207,-0.31033325
2019-07-01T19:01:49.358Z,0.116809756,0.13683371,-0.91482294,-3.1202393,-0.7298126,8.556732,4.022217,5.9066772,-40.551758,-3.0662425,-1.6268061,9.171807,-1.9448159,0.4442129,2.484704,-0.41279602,-0.3818512,-0.122802734
2019-07-01T19:01:49.561Z,0.066509284,0.1574042,-0.8953717,-2.2492523,-1.1844482,10.384857,-4.359436,10.655212,-38.33618,-2.4375377,-2.2277699,9.23395,-1.731666,0.81129384,1.9363012,-0.29930115,-0.33255005,-0.28051758
2019-07-01T19:01:49.756Z,-0.0344314,0.15706325,-0.86750114,2.4550323,-1.5720825,9.078369,-11.027527,15.953064,-36.154175,-0.8642641,-2.990253,9.299561,-2.3337374,0.8959677,1.954874,-0.37138367,-0.7746887,-0.58052063
2019-07-01T19:01:49.960Z,-0.14323856,0.15028368,-0.76747525,-2.148758,-3.780655,7.802994,-7.6522827,14.21814,-37.32605,0.36834586,-3.9661539,8.961268,0.21754736,1.4612525,2.735289,-0.62501526,-0.8945465,0.5265503
2019-07-01T19:01:50.162Z,-0.1243256,0.14427023,-0.69445074,9.140579,-3.8428802,7.915451,-6.2789917,21.214294,-34.521484,-0.270036,-3.6570067,9.095262,-1.1608666,-0.1318512,0.5532923,0.19734192,-0.18746948,1.1573334
2019-07-01T19:01:50.392Z,-0.24860528,0.2938281,-0.61200845,12.792038,-43.16652,-40.560745,-3.15094,36.53412,-18.84613,-0.99732625,-6.8956456,6.901145,-2.436636,-3.2935743,2.7168083,-1.9666138,1.781189,-2.4764252
2019-07-01T19:01:50.589Z,0.39267096,-0.8602181,-0.2806162,-10.851456,-33.276993,-22.877777,-21.995544,32.572937,11.022949,0.6156763,6.002054,-7.7308903,-3.4417675,-8.251404,-10.58253,-9.197601,6.6844635,-5.2439117
2019-07-01T19:01:50.822Z,0.1599415,0.8667872,-0.39662343,-35.26303,-21.870392,4.9340057,-8.47168,32.299805,-7.106018,-5.604721,-5.938206,-5.430948,-22.379175,-20.841211,-2.00783,2.5738678,-5.7499847,8.123398
2019-07-01T19:01:51.018Z,0.09598737,0.7800889,-0.44452593,-14.873779,-5.63031,19.893936,12.011719,34.591675,-23.786926,-7.4113803,-5.9923286,-2.309511,-20.304443,-17.934166,3.436604,-0.4865265,-1.3210602,0.24977112
2019-07-01T19:01:51.224Z,-0.16096984,0.7131507,-0.34282565,-0.6699829,-7.458435,5.785843,2.3529053,37.41913,-19.718933,-7.1686416,-6.6575694,-0.67656463,-2.1203008,-5.9547176,2.5628576,-1.9611816,-2.4405365,-0.658905
2019-07-01T19:01:51.430Z,-0.0835929,0.52986544,-0.4102239,-0.29910278,-5.1015015,9.358322,0.80566406,32.8537,-27.307129,-6.992285,-5.4724426,4.1630177,1.0888612,-5.224909,2.2322721,1.7375183,-1.8670502,0.5844116
2019-07-01T19:01:51.620Z,-0.010419984,0.43159372,-0.41348827,-6.9391785,-3.448059,9.099899,5.2200317,27.93274,-31.661987,-6.70146,-3.6640024,6.151089,1.3402958,-3.5192537,4.39482,0.9875488,-0.5969391,0.795578
2019-07-01T19:01:51.843Z,0.03468993,0.5042108,-0.3926668,-5.659027,-5.132599,5.7690887,10.289001,29.116821,-28.079224,-7.8656836,-3.360394,4.796787,0.15190315,-2.3047433,7.3938932,0.008392334,1.3244324,0.26119995
2019-07-01T19:01:52.085Z,0.013599109,0.4393793,-0.42101,-1.483551,-4.0055847,6.180664,6.033325,27.981567,-31.156921,-6.949711,-3.4165056,6.0165935,-0.7533128,-2.3506775,3.2619371,0.21694946,-0.642746,-0.10171509
2019-07-01T19:01:52.282Z,0.0030232535,0.40493074,-0.45765913,-5.5992126,-5.3934174,6.661621,7.939148,26.91803,-30.673218,-6.3137436,-3.5878053,6.5904994,0.88833,-1.8084313,5.3094544,0.23643494,-0.08203125,-0.30807495
2019-07-01T19:01:52.515Z,-0.023519963,0.404753,-0.45043215,-6.317047,-4.094116,10.19342,9.742737,29.135132,-28.63617,-6.1068873,-3.9427166,6.5826516,-0.16860485,-1.7007177,4.658186,-0.195755,0.05444336,-0.07411194
2019-07-01T19:01:52.715Z,-0.03651758,0.4935591,-0.41817373,-4.9100647,1.6438751,10.492523,10.664368,31.36444,-26.18103,-7.074055,-4.593614,5.002684,-0.61378527,-2.0144467,4.471698,-0.07022095,0.002456665,-0.016937256
2019-07-01T19:01:52.951Z,-0.050269056,0.50607556,-0.4231507,-4.9387817,-5.5824585,5.515457,10.694885,30.50232,-27.71759,-7.0258603,-4.939442,4.733877,-0.08098078,-1.6973193,4.763814,-0.119644165,0.31826782,-0.15945435
2019-07-01T19:01:53.154Z,-0.069773756,0.47245803,-0.4189682,-3.3547363,-4.400406,5.6039886,11.462402,32.403564,-26.416016,-6.582733,-4.9391813,5.333151,-0.015240669,-1.4676335,3.419179,-0.026000977,-0.3327942,0.02949524
2019-07-01T19:01:53.352Z,-0.06847663,0.39948207,-0.41755885,-3.254242,-3.4408722,8.508881,9.095764,28.935242,-31.932068,-5.8111134,-4.363874,6.584676,-1.072758,-2.202461,2.2237191,0.35993958,-0.74102783,0.17842102
2019-07-01T19:01:53.554Z,-0.07575662,0.32489502,-0.40625653,1.7563324,-3.6466675,10.040283,4.446411,27.53601,-32.180786,-4.817139,-3.8527489,7.6237717,-0.43717432,-1.0521433,3.7693977,0.23246765,-0.7167816,0.14793396
2019-07-01T19:01:53.758Z,-0.12703297,0.17892279,-0.3960108,2.3976135,-3.797409,8.281555,-6.756592,25.718689,-34.73358,-2.1423328,-3.6112642,8.862255,0.6561568,-1.4247186,2.9792948,0.17076111,-1.5550079,-0.0262146
2019-07-01T19:01:53.962Z,-0.2578673,0.01829919,-0.33452502,5.230713,-2.5339966,9.066406,-17.079163,30.79071,-25.3479,1.3666487,-4.703466,8.495885,0.94091743,-0.5043154,2.9002523,-0.673584,-2.0799408,0.17640686
2019-07-01T19:01:54.165Z,-0.21950583,-0.07278805,-0.20937377,7.7001038,-4.015152,-0.5814514,-20.373535,28.88794,-24.468994,2.257773,-3.791479,8.757713,1.4778256,-1.6368661,2.7190433,0.8003235,-1.0266113,1.0282593
2019-07-01T19:01:54.371Z,-0.15728143,-0.37931758,-0.030066483,6.8075867,-3.6562347,3.0029907,-27.549744,27.719116,-19.882202,6.872557,-2.5875158,6.4994693,1.5452056,-2.0185614,0.84069824,1.377533,-3.3471222,0.9963074
2019-07-01T19:01:54.571Z,-0.08902937,-0.46043867,0.07172339,7.8053894,-4.62294,4.4243317,-29.696655,24.96643,-21.713257,7.8244925,-2.1848562,5.4930973,2.2360058,-2.4926362,-0.26986146,1.01651,-0.94403076,0.41915894
2019-07-01T19:01:54.778Z,0.0800194,-0.50854826,0.24068263,12.39003,-4.441086,6.4247284,-30.448914,19.40155,-25.006104,8.584888,-1.1092587,4.608647,2.0118217,-3.0870395,-0.061704636,2.1921997,-0.9112854,0.5603943
2019-07-01T19:01:54.981Z,0.15310022,-0.5037958,0.2710273,6.8817596,-4.3836517,4.249649,-31.796265,14.811707,-27.470398,8.775912,-0.25842702,4.3688645,2.5215683,-1.7319558,1.83477,0.7966614,-0.22979736,-0.1581726
2019-07-01T19:01:55.175Z,0.11012629,-0.54674256,0.30141687,8.865402,-0.87815857,0.7034912,-34.884644,18.269348,-20.37201,8.944159,-1.5618006,3.705831,0.8666291,-2.8961978,1.0996816,-0.28878784,-0.3661499,0.5153198
2019-07-01T19:01:55.381Z,0.09948704,-0.6020513,0.3030308,7.4273224,-2.847458,2.1966095,-37.15515,15.847778,-19.110107,9.234785,-2.1499436,2.5033736,2.6720786,-0.69048595,0.08004296,-0.18763733,-0.6065216,0.25758362
2019-07-01T19:01:55.575Z,0.117728524,-0.5224661,0.31031105,8.283951,-2.033905,6.3026886,-33.80432,11.634827,-29.696655,8.764891,-1.3662883,4.1809506,1.937849,-1.8623472,-1.1173966,0.18572998,0.9789276,-0.43373108
2019-07-01T19:01:55.779Z,0.06412815,-0.41307575,0.27882832,5.2283173,-1.9908295,9.291336,-25.794983,16.023254,-38.34381,7.3553934,-1.1715583,6.379344,1.8889565,-0.7481071,0.77676153,-0.48695374,1.4716492,-0.47447205
2019-07-01T19:01:55.988Z,-0.01067432,-0.2817251,0.20662381,5.986847,-4.598999,8.0686035,-18.624878,16.816711,-41.645813,5.133762,-1.3378649,8.247726,1.2758374,-0.72482,1.9893026,-0.6917877,1.6500244,-0.7055054
2019-07-01T19:01:56.201Z,-0.0030816,-0.20955254,0.11063403,4.7234344,-1.0145569,8.018356,-19.554138,16.340637,-44.500732,3.9862497,-0.5134263,8.945199,1.7347407,-3.995832,0.07168102,0.0007019043,0.85357666,-1.2424011
2019-07-01T19:01:56.399Z,-0.07072882,-0.2205116,-0.013299442,3.2207336,-4.199402,8.027924,-26.582336,25.680542,-49.331665,4.225449,-1.2918704,8.754829,1.744457,-0.44990647,1.108984,-0.9321594,-0.0068969727,-1.1282196
2019-07-01T19:01:56.594Z,-0.13190916,-0.16659197,-0.056546174,3.0508423,-1.7180481,11.643478,-20.742798,41.68091,-50.84381,3.3337443,-2.339094,8.921053,0.6021054,-2.2245674,0.4696045,-0.6505432,0.5633545,-0.24673462
2019-07-01T19:01:56.800Z,-0.123094074,-0.08292302,-0.11383761,1.6486511,-0.9068756,9.915863,-21.305847,38.598633,-43.670654,1.8725251,-2.1865256,9.374601,2.0388684,-0.41179013,1.8712988,-0.09539795,1.0326843,-0.6303711
2019-07-01T19:01:57.007Z,-0.098439544,-0.04589397,-0.1690524,1.9333954,-1.7491608,6.989441,-15.585327,31.99768,-36.567688,1.2081672,-1.7391768,9.575281,1.0299199,0.22786343,2.0413551,0.1425476,0.48362732,-0.48809814
2019-07-01T19:01:57.205Z,-0.13289344,-0.051550683,-0.22531588,-0.13639832,-2.6488495,9.300903,-12.089539,25.071716,-44.233704,1.5617613,-2.284318,9.408144,-0.29361677,-0.91034937,0.08164215,-0.33247375,-0.09883118,-0.50538635
2019-07-01T19:01:57.406Z,-0.070240974,0.028057428,-0.23315834,1.7491608,4.359726,10.636093,-8.364868,27.288818,-53.67737,-0.21229836,-1.4639355,9.694442,0.06651355,-2.34583,0.4398651,0.5033264,0.9409332,0.043548584
2019-07-01T19:01:57.610Z,-0.0037099137,0.039901048,-0.23814876,1.3016968,-1.1652985,12.588638,-6.6116333,24.087524,-58.25348,-0.7420992,-0.2569831,9.775154,1.6961489,2.4737918,1.7554998,0.56752014,0.35609436,-0.24246216
2019-07-01T19:01:57.816Z,0.060329795,-0.0067162504,-0.24469869,5.2450714,-2.3497467,12.916458,-14.442444,12.944031,-60.95581,-0.16207106,1.1772771,9.734379,1.3272947,-0.13520789,1.9766436,0.7672119,-0.26412964,-0.1348877
2019-07-01T19:01:58.020Z,0.1363635,-0.10148584,-0.33067143,-1.2753754,4.7114716,6.345764,-20.301819,-10.256958,-52.301025,0.9633847,3.1409967,9.239936,2.1299088,-3.7000318,3.1740665,1.1596985,-0.7221527,-0.7238312
2019-07-01T19:01:58.214Z,0.19629389,-0.18831582,-0.8775405,-0.58384705,0.021530151,8.133209,-18.823242,-26.437378,-40.101624,-1.9200265,4.761459,8.35538,0.4753244,-2.4599686,0.00089502335,1.7970734,-0.6457977,-2.925583
2019-07-01T19:01:58.420Z,0.111511864,-0.105314314,-0.9808612,-0.6891327,2.7900238,11.727219,-9.866333,-30.400085,-35.084534,-1.8975159,2.288349,9.345227,-7.114724,-1.1258743,3.819684,-0.6499939,-1.6272278,-3.3566284
2019-07-01T19:01:58.682Z,-0.0062517035,-0.14748187,-0.9804725,0.76330566,8.472992,5.046463,-13.824463,-33.547974,-29.748535,0.49607927,2.8201888,9.379277,-0.43098077,-0.48971438,0.39242268,0.3683777,-1.2672272,0.00970459
2019-07-01T19:01:58.826Z,-0.14797583,-0.32644945,-0.92306286,13.289734,-0.95474243,6.9128723,-20.651245,-40.11841,-11.853027,3.572842,5.504974,7.287007,-1.8647611,2.2278814,-0.29201508,1.5600586,-1.83461,0.108291626
2019-07-01T19:01:59.027Z,-0.42056486,-0.10287708,-0.857801,-9.750748,-30.61377,-5.99881,-37.94403,-22.720337,-6.5444946,7.6345954,-0.55389476,6.1299706,6.7065125,0.018532336,1.3378944,-2.2415009,-1.8473816,2.6050415
2019-07-01T19:01:59.222Z,0.5852559,-0.17282464,-0.618786,73.294556,11.885147,-3.6227264,11.740112,-34.277344,-7.91626,-5.4261136,7.77584,2.502797,-0.6864972,-25.81512,3.7390728,0.7528534,0.27850342,-10.375092
2019-07-01T19:01:59.425Z,0.51717865,-0.5942616,-0.28269497,-16.563126,-50.77092,-0.19621277,-1.0177612,-38.624573,10.903931,3.510687,8.845824,-2.365768,18.271107,-13.855495,-1.1523085,2.6671448,-0.18092346,3.5970306
2019-07-01T19:01:59.631Z,0.7407881,-0.44895482,0.3892216,-76.53444,-49.105515,62.617783,6.9259644,-35.694885,1.8096924,8.414188,1.1252584,-4.909748,-8.132403,-37.989918,-3.9022353,-0.35647583,-1.0236206,3.1357117
2019-07-01T19:01:59.833Z,-0.8566533,0.15389395,-0.4823461,-77.08479,-38.19185,7.9992065,12.789917,-26.098633,8.357239,7.8054147,-3.11954,-5.0511727,-12.728769,-38.514374,5.143044,1.1263428,0.60025024,-2.5276184
2019-07-01T19:02:00.034Z,-0.76053244,0.15710284,-0.56730837,-4.1898346,7.697708,-7.951355,16.116333,-34.777832,9.54895,7.618038,-5.8350315,-2.021952,-9.932884,-34.20989,11.677266,-0.9189606,0.37165833,-3.461563
2019-07-01T19:02:00.236Z,-0.7262417,0.045314837,-0.55576515,1.4045868,9.932602,-0.85902405,5.3497314,-38.197327,19.941711,7.558985,-6.2207565,-0.57820934,19.434862,-2.9588678,-6.576931,2.1239014,0.17440796,1.6990662
2019-07-01T19:02:00.440Z,-0.7284913,0.12511761,-0.54907966,5.4317017,9.013763,0.4905243,-1.7425537,-39.968872,18.286133,6.8880863,-6.920844,-0.90915525,-1.4914165,10.390506,-0.580572,-0.36595154,0.40574646,1.1900177
2019-07-01T19:02:00.643Z,-0.73118454,0.040441375,-0.5966749,2.3976135,8.008774,0.40678406,-6.2683105,-38.82141,19.459534,8.296558,-5.179919,-0.7113018,4.742014,10.047352,0.60235643,0.06135559,0.0060577393,0.2888031
2019-07-01T19:02:00.853Z,-0.6528664,-0.13326804,-0.701178,0.8805542,9.152542,-0.20100403,0.8010864,-36.27472,24.220276,9.641571,-1.4156036,1.0984436,2.1714969,8.051037,0.04689449,0.5632477,0.76164246,-0.91111755
2019-07-01T19:02:01.052Z,-0.67615193,-0.29180518,-0.6552349,15.306885,13.203598,0.3900299,2.330017,-34.724426,25.527954,9.65285,1.5177363,-0.8302637,-1.7324743,10.79809,-3.1335342,0.26739502,-0.58258057,0.054901123
2019-07-01T19:02:01.254Z,0.5840872,0.5829261,0.56052816,0.49771118,-25.89273,6.0801697,31.741333,-14.511108,20.96405,5.6253257,7.2061796,-3.5492363,13.6071005,14.450893,-1.4118093,0.86605835,-2.2646027,-3.9431763
2019-07-01T19:02:01.453Z,0.2952282,0.66590667,0.5290832,61.80661,9.466003,4.6995087,25.23346,-8.973694,21.981812,-2.6215909,9.4306755,-0.5999982,-0.944947,-24.640055,7.0549645,-1.4122467,-1.0499573,-3.6040192
2019-07-01T19:02:01.657Z,-0.5204581,-0.34126118,-0.25739,9.116653,-1.2729797,-1.9669037,-31.089783,-7.0251465,30.801392,7.575059,-5.822889,2.2097166,36.7123,-26.543545,12.240201,-0.55378723,4.1855164,10.894424
2019-07-01T19:02:01.861Z,-0.54703224,-0.38300726,-0.42613882,5.785843,-0.8518524,1.9214325,-31.22406,-11.994934,31.307983,9.156689,-3.3468108,1.0603185,8.914967,2.8799036,-2.2443366,0.06636047,-0.46949768,-0.99853516
2019-07-01T19:02:02.069Z,-0.571393,-0.31713897,-0.46428677,12.732208,1.4404755,0.23210144,-32.287598,-5.2948,32.414246,8.921648,-3.8116121,1.4304549,3.252943,0.2703086,1.9002861,-0.25978088,0.19395447,0.34934998
2019-07-01T19:02:02.312Z,-0.6205116,-0.30428246,-0.46494195,10.482956,0.24885559,-1.2251282,-31.30188,-7.296753,35.74066,8.960913,-3.959772,0.438898,9.578131,3.3389828,-3.7812824,-0.022094727,-0.24537659,0.5673065
2019-07-01T19:02:02.506Z,-0.62509996,-0.31103328,-0.45908257,8.8367,0.5383911,-1.2969055,-31.651306,-4.336548,36.506653,8.979538,-3.93422,0.2453304,4.9962373,1.2865415,-1.0199697,0.2204895,-0.13554382,0.20059204
2019-07-01T19:02:02.733Z,-0.63216627,-0.32323986,-0.4810154,9.671783,0.34934998,-1.8927155,-30.761719,-7.398987,35.60791,9.224614,-3.327213,-0.08077196,5.3527336,2.3312607,-1.401277,-0.055496216,-0.06907654,-0.092437744
2019-07-01T19:02:02.928Z,-0.6241255,-0.34554955,-0.50429165,9.456436,1.1437683,-0.73220825,-32.244873,-6.175232,34.484863,9.470795,-2.5384424,-0.17528643,5.310444,1.7221891,-1.7774701,0.054275513,0.03538513,-0.25047302
2019-07-01T19:02:03.125Z,-0.6126676,-0.3475668,-0.5276699,9.564117,0.74894714,-0.33738708,-33.021545,-3.6727905,34.12018,9.57714,-2.1078708,0.07523071,4.6146197,1.9694104,-0.95706993,-0.015670776,0.1950531,-0.06770325
2019-07-01T19:02:03.326Z,-0.5256741,-0.41974992,-0.5107381,9.793823,0.03111267,-0.090927124,-33.25653,0.25024414,33.795166,9.673363,-1.3150522,0.9311752,4.367653,1.4170821,-1.6368909,0.70210266,0.2515564,-0.025604248
2019-07-01T19:02:03.568Z,-0.4822854,-0.44150266,-0.49315506,9.671783,0.25125122,-0.20817566,-36.34491,3.5629272,31.50177,9.633787,-1.1575338,1.421497,4.2341633,0.95473325,-1.1320747,0.5933533,0.26408386,0.06430054
2019-07-01T19:02:03.800Z,-0.44238126,-0.45823032,-0.46478057,9.78186,-0.27278137,-0.59580994,-37.513733,8.229065,30.761719,9.56052,-1.1594584,1.8500012,4.0886397,0.9746123,-1.3184781,0.5885925,0.25027466,0.17536926
2019-07-01T19:02:04.005Z,-0.4248985,-0.47844905,-0.43964276,9.61676,-0.18185425,-0.5766754,-36.49292,9.536743,30.682373,9.578427,-1.1270086,1.7759404,4.0896387,0.57106215,-1.4225823,0.37765503,0.011795044,0.1063385
2019-07-01T19:02:04.204Z,-0.43551987,-0.48167002,-0.42922112,10.389633,-0.9523468,-0.21534729,-34.91974,10.516357,30.743408,9.596958,-1.3074238,1.5360438,3.5871983,0.6951479,-1.3865457,-0.039016724,-0.036026,0.14134216
2019-07-01T19:02:04.410Z,-0.47053215,-0.4609174,-0.4287364,9.894318,-0.7728882,0.117248535,-35.421753,9.814453,32.131958,9.546503,-1.8306078,1.2975109,3.860217,0.43505287,-0.98482597,-0.33998108,-0.004272461,0.27352905
2019-07-01T19:02:04.614Z,-0.4933769,-0.44488272,-0.4513285,9.511475,-0.6508484,0.23449707,-36.55548,6.100464,31.34613,9.565996,-1.8271536,1.1504884,3.4598236,0.38917744,-0.6855199,-0.40602112,0.049057007,-0.013076782
2019-07-01T19:02:04.819Z,-0.5117515,-0.43532422,-0.47405806,10.025925,-0.5096741,0.17228699,-35.99701,4.168701,31.384277,9.617224,-1.6645344,0.9532699,3.1267319,0.47648537,-0.4102078,-0.36827087,-0.006713867,-0.0874939
2019-07-01T19:02:05.060Z,-0.52701485,-0.42469692,-0.4886109,16.058228,3.1322021,0.8518524,-35.98633,2.4887085,32.022095,9.6367655,-1.6211685,0.8215594,3.1873713,0.60452163,-0.3472705,-0.29582214,0.006362915,-0.0061798096
2019-07-01T19:02:05.254Z,-0.5128574,-0.4495969,-0.4962628,21.734009,-1.9453583,0.62931824,-33.335876,-8.485413,31.263733,9.7287245,-1.0273237,0.68332595,6.770918,2.3795137,0.16490722,0.039855957,-0.06687927,-0.18998718
2019-07-01T19:02:05.451Z,-0.37170053,-0.66792524,-0.60028315,-0.9834442,-12.32782,0.12921143,8.511353,-23.292542,33.93402,7.45895,6.148306,-1.6531153,14.962238,-5.3264565,1.5199414,0.23905945,-1.3600311,-4.5049286
2019-07-01T19:02:05.658Z,-0.15862632,0.7335282,0.55445325,-6.3625183,-78.39844,16.07019,10.424805,-17.36908,29.171753,-6.89941,6.8578973,-1.2400686,5.922955,-13.823992,1.7591588,-0.4131775,-1.9437103,-7.9729614
2019-07-01T19:02:05.861Z,-0.57005894,-0.35737607,-0.58808416,11.038086,-5.8695984,-1.4524384,-31.5979,11.408997,28.674316,9.7213955,-0.89647394,0.92800605,-9.893014,-38.87094,9.607499,-0.11213684,1.179718,9.917099
2019-07-01T19:02:06.063Z,-0.6054225,-0.304816,-0.52373505,9.9015045,-1.3088684,-0.33738708,-34.91516,4.2144775,25.608826,9.303863,-2.995992,0.7953356,30.60754,-9.620964,-0.10674164,-0.021408081,0.12591553,1.1307678
2019-07-01T19:02:06.273Z,-0.59948784,-0.3025121,-0.54490775,8.925232,-2.0315094,0.6652069,-34.439087,3.050232,26.919556,9.386504,-2.6714208,0.9630283,1.1670532,-1.2870882,0.25618756,-0.15275574,0.13500977,-0.23568726
2019-07-01T19:02:06.472Z,-0.59818643,-0.31778964,-0.5466657,9.707687,-2.3018951,0.04307556,-34.2041,1.2512207,25.865173,9.482039,-2.3683121,0.8077285,4.2041407,-1.0120876,-0.20870557,-0.013656616,-0.0519104,-0.16384888
2019-07-01T19:02:06.671Z,-0.60291517,-0.31413114,-0.55548453,10.748566,-2.6990967,-2.3856506,-37.39624,-1.1199951,22.265625,9.518664,-2.2394922,0.7416754,3.7226076,-0.76475775,-0.51831985,-0.17797852,0.04508972,-0.07972717
2019-07-01T19:02:06.876Z,-0.5908115,-0.12741086,-0.74017644,2.7828522,-3.907486,10.368103,-39.17694,-2.746582,19.441223,9.313425,-1.5652325,2.6420736,3.5523334,-3.366189,-0.89587355,-2.2848053,0.8934021,-0.84399414
2019-07-01T19:02:07.108Z,-0.2274261,0.16187848,-0.96014845,0.36610413,-5.108673,8.487335,-38.934326,-15.092468,-3.3218384,4.239314,-3.1095593,8.278239,3.039796,-1.750833,1.9275537,-3.2757568,4.9132996,-1.4934082
2019-07-01T19:02:07.318Z,0.053676147,-0.15892014,0.96748143,-1.0576324,-3.0460663,8.449051,-14.950562,-12.202454,-38.980103,1.6086397,-2.8162773,9.254795,-0.1564014,-3.398832,2.9174056,-0.2374878,2.117035,-1.667923
2019-07-01T19:02:07.509Z,-0.011236483,-0.12164057,0.95304424,-1.3710938,-2.3928223,8.858231,3.187561,-12.80365,-41.12854,0.45105994,-2.3348155,9.513967,-1.2422204,-1.6680872,1.811688,0.21620178,0.81015015,-0.8529663
2019-07-01T19:02:07.740Z,-0.05641099,-0.06666792,0.93301886,-1.6295166,-1.9956207,9.724426,17.10205,-15.023804,-39.508057,-0.5758628,-1.6062065,9.6570635,-0.67025334,-1.391572,2.1461287,0.42874146,0.67349243,-0.7354889
2019-07-01T19:02:07.933Z,-0.065716,-0.03397151,0.9081134,-2.009964,-0.83987427,8.17627,21.028137,-13.977051,-37.268066,-0.89586973,-1.1362772,9.699313,-1.1589005,-0.97012395,2.4622383,0.3307495,0.23214722,-0.72431946
2019-07-01T19:02:08.138Z,-0.09112144,0.000416641,0.8834187,-1.4644012,-2.4478607,11.32045,25.489807,-11.279297,-37.05139,-1.5825948,-0.8142444,9.643794,-0.7284758,-0.37182564,1.2503653,0.24583435,0.39608765,-0.5514374
2019-07-01T19:02:08.343Z,-0.09960995,-0.04023845,0.8406955,-0.7728882,-1.7922211,9.750748,24.868774,-5.267334,-37.46338,-1.2235814,-1.7003891,9.580287,-1.3324113,-0.48009384,2.8518047,-0.33381653,-0.114227295,-0.9045868
2019-07-01T19:02:08.543Z,-0.072639845,-0.056955077,0.7837854,-1.763504,-1.9621124,8.700302,24.378967,-0.48065186,-38.208008,-0.43063018,-1.7505091,9.639537,-0.838901,-0.7043526,2.9701977,0.07203674,-0.24275208,-1.0941315
2019-07-01T19:02:08.744Z,-0.03472512,-0.025079526,0.70634633,0.06460571,-1.5433655,9.028122,25.276184,-0.050354004,-39.29138,-0.13351828,-0.82867235,9.770663,-1.1864359,-1.4563556,1.6018233,0.5562134,-0.023147583,-1.2943878
2019-07-01T19:02:08.950Z,-0.01855201,0.0038659205,0.6732085,-1.9860382,0.40678406,9.980469,25.970459,-0.8087158,-38.568115,-0.30100724,-0.21792847,9.799607,0.17320997,-1.366612,1.500865,0.3718567,0.12371826,-0.5482025
2019-07-01T19:02:09.155Z,0.015957871,0.021976605,0.6435172,-1.2681885,1.3734741,9.71965,25.294495,-5.302429,-38.320923,-0.1283069,0.5167966,9.792183,-1.0854656,-0.25325152,1.8820734,0.40374756,-0.13328552,-0.4480896
2019-07-01T19:02:09.361Z,-0.0056809443,0.06358559,0.6929423,-2.0817566,-1.1533356,11.36351,30.79071,-3.5827637,-34.49707,-0.97284454,0.78416544,9.726718,-0.8641871,0.7035825,1.835206,0.08547974,0.46102905,0.60365295
2019-07-01T19:02:09.573Z,-0.049458127,0.07188184,0.65573436,-2.3330078,-2.5962067,9.690933,28.852844,6.916809,-32.507324,-1.6933721,0.1970179,9.657332,0.53939426,-0.69186,1.8951392,-0.19526672,0.37942505,-0.5764313
2019-07-01T19:02:09.760Z,-0.10576354,-0.0030824554,0.5558728,-0.071777344,-1.6917267,10.559525,23.631287,16.4917,-33.740234,-1.1032397,-1.7439384,9.58707,-0.63042897,-0.94216573,2.1252694,-0.79733276,-0.22198486,-1.2949371
2019-07-01T19:02:09.985Z,-0.09573722,-0.0641928,0.48727262,1.8807526,-3.5653076,8.671585,18.229675,20.533752,-37.30316,0.17486718,-2.238866,9.5460615,-0.49240774,-0.6774751,1.998476,-0.20870972,-0.5140991,-0.86035156
2019-07-01T19:02:10.284Z,-0.15015964,-0.160431,0.5293245,0.62931824,-5.5417786,7.956131,20.36438,24.43695,-33.346558,1.0195987,-4.0790024,8.859602,0.13260573,1.3230975,1.6962199,-1.0272675,-0.69833374,0.61750793
2019-07-01T19:02:10.402Z,-0.22087537,-0.20371781,0.5701025,0.13400269,-6.644867,6.8602295,22.462463,26.168823,-31.948853,0.58549833,-5.590444,8.035826,0.18114683,-0.8220115,1.3402677,-0.8369293,-0.12069702,0.6719971
2019-07-01T19:02:10.568Z,-0.2837218,-0.23703933,0.5945239,-0.071777344,-7.401001,6.1591187,24.07074,27.340698,-28.074646,0.011308968,-6.737458,7.1257925,0.19015579,-0.73829603,1.1300607,-0.7480469,-0.02418518,0.50987244
2019-07-01T19:02:10.774Z,-0.30981714,-0.23786156,0.61531436,0.122039795,-6.4534454,8.350952,24.864197,22.094727,-31.13861,-0.5446516,-7.0312414,6.8143516,0.41973695,-1.2664223,0.5358877,-0.21109009,0.07997131,0.3514099
2019-07-01T19:02:10.981Z,-0.21063814,-0.20037189,0.68733597,0.5048828,-2.950348,7.389038,19.296265,6.7092896,-41.758728,-0.22373551,-5.451087,8.148987,0.20256974,-1.7788415,0.737689,1.0804749,-0.52497864,0.3746338
2019-07-01T19:02:11.185Z,-0.06077241,-0.14962761,0.77028126,-1.3615112,-6.7740784,9.044876,23.268127,5.3634644,-40.760803,0.8923225,-2.995869,9.295102,-0.3551976,-1.1656916,-0.14042187,1.470932,-0.87402344,0.45391846
2019-07-01T19:02:11.383Z,-0.122317165,-0.1588948,0.7639652,-2.8283234,-4.4602203,10.097717,29.060364,4.4677734,-35.66742,0.07856293,-3.8522158,9.018018,-1.2158409,-0.0743866,1.1418786,-0.47969055,0.39421082,0.053009033
2019-07-01T19:02:11.606Z,-0.18328057,-0.07191469,0.7692744,-1.8281097,-4.134796,8.676376,30.192566,6.059265,-33.654785,-1.908009,-3.270027,9.0463705,0.14893413,-1.4090476,1.9825611,0.32495117,1.0441742,0.24285889
2019-07-01T19:02:11.789Z,-0.18724619,-0.08584783,0.77064395,-1.2418823,-4.7066803,8.968292,28.076172,9.655762,-36.231995,-1.1799756,-4.7763186,8.483209,0.28413737,-1.0333903,0.87558746,-0.11634827,-0.035720825,-0.0025177002
2019-07-01T19:02:11.984Z,-0.24979696,-0.21205604,0.6686365,-2.7397766,-6.0921326,4.3860474,26.358032,19.204712,-32.104492,-0.49965903,-6.05126,7.7008433,-0.75302935,0.1512909,0.4696045,-0.71255493,0.18357849,-0.9266968
2019-07-01T19:02:12.178Z,-0.19299306,-0.15295161,0.69193035,0.8374939,-13.919052,-10.097717,25.956726,15.914917,-33.891296,-0.58318585,-4.644632,8.61729,-0.7653614,-1.4631763,-1.2739911,0.93588257,0.08229065,-0.0637207
2019-07-01T19:02:12.405Z,-0.505133,-0.36205366,0.5467852,-1.8424683,-5.6853485,-12.026321,23.513794,30.036926,-24.345398,-1.4330823,-9.441321,2.231166,0.44948578,3.5414314,4.0333576,-4.422989,0.58436584,0.124053955
2019-07-01T19:02:12.621Z,-0.5522999,-0.27945778,0.46268025,2.835495,-10.39682,9.623932,27.941895,35.873413,-5.743408,-1.5333128,-9.410914,2.2921698,1.5331949,-1.6996832,6.7007475,0.055130005,1.3024445,-0.07472229
2019-07-01T19:02:12.818Z,-0.6247251,-0.39223865,0.27134886,-4.1108704,-7.623535,-6.283554,21.868896,36.538696,16.311646,1.4314647,-9.662922,-0.86558694,-0.64886856,2.4376469,4.386323,-1.7438965,0.2924347,-1.6144714
2019-07-01T19:02:13.015Z,-0.7039545,-0.4353613,0.20699018,7.5350037,-8.690735,-5.9485626,17.721558,36.975098,18.38379,1.5959647,-8.969088,-3.6302538,-1.1244751,-1.019505,-1.1137335,-1.4714355,-0.055511475,-0.14527893
2019-07-01T19:02:13.214Z,-0.6782612,-0.35799322,0.18776463,-7.360321,-3.768692,-13.988449,18.476868,32.74231,25.569153,1.8107677,-9.481517,-1.7298424,2.035276,1.257741,-3.0236785,0.94070435,1.0987244,0.2849579
2019-07-01T19:02:13.475Z,-0.86841255,-0.16220473,0.16568452,14.909683,-9.253052,-19.869995,26.385498,22.332764,25.694275,-1.4276491,-7.9922457,-5.5005646,-1.8392761,2.958561,-0.61910486,-2.1274567,1.2278595,2.1697388
2019-07-01T19:02:13.685Z,-0.40735808,-0.6071467,0.36197436,-5.11586,-5.2043915,-6.41037,16.513062,42.300415,-11.289978,3.9941926,-8.930686,-0.67798615,-2.2555091,1.0622492,-4.7308035,3.1979828,-4.595993,-4.563568
2019-07-01T19:02:13.893Z,-0.62551564,-0.2897189,0.41777214,-0.51924133,6.130417,9.451645,35.1532,27.21405,-11.880493,-1.7624401,-9.634714,0.48627597,-2.186361,2.840765,-0.43199414,0.2512207,2.9133759,2.7628326
2019-07-01T19:02:14.097Z,0.069400825,-0.12910067,0.53377396,7.7431793,1.4644012,10.535599,17.619324,-0.10070801,-42.774963,2.8353567,-0.21793614,9.385288,-5.5449004,2.5083852,1.3996043,7.364792,-3.0814667,-1.0943298
2019-07-01T19:02:14.298Z,-0.29606324,0.005776695,0.47355705,-9.76033,2.0937195,-1.036087,38.39264,11.477661,-13.404846,-2.8438218,-4.763021,8.0868225,7.6278677,6.272029,7.9662642,-2.9065552,3.435852,-0.27819824
2019-07-01T19:02:14.498Z,-0.33207837,-0.057866197,0.6163781,9.394226,-0.08375549,21.135803,35.44159,-3.8482666,-26.901245,-3.2068734,-5.334677,7.5780983,-4.159127,4.1376457,-2.1621723,-1.0003357,-0.86987305,1.1384583
2019-07-01T19:02:14.701Z,0.1853476,-0.19213276,0.6540861,0.49771118,4.0917206,9.396622,17.791748,-7.3638916,-40.16266,5.0448203,0.10801888,8.408835,-3.9212124,2.0921974,6.0359435,2.8603058,-4.8025208,-0.97532654
2019-07-01T19:02:14.909Z,0.10263945,-0.13099289,0.62692344,5.458023,2.148758,5.8672028,19.134521,-6.260681,-39.08844,3.2174785,-0.0785246,9.263479,-1.1623533,3.8888102,1.0821905,-0.509079,0.9722748,-0.4100952
2019-07-01T19:02:15.118Z,0.1964974,-0.15421343,0.6175181,7.8771667,4.754532,27.483963,9.814453,-15.65094,-36.312866,4.635787,1.0066756,8.582917,-2.4296525,2.0953367,1.164207,0.44534302,-0.9147644,-0.21534729
2019-07-01T19:02:15.319Z,0.16756546,-0.0074174204,0.5777822,0.07417297,-0.7800598,-0.071777344,24.655151,-3.2684326,-39.234924,2.0150933,2.5411131,9.254865,3.0802965,4.640939,12.67165,0.4565277,1.3047638,-0.95602417
2019-07-01T19:02:15.510Z,-0.17482808,-0.27903152,0.55252343,-0.0382843,-0.5647125,0.007171631,17.480469,26.15509,-31.439209,2.2958827,-5.649358,7.6801085,-2.0791206,5.2361917,-3.3464408,-4.495178,-0.42411804,0.82740784
2019-07-01T19:02:15.740Z,-0.34748518,-0.5603893,0.7126025,0.69392395,-6.570694,3.6873474,19.143677,24.430847,-28.105164,-2.2229874,-9.465333,1.279139,5.260455,-7.887371,5.9465623,-0.016403198,-2.8197632,1.810852
2019-07-01T19:02:15.937Z,-0.29787144,-0.44039613,0.76160246,-2.926422,-0.8279114,-2.2588196,23.474121,9.939575,-30.706787,-1.2490493,-8.743105,4.2624383,0.8221184,-3.4251547,2.405509,1.7154083,0.5625,-0.74954224
2019-07-01T19:02:16.142Z,-0.34424734,-0.20476636,0.75219,-7.680954,-17.472397,29.491547,31.480408,17.428589,-15.916443,-2.9772694,-6.5536942,6.6599803,0.5194714,1.5520868,-4.116834,2.170868,2.1122742,-0.4672699
2019-07-01T19:02:16.348Z,-0.54354346,-0.34560984,0.42239386,3.0101776,-11.172089,16.546371,24.142456,30.981445,-11.947632,-0.18013145,-9.6618395,1.6693734,-4.448501,-5.8969383,15.963082,-3.1148682,1.6337738,-2.761078
2019-07-01T19:02:16.539Z,-0.25028634,-0.2732927,0.540251,-1.0241241,-0.48812866,-0.059814453,-2.4673462,24.653625,-35.328674,1.397607,-6.6045966,7.1131134,-2.0434318,-5.6928754,10.881889,3.3047028,-0.89411926,-0.484375
2019-07-01T19:02:16.751Z,0.161967,-0.6019812,0.37559634,-0.5048828,-0.033493042,-0.13160706,-43.80951,9.806824,-15.086365,9.290213,-2.2560406,2.1846328,-8.512724,1.2008321,-1.9087557,0.71687317,-4.999359,-2.8989563
2019-07-01T19:02:16.943Z,0.3308363,-0.8286731,-0.03299879,-0.21774292,16.11087,-22.222137,-30.233765,-11.590576,40.18097,7.104415,3.4581547,-5.808514,-5.9634967,-2.6868508,4.284252,-2.0253143,-4.687256,-2.5072632
2019-07-01T19:02:17.153Z,-0.41502497,0.86024386,0.2961876,-2.4598236,-0.9068756,-13.708481,-19.136047,1.5518188,47.83783,-2.4578545,4.9747233,-8.085881,1.9574074,2.6353269,-8.218008,-0.30369568,-5.0038757,-2.495285
2019-07-01T19:02:17.353Z,0.5439896,-0.8366489,-0.010580952,4.031906,0.2632141,-8.944366,-39.689636,11.404419,39.512634,0.92260075,0.846906,-9.726353,-1.3607736,0.0947755,-3.2879367,1.9989777,2.3436737,-1.1543732
2019-07-01T19:02:17.556Z,0.51185966,-0.8446722,0.040703874,5.5633087,1.1772614,-7.199997,-49.842834,11.25946,27.893066,2.9141054,0.84394604,-9.325563,0.68556833,0.5864634,-1.7366672,-0.08744812,1.0350647,0.3202057
2019-07-01T19:02:17.760Z,0.5023156,-0.8025775,0.07340936,5.1254272,1.3471527,-8.791229,-51.531982,8.183289,24.768066,5.6550145,1.9311419,-7.7757244,0.46239567,-0.2697227,-1.3270073,-0.6198883,1.6428223,-0.07221985
2019-07-01T19:02:17.967Z,0.51141226,-0.82555556,0.04955667,3.3643036,-0.026321411,-10.58107,-46.185303,11.962891,34.207153,4.2757063,1.5383568,-8.69035,2.111147,0.9518635,0.102482796,0.3091278,-0.9004059,-0.057861328
2019-07-01T19:02:18.168Z,0.5173505,-0.8430044,0.046915345,2.8115692,1.002594,-10.13121,-42.182922,11.726379,36.177063,2.7843747,0.6409138,-9.381198,1.2850051,0.4559735,-1.5568523,0.51797485,-0.861496,-0.009490967
2019-07-01T19:02:18.370Z,0.5036496,-0.85390496,0.0373388,3.390625,0.7728882,-9.451645,-43.1427,11.653137,37.25891,2.4733012,0.6159047,-9.469627,0.8876362,0.30901808,-1.3569746,-0.02154541,-0.1946106,0.16308594
2019-07-01T19:02:18.569Z,0.49754253,-0.85502744,0.030457133,4.3980103,-0.37088013,-10.329819,-36.73401,14.170837,40.22827,2.6954775,0.8847917,-9.387328,0.8259425,-0.061971307,-1.3907671,-0.17370605,0.100860596,0.08042908
2019-07-01T19:02:18.778Z,0.4011995,-0.914988,0.036197897,0.34695435,-1.2658081,-15.538986,-22.810364,32.292175,31.869507,0.69629794,-0.46918905,-9.77064,2.5597353,0.08882719,-1.5958033,0.52867126,-1.1446991,1.0523834
2019-07-01T19:02:18.980Z,-0.36346433,0.89608836,-0.22269332,0.095718384,-6.9224396,-7.8556366,-20.854187,38.7146,19.429016,-0.58833575,-4.796445,-8.533367,0.68693036,1.6318698,-4.68277,2.4644012,-0.73431396,0.09565735
2019-07-01T19:02:19.184Z,-0.24483645,0.90412813,-0.34703594,0.85902405,-3.9912262,-0.112457275,-25.732422,38.50708,13.998413,0.83976483,-6.3778405,-7.4019136,-0.25241375,-0.4643736,-1.5683756,1.0155945,1.4841156,0.695282
2019-07-01T19:02:19.385Z,0.20661852,-0.91529703,0.3217097,4.433899,-5.1876373,-8.382065,-27.27356,33.09021,22.398376,3.577537,-5.262041,-7.4620733,-2.4295065,-0.21327114,3.0197182,-0.77485657,1.8326721,-0.14472961
2019-07-01T19:02:19.583Z,0.25935134,-0.9214693,0.2766699,1.6462555,-2.388031,-4.359726,-26.2146,26.38855,30.80597,2.9286072,-4.572105,-8.166365,1.5395031,-1.4693141,-1.3947325,-0.3114624,-0.6646118,-0.35798645
2019-07-01T19:02:19.786Z,0.33202386,-0.92867,0.12466638,-0.37327576,-0.49291992,-7.934601,-20.603943,25.04425,35.81543,2.7896156,-1.5636013,-9.270576,-0.18470883,-2.4295971,0.3514576,-1.5884857,-0.32785034,-0.7076416
2019-07-01T19:02:19.988Z,-0.3627211,0.9173572,-0.15087064,-2.8091736,-2.1296082,-9.315262,-8.1970215,26.113892,42.018127,-0.0825837,-3.1715662,-9.279264,0.48362035,3.9100153,-1.3493652,1.0579834,-1.6308289,-0.31730652
2019-07-01T19:02:20.196Z,-0.35474908,0.91229194,-0.07972986,-6.6831512,-3.4719849,-7.8053894,9.007263,20.176697,43.04962,-2.8174973,-2.7379231,-8.985314,0.96394086,0.16094613,-0.83819914,-0.17779541,-1.4708405,0.26559448
2019-07-01T19:02:20.395Z,-0.3042151,0.92640734,0.04551363,-5.9892426,-1.0887299,-9.2482605,-0.6088257,9.300232,47.343445,-4.217033,-0.46864077,-8.841232,-0.9058814,-1.6560667,-1.4301982,-0.99079895,-0.6396942,0.85954285
2019-07-01T19:02:20.596Z,-0.372856,0.9143517,0.14164665,2.7134552,4.598999,-5.6398773,-29.841614,-27.757263,25.592041,-2.2880707,2.0295823,-9.317506,-3.9047143,-2.9955616,-2.1159563,-1.4565887,1.1911469,0.095947266
2019-07-01T19:02:20.794Z,0.672415,-0.5806066,-0.20328993,-4.610962,7.3914337,1.0959167,-21.54541,-41.99066,14.273071,2.006273,7.743486,-5.673067,-0.12525308,-3.1093116,-4.0656285,-3.54039,4.7051697,-3.0626678
2019-07-01T19:02:21.004Z,0.7095586,-0.501754,-0.36279133,-2.3186493,8.652451,-3.637085,-13.68103,-40.367126,22.891235,-1.7385491,8.251586,-5.0059114,-2.721528,0.44371653,5.07184,-0.1207428,-0.87664795,-1.651062
2019-07-01T19:02:21.207Z,0.7037968,-0.55843157,-0.36750057,-3.8404846,8.042282,-0.85902405,-10.856628,-35.931396,29.719543,-2.44043,7.342841,-6.0247297,-0.99763393,1.6797018,1.148294,0.89805603,-0.547699,-0.0309906
2019-07-01T19:02:21.412Z,0.6944918,-0.58952665,-0.36994892,-2.0362854,6.496521,-7.0372925,-8.328247,-33.818054,32.687378,-2.9299266,6.7623596,-6.469654,-0.55268145,1.1244469,-1.6394405,0.48162842,-0.45129395,0.044891357
2019-07-01T19:02:21.613Z,0.6306003,-0.63879675,-0.40968445,-2.8618164,8.415558,-2.1870422,-7.2387695,-33.02765,33.9386,-3.0297637,7.144036,-5.996138,0.40014577,0.67098045,0.1389432,-0.026184082,-0.7006531,0.54512024
2019-07-01T19:02:21.813Z,0.52427644,-0.72712123,-0.4234277,0.7992096,2.148758,-7.7742767,-5.963135,-31.6391,34.999084,-2.4870508,7.384747,-5.95403,-0.70388865,1.3120275,0.9226322,0.18133545,-0.13285828,0.49241638
2019-07-01T19:02:22.008Z,0.18643214,-0.81590396,-0.5264089,4.3046875,4.381256,3.6634064,-6.706238,-28.787231,36.894226,0.47220838,8.971615,-3.9316072,0.2252661,-4.2452765,-5.4180417,-1.1439514,-2.190384,3.0147552
2019-07-01T19:02:22.207Z,-0.22346528,-0.45054922,-0.68711406,0.24645996,-2.7158508,18.40799,-27.294922,-31.872559,14.079285,7.6451,3.773691,4.845832,-0.89888334,0.4853866,-2.1943812,-4.7854614,1.5766602,5.1564636
2019-07-01T19:02:22.418Z,-0.17407519,-0.10799649,-0.7941904,2.4263153,1.483551,5.5537415,-31.809998,-9.446716,-30.326843,3.9233158,-0.2710226,8.98357,-0.7705517,-2.4853284,8.468794,-2.3408356,2.7081146,0.39881897
2019-07-01T19:02:22.621Z,-0.07939227,-0.085597485,-0.80087906,4.8263245,0.17945862,15.175278,-24.87793,-13.990784,-33.877563,2.2331316,0.4299895,9.53932,0.3834859,1.0386847,-0.8574114,0.40057373,0.9329376,0.22319031
2019-07-01T19:02:22.818Z,-0.049518645,-0.18067455,-0.8590968,5.099106,3.974472,7.561325,-21.252441,-15.792847,-33.410645,2.5221872,2.5817268,9.118314,2.9641964,-1.9682889,4.503893,1.0342255,-0.2789154,-0.9851532
2019-07-01T19:02:23.040Z,-0.016849171,-0.24004821,-0.8960471,4.0486603,4.022339,5.83609,-17.811584,-24.195862,-29.751587,2.0526512,4.095421,8.670902,0.92368317,-0.08001256,1.9444346,0.63435364,-0.09779358,-0.9960327
2019-07-01T19:02:23.238Z,0.03700879,-0.37162903,-0.9014685,-0.72262573,4.5272217,3.2015991,-10.971069,-33.540344,-29.266357,0.9405157,6.729513,7.07103,3.241929,-3.0478706,2.7225842,1.5853577,-0.039520264,-1.262497
2019-07-01T19:02:23.439Z,-0.042352475,-0.3590759,-0.93004906,1.0504456,0.6125641,9.078369,-6.5429688,-39.312744,-27.07367,1.2332839,6.495681,7.242618,-0.7881485,-1.7233062,-2.5891395,-0.3306427,-1.3286285,-1.1273193
2019-07-01T19:02:23.681Z,0.17276686,0.2285195,0.95808655,1.7850494,1.9884338,11.648254,-16.69159,-34.762573,-33.509827,3.24306,4.296768,8.196996,-2.143277,-1.7721865,0.34242392,-1.466919,-1.654892,-0.33666992
2019-07-01T19:02:23.881Z,0.12909226,0.17070934,0.97522116,1.0863342,3.115448,12.098114,-12.173462,-35.292053,-39.163208,2.2816548,3.4070237,8.908234,0.1952219,-1.5832026,2.0698538,-0.63723755,0.34118652,-0.48614502
2019-07-01T19:02:24.084Z,0.06998518,0.16650315,0.98245007,2.0171509,3.1992035,8.781662,-3.704834,-35.70862,-44.352722,1.1964035,3.2723145,9.16684,-0.060239196,0.054011106,3.7257614,-0.03137207,0.6174774,0.07102966
2019-07-01T19:02:24.289Z,0.037185308,0.15525196,0.9856358,2.5435638,0.3062744,8.384445,-6.463623,-41.419983,-46.383667,0.5510673,3.041451,9.306787,1.0742936,0.25373316,0.8808193,-0.13430786,0.35003662,-0.11326599
2019-07-01T19:02:24.493Z,0.13041794,0.09983899,0.98620766,3.012558,-0.72024536,18.728622,-21.354675,-46.089172,-41.740417,2.4826212,1.9834481,9.277548,-0.5532589,-1.0656357,0.61706734,-0.5238495,-1.046402,0.10072327
2019-07-01T19:02:24.711Z,-0.18277186,-0.1043846,-0.9765022,-0.48335266,3.287735,10.851456,-31.852722,-49.139404,-29.77295,3.5952744,1.8333186,8.937748,-0.092229605,-1.4156536,1.4532738,0.08181763,-0.5696869,0.31929016
2019-07-01T19:02:24.913Z,0.026680637,0.012560634,-0.9984203,4.0989075,0.91645813,13.789841,-19.628906,-38.33618,-39.47754,-0.5342509,-0.22093911,9.789594,2.2361584,1.662144,1.2013664,-1.114502,2.2922974,0.1405487
2019-07-01T19:02:25.116Z,-0.31781757,0.009908443,-0.78582805,-0.8949127,-4.783249,4.811966,-38.346863,4.437256,-18.974304,4.7953367,-3.4591963,7.8236246,-1.3321066,4.4605227,6.9780755,-0.9135895,-3.9676514,4.3442535
2019-07-01T19:02:25.321Z,-0.5125691,0.31301257,-0.5231411,-0.25842285,-3.1322021,0.08135986,-31.338501,37.631226,-9.104919,1.5470637,-9.290471,2.7320545,-0.20272768,5.04422,5.141919,-3.7447357,0.058776855,2.785492
2019-07-01T19:02:25.519Z,-0.73742765,0.49533772,-0.33084643,-1.5433655,15.158539,-23.169708,-32.936096,32.93457,18.849182,1.6917907,-7.819455,-5.671361,-2.054687,3.6753783,5.985113,-4.777527,0.45480347,-0.045700073
2019-07-01T19:02:25.720Z,0.74826694,-0.6412157,0.1172806,7.6785736,5.268997,-13.134201,-35.983276,10.995483,29.759216,3.2709231,0.3334779,-9.23906,-1.4261339,4.3620477,-2.8731432,-4.994507,1.1079407,0.12124634
2019-07-01T19:02:25.916Z,0.5754904,-0.7591267,0.27508345,-6.381653,-11.571686,3.3212433,20.111084,12.0147705,-34.70459,5.038589,-2.6298223,-7.9916863,2.3119082,4.933731,-3.9319372,1.1551819,1.1042786,1.6645508
2019-07-01T19:02:26.123Z,-0.24831833,0.40423408,-0.42402288,-4.022339,-12.976273,6.3912354,-27.20642,22.927856,-4.8690796,-4.051212,-7.11904,5.392339,1.0075934,-4.264362,-3.6610672,6.975052,2.9368896,7.4359894
2019-07-01T19:02:26.373Z,-0.7224908,0.40227193,-0.45103136,2.3377838,2.6727905,-7.791031,1.6967773,18.539429,-18.727112,3.741963,-8.3168745,-3.6052313,-0.7000209,1.7455978,-2.6082828,-1.3003998,2.1247406,2.295517
2019-07-01T19:02:26.614Z,-0.04098978,0.67920196,-0.20818026,-21.499512,11.009384,9.231506,21.67511,7.98645,-28.112793,-9.192422,-3.3381133,0.72578025,-1.2542777,-6.698656,-2.6840086,3.0004425,2.636032,9.096451
2019-07-01T19:02:26.811Z,0.038786225,0.4922696,-0.80232203,-18.5372,-9.286545,18.53241,8.934021,-18.144226,-38.954163,-3.8479602,-7.4913507,5.024266,-4.6913776,-7.1386757,10.52877,4.9449615,0.5009918,-4.615265
2019-07-01T19:02:27.010Z,-0.25479272,0.55097103,-0.7414099,-12.323044,-19.740784,23.576477,8.74939,-13.885498,-35.43396,0.613938,-9.441414,2.5793762,-6.3676724,-3.695766,13.548917,-2.2658691,-2.156723,-2.1612701
2019-07-01T19:02:27.254Z,-0.26932243,0.56009436,-0.7662418,0.28234863,-8.760132,13.423737,16.47644,-4.4692993,-36.3266,2.2547514,-9.279451,2.2312038,-4.207464,-7.97764,11.66658,-0.8028412,-0.048980713,-1.2202301
2019-07-01T19:02:27.438Z,-0.4765488,0.42847872,-0.74209106,9.667007,-2.9694977,1.1533356,-12.1521,11.990356,-44.714355,5.2848234,-8.072972,1.7516094,-1.2989435,-6.154846,9.646553,0.63575745,-2.8809204,-1.4848633
2019-07-01T19:02:27.677Z,0.52253085,-0.18367617,0.8325953,7.030121,2.0865479,6.1615143,-6.277466,-11.135864,-48.53058,8.544088,-2.9675858,3.789772,1.5710678,-0.6389799,2.810781,1.565567,-0.043121338,-2.9758606
2019-07-01T19:02:27.878Z,0.38080037,-0.064690314,0.91886175,2.4622192,0.9834442,8.035095,11.270142,-14.942932,-46.47522,6.9650383,-0.5637231,6.8804684,2.0377135,0.92404044,2.096585,1.2851715,1.7161255,-0.5890198
2019-07-01T19:02:28.079Z,0.22644897,-0.07016797,0.96398354,1.4309082,0.8542328,9.552155,22.271729,-16.290283,-41.841125,4.447356,-0.79123306,8.70433,0.79291606,1.6751294,3.6705441,0.032943726,1.5566254,0.40431213
2019-07-01T19:02:28.285Z,0.16352001,-0.09988315,0.9627438,0.6795654,-1.4356995,10.640884,20.822144,-10.542297,-43.32733,3.4614866,-1.2740884,9.086539,-0.58602834,1.9258779,3.5869026,-0.38208008,0.48632812,0.0071411133
2019-07-01T19:02:28.510Z,0.09874713,-0.12463164,0.91608167,5.893524,-6.180664,13.050461,23.944092,-7.2738647,-43.16864,2.6740673,-1.526351,9.310746,2.5109253,-3.932603,4.1602135,-0.83081055,-0.51135254,-0.16885376
2019-07-01T19:02:28.718Z,0.24704729,-0.009382746,0.6854961,-0.9906311,-2.428711,10.72702,31.341553,1.2161255,-46.05713,3.4475362,3.1920729,8.607878,-1.616646,-5.9685645,3.5497322,1.4524231,-0.99980164,-4.0537415
2019-07-01T19:02:28.917Z,0.17513552,-0.10067551,0.24289016,-0.9906311,-0.39959717,6.9918213,-0.5065918,17.979431,-45.944214,2.7077787,2.779463,9.00627,-2.47783,-4.251803,4.836577,-1.6046753,-1.5602112,-4.3538055
2019-07-01T19:02:29.115Z,0.17328052,-0.10316215,-0.15219048,-8.817551,3.4002075,21.710083,-17.489624,14.826965,-29.579163,1.4404747,3.5962818,9.009006,-1.1512702,-4.3416405,3.3902497,-0.23649597,-0.6248474,-3.5489197
2019-07-01T19:02:29.345Z,0.10331716,-0.018470334,-0.31621662,0.098098755,-1.1198425,9.023331,-21.257019,13.720703,-31.842041,-0.29921266,2.0251634,9.590598,-2.535899,-0.97773373,3.1544647,-0.9218445,0.36097717,-1.3882751
2019-07-01T19:02:29.538Z,-0.014212048,0.042021904,-0.23002519,2.4143524,-0.6891327,9.923035,-17.37976,15.948486,-31.84967,-0.7371353,-0.46057263,9.768055,0.7284034,-0.9364219,2.8179188,-1.3225098,0.29963684,0.95184326
2019-07-01T19:02:29.732Z,0.05121556,0.044400636,-0.42456704,-0.89730835,-1.804184,6.2859497,-17.988586,1.0742188,-36.66382,-1.2127259,0.5371929,9.716538,4.1947036,-1.8682909,4.336341,0.8383789,0.42913818,-1.91539
2019-07-01T19:02:29.935Z,0.07398632,0.019428732,-0.6049937,-1.0959167,-1.6701965,8.884552,-20.617676,-0.3463745,-35.78949,-1.1799253,0.91953814,9.691884,-0.57718,-2.1359096,0.17076778,0.51675415,-0.19735718,-1.8026276
2019-07-01T19:02:30.153Z,0.012666795,0.055277105,-0.65501803,0.87815857,-1.0145569,12.313461,-22.627258,3.0792236,-34.17816,-0.9796313,-0.52295524,9.743574,-0.85803574,-1.3379812,2.9939075,-0.64645386,-0.16308594,-0.5567627
2019-07-01T19:02:30.351Z,-0.02907373,0.06339696,-0.6707164,0.74894714,-0.6771698,9.602402,-22.57843,0.6088257,-34.606934,-0.5357143,-1.2550595,9.711243,1.2183086,-0.2418052,3.9410186,-0.37309265,-0.16027832,-0.21955872
2019-07-01T19:02:30.548Z,-0.0041806595,0.03661145,-0.70845693,0.46420288,-0.84706116,9.750748,-22.158813,-2.798462,-33.883667,-0.4479995,-0.56651306,9.780018,0.9724562,-0.3830146,2.478135,0.3877411,0.032699585,-0.38809204
2019-07-01T19:02:30.748Z,-0.0015521805,0.024069538,-0.7310435,0.9451599,-0.33738708,9.047256,-22.972107,-2.998352,-33.665466,-0.2996601,-0.36587277,9.79524,0.4900844,-0.59281623,1.7184544,0.13258362,-0.048614502,-0.2224884
2019-07-01T19:02:30.950Z,-0.0129005555,0.026265882,-0.73232377,0.7393799,-0.73220825,10.817947,-23.893738,-1.965332,-33.869934,-0.16518357,-0.5494025,9.789854,0.8413838,0.1514591,1.264565,-0.103637695,-0.041168213,0.014343262
2019-07-01T19:02:31.151Z,-0.030059533,0.026253112,-0.73550504,3.706482,0.07417297,10.43988,-28.019714,-4.962158,-30.384827,0.085373476,-0.77746814,9.77541,0.8979385,-0.03849244,2.8542223,-0.123916626,-0.09767151,-0.025177002
2019-07-01T19:02:31.362Z,-0.040124584,-0.06543245,-0.73970395,2.3784637,0.41156006,7.4368896,-27.145386,-8.917236,-30.244446,1.4400982,0.42317113,9.6911,0.65180886,-0.29790112,3.07971,0.6398468,-0.69955444,-0.02017212
2019-07-01T19:02:31.567Z,-0.020951167,-0.07520419,-0.76591676,2.0889282,0.9690857,9.968506,-25.492859,-7.9315186,-30.26123,1.2560525,0.8674862,9.687115,1.7626346,-0.47903532,-0.6998272,0.20185852,0.1328125,-0.31723022
2019-07-01T19:02:31.764Z,-0.026316145,-0.06589071,-0.7690416,1.8448639,0.71066284,10.29393,-26.383972,-8.06427,-30.177307,1.2178918,0.66597754,9.707915,0.7060287,0.13053942,1.5422478,-0.10853577,0.034957886,-0.016815186
2019-07-01T19:02:31.974Z,-0.033867054,-0.066850625,-0.7716026,1.0863342,0.7346039,8.781662,-24.316406,-9.869385,-33.421326,1.340761,0.59210867,9.696502,0.8499832,0.4511307,1.5796337,-0.053359985,-0.04550171,-0.024261475
2019-07-01T19:02:32.176Z,-0.00055036496,-0.03829985,-0.78979784,1.9286194,1.3423767,8.049454,-24.002075,-10.145569,-32.737732,0.46837938,0.5866775,9.777875,0.9226577,0.29526052,0.43725872,-0.032043457,0.47148132,-0.22395325
2019-07-01T19:02:32.367Z,0.0148003,-0.056916237,-0.78060704,0.5001068,-1.3639069,9.073578,-25.572205,-3.8375854,-32.44629,0.46802953,1.0520318,9.738817,0.84529066,0.5781598,-0.040309906,0.22947693,0.04069519,0.15307617
2019-07-01T19:02:32.587Z,-0.05502196,-0.010385435,-0.7715212,1.0337067,-2.371292,13.849655,-28.533936,1.5563965,-29.714966,0.9616837,-0.52674943,9.745157,0.19712806,-0.06441736,0.3862667,-0.814209,-0.24684143,0.102493286
2019-07-01T19:02:32.800Z,-0.16174696,0.05299529,-0.7505967,2.4191437,-7.4775696,39.639496,-23.724365,-6.060791,-30.557251,1.7175612,-2.8056319,9.238441,0.5917399,-0.0045599937,4.800621,-1.2525635,-0.42619324,0.083618164
2019-07-01T19:02:32.991Z,0.03499026,0.009594201,-0.7960155,-1.5673065,-1.9980011,-0.3062744,-18.64624,-35.57892,2.7130127,-0.65997756,0.26484933,9.780832,5.9233985,-8.279274,21.872646,1.9185181,1.4706116,0.17951965
2019-07-01T19:02:33.192Z,-0.13652764,-0.54315096,-0.7928261,-1.5840454,-0.4905243,-0.01675415,22.975159,-33.026123,1.7562866,4.68357,7.8023324,3.654884,-5.1567407,-9.41946,-2.815532,4.1191864,-5.1019745,-2.4665833
2019-07-01T19:02:33.416Z,0.19354089,0.12467894,0.3974462,-0.33499146,-0.122039795,0.13400269,16.976929,-3.1585693,-37.374878,-0.66346246,4.343774,8.767088,-0.06377837,-3.1325793,-5.9781446,-0.07841492,-6.3320312,-4.0167236
2019-07-01T19:02:33.618Z,-0.15309985,-0.40975302,0.2954502,6.5060883,-9.363113,10.734207,-4.1122437,28.337097,-30.39856,5.938608,-4.9247994,6.0538983,-0.0689826,-0.76089215,-2.1507654,-5.1599884,-4.0695496,0.19741821
2019-07-01T19:02:33.820Z,-0.17255303,-0.08997205,0.19180088,1.2275238,-2.3736877,13.610382,7.814026,28.611755,-29.54712,1.0483811,-3.594013,9.063904,-0.6927473,0.09417534,7.6242914,0.32666016,3.618988,-0.5158386
2019-07-01T19:02:34.019Z,-0.064087845,-0.036506075,0.29192188,-2.045868,-0.20817566,9.303299,14.906311,20.591736,-34.4162,0.31583944,-1.4076605,9.699954,1.5293926,-3.903791,5.574262,1.2935333,0.33866882,0.55648804
2019-07-01T19:02:34.228Z,-0.06479984,0.08361677,0.33574352,-2.670395,-1.4763641,11.1840515,22.483826,15.103149,-32.59735,-1.961741,-0.63897187,9.587162,0.41908073,0.19397402,2.4114814,0.3815155,1.2061157,0.19515991
2019-07-01T19:02:34.446Z,-0.0026973146,0.05493069,0.4891559,0.050247192,2.177475,11.71286,23.530579,8.421326,-36.190796,-0.9636881,0.48095274,9.747327,-1.8840895,-1.6137701,0.99488163,0.39353943,-0.58117676,1.5313721
2019-07-01T19:02:34.643Z,-0.02244771,0.043130018,0.40933847,0.28953552,3.3762665,9.698105,21.46759,12.5,-34.67102,-0.95092875,-0.054858856,9.7602825,0.7407273,1.1201015,3.2821732,-0.2411499,0.016799927,-0.8526001
2019-07-01T19:02:34.844Z,0.036428194,0.015083829,0.40474173,0.7130585,1.071991,9.054443,18.44635,8.692932,-39.627075,0.018901663,0.77247274,9.77616,0.95669615,1.7108245,1.7081757,0.38200378,-0.4636383,-0.07582092
2019-07-01T19:02:35.045Z,0.045252245,0.0014545865,0.42772865,1.0265198,1.6103668,9.76033,16.802979,9.370422,-37.61139,0.3538734,0.81345487,9.766445,0.37920406,0.31544363,1.5320368,0.020492554,-0.14439392,0.21427917
2019-07-01T19:02:35.251Z,0.072676234,0.010483274,0.44988713,0.6652069,1.454834,10.322632,17.649841,4.9865723,-38.461304,0.45827144,1.3612145,9.700901,0.51815414,0.19833958,1.9522681,0.2940979,-0.02772522,0.115997314
2019-07-01T19:02:35.455Z,0.07286451,0.017455826,0.47951597,0.23210144,1.4069824,10.085754,17.799377,4.853821,-39.17389,0.38594213,1.4136851,9.696543,0.41329134,0.4584309,1.842124,0.032714844,0.08859253,0.26461792
2019-07-01T19:02:35.659Z,0.078061685,0.017116707,0.49754784,0.85902405,1.7946167,9.59761,17.404175,3.4545898,-40.501404,0.4717963,1.4894726,9.681389,-0.0018411577,0.004673481,1.9796939,0.056396484,-0.025405884,0.15403748
2019-07-01T19:02:35.860Z,0.086988896,0.002991996,0.49285486,0.14117432,0.8805542,9.487549,16.677856,3.2546997,-39.75525,0.79007447,1.5060073,9.658059,0.002250731,0.26419795,1.5403051,0.0035095215,-0.18080139,-0.058776855
2019-07-01T19:02:36.052Z,0.0721106,-0.0008320722,0.47991204,-1.0911255,-2.4885406,9.016159,16.563416,4.3426514,-39.907837,0.6930215,1.2287812,9.704648,-0.39833122,-0.28784454,1.4251204,-0.14578247,0.008377075,-0.182724
2019-07-01T19:02:36.259Z,-0.033073798,0.026157632,0.384539,-1.5337982,3.4432678,7.137787,17.779541,14.816284,-35.935974,-0.7225402,-0.4009,9.771775,-0.85216326,-1.665691,1.8390713,-0.8006439,0.6653137,-1.0460052
2019-07-01T19:02:36.472Z,0.057885062,0.042450294,0.3180657,-0.5742798,2.0937195,9.049652,17.555237,10.002136,-37.43744,-0.4259816,1.3380873,9.705588,-1.7943634,1.692021,1.541357,0.89653015,-0.21263123,-0.62597656
2019-07-01T19:02:36.671Z,0.03679313,0.012521577,0.19653423,-2.7756805,2.634491,10.279572,12.547302,14.987183,-37.046814,-0.09878454,0.7552714,9.777024,-1.3461574,2.2200372,0.76027393,-0.34480286,-0.34042358,-1.0815582
2019-07-01T19:02:36.879Z,0.047555145,-0.030542633,0.0061880513,-1.5026855,2.8833466,10.650452,1.6433716,16.098022,-38.713074,0.60384446,0.9274977,9.743999,-1.8371825,0.8278145,0.5502825,0.010528564,-0.55514526,-1.7111816
2019-07-01T19:02:37.077Z,0.070451654,0.04021765,-0.20812838,-3.4743805,3.3236237,9.020935,-2.5054932,15.09552,-38.746643,-1.0564587,1.1827021,9.677577,-0.30669487,1.5419065,2.0391817,0.105895996,0.6193695,-2.261139
2019-07-01T19:02:37.283Z,0.09856409,0.052389205,-0.33727562,0.5048828,6.340973,7.401001,-2.4749756,12.336731,-40.06653,-1.6125048,1.4604979,9.562279,-1.0834976,1.8745809,-0.50996685,0.28779602,0.080825806,-1.4039764
2019-07-01T19:02:37.480Z,0.1393833,0.042621017,-0.41703185,-0.6508484,2.8426666,10.920837,-6.930542,7.9559326,-39.79187,-1.8900126,2.1039279,9.38998,2.1185527,3.040462,-0.51157,0.44662476,0.03164673,-1.0548553
2019-07-01T19:02:37.684Z,0.14529428,0.018243246,-0.4027846,-1.9238281,2.0626068,10.040283,-8.216858,6.3461304,-40.67383,-1.4710987,2.430598,9.386077,0.7706721,1.7999983,2.0591764,0.12580872,-0.16975403,0.07652283
2019-07-01T19:02:37.889Z,0.17031759,0.048234865,-0.40488866,0.6915283,2.6033936,7.932205,-6.4468384,4.573059,-41.333008,-2.2011929,2.6136029,9.192074,0.5159675,0.21623659,2.484249,0.1434021,0.39151,-0.15261841
2019-07-01T19:02:38.087Z,0.10516793,0.0037244456,-0.42814556,-0.6915283,2.7924194,9.509079,-11.180115,8.177185,-39.198303,-0.9486974,1.8201165,9.589449,0.27449197,1.3573041,0.41149807,-0.42385864,-0.72491455,-0.2447815
2019-07-01T19:02:38.289Z,0.13824922,0.020849077,-0.4229006,-3.866806,1.0480499,12.631714,-8.396912,5.74646,-40.107727,-1.5128206,2.2547636,9.423259,1.1501961,0.11793065,0.1995945,0.23625183,0.32469177,-0.06929016
2019-07-01T19:02:38.497Z,0.22034638,0.003492177,-0.4083835,-3.4911346,3.3403778,10.657639,-6.111145,1.2435913,-41.42151,-1.8255907,3.8002481,8.8541355,-1.9999154,-1.8777161,3.1972818,0.8964081,0.236969,0.32588196
2019-07-01T19:02:38.692Z,0.20693961,0.05727072,-0.44186297,-1.6773682,0.2679901,8.513657,-4.9072266,3.074646,-41.700745,-2.7717938,3.0388856,8.9024,-0.6553347,0.37622666,2.0715418,-0.30314636,0.35656738,-0.47904968
2019-07-01T19:02:38.903Z,0.09901901,0.06304722,-0.43275067,-1.1150513,1.351944,8.645264,-7.749939,7.762146,-40.70587,-1.9457289,1.2007903,9.536384,0.244151,-0.29813886,-0.24860668,-1.016098,-0.4418335,0.056610107
2019-07-01T19:02:39.108Z,0.112697914,0.036468815,-0.42549473,-2.2157593,2.0769653,9.867996,-7.9345703,5.49469,-41.159058,-1.58223,1.678751,9.531459,0.7950282,-0.13334894,-0.82524014,0.23826599,-0.16296387,0.08306885
2019-07-01T19:02:39.323Z,0.1400307,0.02695523,-0.41559932,-2.3377838,3.5940247,9.5282135,-6.9732666,3.819275,-42.4469,-1.6163425,2.247428,9.40781,-0.4444952,0.87469864,0.62055874,0.26965332,0.027496338,0.08911133
2019-07-01T19:02:39.521Z,0.15909943,0.062848754,-0.43651456,-3.6179504,4.2017975,9.832108,-5.9814453,5.760193,-39.901733,-2.4509284,2.2181807,9.232714,-0.41050482,-0.7132237,0.50600624,0.25793457,0.20050049,-0.17546082
2019-07-01T19:02:39.718Z,0.18459472,0.015379108,-0.49701732,-1.2012024,2.7230377,10.87059,-5.194092,2.1133423,-42.340088,-2.0551648,2.9193323,9.133683,-0.86763656,0.54153085,0.6433878,0.52745056,-0.4069519,-0.5937195
2019-07-01T19:02:39.969Z,0.13677803,-0.020523367,-0.53326535,1.4620209,1.5768738,10.832306,-13.523865,-1.0070801,-40.44342,-1.0946358,2.4535167,9.431458,-0.82921755,0.7099266,0.39813042,-0.21316528,-0.64634705,-0.31680298
2019-07-01T19:02:40.167Z,0.10242886,-0.058899593,-0.6033174,-0.0047912598,1.7922211,9.188446,-15.444946,-6.692505,-38.27362,-0.30092716,2.281434,9.532832,1.2495017,-0.50086546,1.3452969,-0.014083862,-0.5804291,-0.78118896
2019-07-01T19:02:40.371Z,0.14654975,-0.038806234,-0.7721553,-3.3092804,1.6127625,8.915665,-6.651306,-14.9887085,-39.796448,-1.7497505,2.3614032,9.355884,1.9843616,-0.13974094,0.4022522,0.29849243,0.2315216,-2.4318237