timestamp,rotationVector_x,rotationVector_y,rotationVector_z,accelerometer_x,accelerometer_y,accelerometer_z,magneticField_x,magneticField_y,magneticField_z,gravity_x,gravity_y,gravity_z,linearAcceleration_x,linearAcceleration_y,linearAcceleration_z,gyroscope_x,gyroscope_y,gyroscope_z
2019-07-01T19:38:18.754Z,-0.0008813894,0.0007481248,-0.33220875,-0.023925781,-0.22013855,9.918243,-13.183594,-8.853149,-48.710632,-0.008096957,-0.02117971,9.806623,0.03225027,-0.06213094,0.020709038,0.0011291504,-0.018753052,-0.0016937256
2019-07-01T19:38:18.960Z,-0.0046340097,0.0013229355,-0.33749992,-0.021530151,-0.25602722,9.800995,-12.339783,-9.738159,-49.22943,0.0062503917,-0.094311446,9.806195,-0.0045627155,-0.15515614,0.010454178,0.0024719238,-0.0062408447,-0.0016937256
2019-07-01T19:38:19.154Z,-0.0069488417,0.0020005053,-0.34081888,-0.13639832,-0.27757263,9.789032,-12.495422,-9.75647,-48.321533,0.0095638195,-0.14149867,9.805625,0.008880846,-0.105627835,0.0029478073,0.0019226074,0.0040893555,-0.058380127
2019-07-01T19:38:19.363Z,-0.008789187,0.0023556312,-0.3614626,0.83270264,-0.42591858,9.824936,-12.239075,-9.373474,-48.553467,0.019234922,-0.17742197,9.805026,0.0032726303,-0.07588507,0.0070581436,0.0018615723,-0.003982544,-0.19355774
2019-07-01T19:38:19.563Z,-0.007663745,0.008512549,-0.91727203,-0.5144501,-0.13877869,9.8033905,-11.477661,-8.825684,-46.81244,0.07141051,-0.21298541,9.804077,0.1246016,-0.078587145,0.0024137497,-0.0018615723,0.004638672,-0.43400574
2019-07-01T19:38:19.767Z,-0.004569378,0.01015983,-0.9226474,0.06939697,-0.18664551,9.808182,-10.4019165,-8.172607,-46.64917,0.0058737095,-0.2184012,9.804216,-0.18030912,-0.022908509,0.0021409988,0.0039367676,0.0022583008,-0.062469482
2019-07-01T19:38:19.964Z,-0.004923363,0.0105282795,-0.9282553,0.026321411,-0.2632141,9.805786,-10.079956,-8.377075,-45.648193,0.01286877,-0.22757804,9.804001,0.026139438,-0.030246928,-0.0007352829,0.0052948,0.008605957,-0.08030701
2019-07-01T19:38:20.168Z,-0.004352042,0.011170131,-0.92929745,0.088531494,-0.2871399,9.757935,-10.353088,-8.898926,-46.723938,-0.0015489196,-0.23510222,9.803832,0.005851518,-0.037492722,0.0046052933,0.003692627,-0.0010375977,-0.00076293945
2019-07-01T19:38:20.373Z,-0.0049290527,0.0111600375,-0.9297888,0.0,-0.27757263,9.82254,-9.606934,-8.485413,-46.29364,0.00936141,-0.23908286,9.803731,0.0040380694,-0.017719299,-0.00035190582,0.0020446777,-0.004043579,-0.0011444092
2019-07-01T19:38:20.594Z,-0.005359938,0.011301244,-0.9302429,0.055038452,-0.25842285,9.791428,-9.324646,-9.341431,-46.47827,0.016505124,-0.24474572,9.803582,0.001198383,-0.018990502,0.0003414154,0.0018615723,-0.0061187744,-0.001083374
2019-07-01T19:38:20.776Z,-0.006342082,0.011210806,-0.9307844,-0.5120697,-0.20100403,10.430313,-10.362244,-9.269714,-45.892334,0.03544783,-0.25010625,9.803396,0.009548739,-0.017263055,-0.005551338,0.0025939941,-0.0033721924,-0.00076293945
2019-07-01T19:38:20.971Z,-0.006085462,0.0113572795,-0.93055695,-0.033493042,-0.279953,9.800995,-11.216736,-8.522034,-46.157837,0.029557422,-0.2509598,9.803393,-0.016383143,-0.010626316,0.00340271,0.0027770996,0.0020141602,-0.00035095215
2019-07-01T19:38:21.194Z,-0.0053660744,0.011563597,-0.92982996,1.2418823,-1.2562256,10.126419,-10.4522705,-7.597351,-45.924377,0.014451256,-0.24959205,9.803463,0.026231203,-0.011270091,0.000207901,-0.15200806,-0.3985901,0.25297546
2019-07-01T19:38:21.388Z,-0.04867412,-0.036282714,-0.91775024,1.5984039,0.8279114,8.705093,-13.278198,-7.8582764,-46.014404,1.1554452,0.27839768,9.734363,-0.5884416,-0.49685603,0.75553703,0.6758423,-0.3348236,0.06227112
2019-07-01T19:38:21.586Z,-0.05416703,-0.057198316,-0.91043955,-1.3974152,-1.0743713,11.4664,-14.820862,-10.154724,-44.984436,1.4227961,0.5899666,9.684936,-0.116051555,-0.2329824,-1.2152576,-0.5477905,0.74909973,-0.0055999756
2019-07-01T19:38:21.794Z,-0.007282948,0.013554544,-0.9161468,4.977066,-2.3401794,11.803787,-12.446594,-7.524109,-44.467163,0.024379542,-0.30077228,9.802006,-0.028444096,0.13871217,-1.2192831,0.050247192,0.018325806,0.023712158
2019-07-01T19:38:21.994Z,-0.11711185,0.001656102,-0.91351485,-4.0582275,0.7082825,2.9814606,-10.554504,-6.3690186,-45.594788,2.0856438,-0.92451847,9.537597,-0.8087437,0.77704334,2.7636786,1.7306366,-4.36174,-1.3922119
2019-07-01T19:38:22.214Z,-0.36692986,-0.4850077,-0.72797275,6.8195496,1.4165497,-6.5659027,-34.457397,-12.661743,-21.809387,8.249946,4.6470046,2.552279,-7.522287,-5.6029005,5.8641987,2.5556793,-4.515671,0.4406433
2019-07-01T19:38:22.413Z,-0.51732135,-0.6494788,-0.5296919,9.786652,2.6201477,-0.5120697,-39.744568,-15.351868,16.746521,7.5801673,4.99055,-3.7156243,1.4249215,-1.3147292,-0.95514154,1.0831757,0.6977234,-0.3952179
2019-07-01T19:38:22.611Z,-0.40467808,-0.7201016,-0.4476273,9.47319,2.3521423,-3.0508423,-41.194153,-12.567139,21.224976,8.390439,3.6034987,-3.575714,0.34771252,0.19457698,1.1198621,1.6356354,0.71806335,-0.37120056
2019-07-01T19:38:22.817Z,-0.32194343,-0.70907164,-0.49228096,8.468201,4.3166504,-1.6510468,-46.969604,-13.284302,17.163086,8.51672,4.3907204,-2.0874472,1.230772,-1.2061915,-2.123664,-0.1769867,0.82185364,-0.42300415
2019-07-01T19:38:23.017Z,-0.2928341,-0.6763655,-0.5357505,8.312668,4.6205444,-0.8829498,-46.30432,-18.188477,6.3964844,8.54263,4.740803,-0.84772867,0.038808823,-0.9070935,-1.4861362,-0.23464966,0.4383545,-0.2748108
2019-07-01T19:38:23.223Z,-0.29078865,-0.6680156,-0.5528913,9.468399,4.37648,0.3062744,-45.559692,-18.986511,3.1829834,8.4512615,4.937771,-0.6041459,0.8696661,-0.35247135,0.4308924,-0.10081482,0.3533783,-0.058624268
2019-07-01T19:38:23.418Z,0.5636123,-0.38177228,0.30741948,8.671585,5.0105743,2.0171509,-45.90149,-20.584106,-0.6790161,8.376912,5.0480394,0.7176722,0.7348261,-0.40698385,-0.91546524,-0.17607117,0.50994873,-0.0801239
2019-07-01T19:38:23.621Z,0.54816973,-0.36093062,0.30290577,9.3703,4.3358,0.81355286,-45.224,-20.718384,-5.7159424,8.148314,5.2849946,1.3580066,0.7980795,-0.3038268,0.21952116,0.16638184,0.06944275,-0.0574646
2019-07-01T19:38:23.826Z,0.56982565,-0.33927634,0.30566016,8.848663,6.029907,1.8089752,-45.13855,-22.46399,-5.4718018,7.9623437,5.6015897,1.1805298,1.1629777,-0.7373209,0.40743065,0.6953888,-0.05278015,-0.80278015
2019-07-01T19:38:24.031Z,0.7340006,-0.17942514,0.25350457,-0.3134613,7.487137,-4.6827545,-38.08136,-31.219482,-0.29296875,5.774954,7.802809,-1.3915687,2.9269552,-1.6272397,2.5381896,1.9741211,0.20414734,-3.1153564
2019-07-01T19:38:24.234Z,0.77085257,0.0986936,0.12154636,-6.817154,7.1401825,7.0085754,-16.825867,-45.86029,1.5167236,0.64240885,9.570823,-2.038884,1.8995702,-2.4738226,-2.0219653,-1.3742981,-0.042770386,-1.6812134
2019-07-01T19:38:24.437Z,0.6625003,0.1048639,0.069215484,0.086135864,9.927826,-0.37088013,-7.557678,-48.869324,-10.348511,-0.61941355,9.737621,0.98256576,0.39397186,0.5999508,0.30690533,-0.15084839,-0.15736389,-0.036758423
2019-07-01T19:38:24.638Z,0.6764632,0.11192951,0.08066576,-0.23449707,9.839294,1.2634125,-5.6884766,-48.22693,-11.354065,-0.5179213,9.775426,0.585837,0.81540936,0.39417648,-0.054891825,-0.13331604,0.026687622,-0.067855835
2019-07-01T19:38:24.843Z,0.6860626,0.11297199,0.08177136,-0.7537384,9.887146,1.4404755,-5.755615,-48.016357,-10.929871,-0.48184976,9.789422,0.32470673,0.33114785,0.45341682,0.87390465,0.06729126,-0.03640747,-0.0051727295
2019-07-01T19:38:25.046Z,0.6706631,0.11296673,0.08473886,0.07896423,9.774673,-0.04307556,-5.279541,-48.05298,-11.561584,-0.49877894,9.766376,0.7345083,0.46294263,0.41432953,-0.22058326,-0.043640137,-0.0044555664,-0.0060272217
2019-07-01T19:38:25.282Z,0.6755361,0.120463185,0.090530924,0.1268158,9.753143,1.1605225,-5.2078247,-48.41919,-10.656738,-0.50580966,9.776906,0.57152337,0.363343,0.4059658,0.33827567,-0.028060913,0.07122803,0.017913818
2019-07-01T19:38:25.448Z,0.6722677,0.11769573,0.09560436,-0.1268158,9.820145,0.9667053,-4.7805786,-47.6532,-11.802673,-0.41211683,9.774993,0.67085147,0.30295688,0.39568806,0.33401698,0.026428223,-0.004348755,0.010284424
2019-07-01T19:38:25.655Z,0.670684,0.12063838,0.09922095,0.0143585205,9.793823,1.4237366,-4.7195435,-48.64807,-11.065674,-0.41051027,9.773103,0.6988096,0.35005412,0.36836147,0.10570967,-0.042114258,0.016540527,-0.00077819824
2019-07-01T19:38:25.856Z,0.67057323,0.12319428,0.102885894,-0.0047912598,9.796219,0.69869995,-5.357361,-48.47107,-11.080933,-0.39684707,9.774327,0.6894993,0.35842106,0.33977413,0.30077797,0.019210815,0.0045776367,-0.012557983
2019-07-01T19:38:26.055Z,0.66656065,0.13074034,0.12002233,-0.07896423,9.793823,1.0121613,-5.5740356,-47.97516,-10.969543,-0.2874501,9.773151,0.7571488,0.23698959,0.23393059,0.13087249,-0.025497437,-0.0026397705,-0.0021209717
2019-07-01T19:38:26.255Z,0.6612303,0.13559824,0.13194637,-0.023925781,9.774673,0.9667053,-4.978943,-48.950195,-11.572266,-0.21943778,9.765466,0.8705875,0.13684516,0.15576172,0.12704629,-0.014373779,0.0014038086,-0.0030975342
2019-07-01T19:38:26.457Z,0.65823674,0.13827372,0.13915975,-0.124420166,9.793823,0.98583984,-5.064392,-48.953247,-12.097168,-0.17450686,9.760542,0.93368614,0.10395454,0.10221958,0.034998596,-0.016220093,0.00010681152,-0.0021209717
2019-07-01T19:38:26.666Z,0.6563568,0.14077216,0.14471506,-0.08375549,9.774673,1.0145569,-5.0323486,-48.220825,-12.252808,-0.1441124,9.757646,0.9684833,0.066201195,0.0665617,0.07229513,-0.01676941,-0.0019683838,-0.0040130615
2019-07-01T19:38:26.856Z,0.6539992,0.14227797,0.14845276,-0.2033844,9.784256,0.9523468,-5.307007,-49.043274,-11.880493,-0.12733546,9.752554,1.0207149,0.044769034,0.042826653,0.052280784,-0.0022888184,0.0020751953,-0.00541687
2019-07-01T19:38:27.062Z,0.652785,0.14363429,0.15058182,-0.40678406,9.812973,2.950348,-4.420471,-48.905945,-12.492371,-0.12406602,9.750107,1.0442299,0.02156914,0.03133297,-0.05292642,-0.12194824,0.14152527,0.0016784668
2019-07-01T19:38:27.279Z,0.65562046,-0.14569704,-0.19704044,-1.1605225,9.537796,2.6057892,-0.77056885,-47.846985,-14.538574,-0.4927667,9.747125,0.95976037,0.79091054,0.04142666,-0.13568097,-0.3033142,0.508667,-0.56533813
2019-07-01T19:38:27.475Z,0.6359814,-0.07302,-0.23158564,-3.4695892,9.43251,-0.071777344,3.1188965,-46.6156,-17.770386,-1.8396616,9.468715,1.7690368,0.5223681,0.07704544,-0.5879818,0.11305237,0.01802063,-0.12594604
2019-07-01T19:38:27.682Z,0.70315975,-0.1286732,-0.16767016,10.09053,12.205795,1.5960083,-3.3950806,-50.186157,-7.962036,-0.5990594,9.785962,-0.21555877,-2.4683115,0.07364273,2.2089388,1.4793243,0.5491638,1.2791138
2019-07-01T19:38:27.884Z,0.64939004,-0.36440805,-0.049586184,1.4715881,-1.0983124,-2.2014008,-30.067444,-35.290527,-4.5898438,4.125735,8.832105,-1.0689379,-0.5427823,1.8893299,1.3180554,-1.1617126,-1.3206329,3.527542
2019-07-01T19:38:28.087Z,0.40550017,-0.49508876,0.03041337,3.637085,-4.3788605,-0.3397827,-31.604004,-6.300354,-23.995972,7.697565,5.8112183,1.7741553,-1.0616941,-2.3877263,-4.9786935,-3.8687897,3.6610565,1.2907257
2019-07-01T19:38:28.290Z,0.061347578,-0.22950573,0.096724354,6.9966125,0.23210144,13.342377,-18.824768,16.99524,-32.913208,4.46715,0.7275821,8.699746,-3.0011659,3.3994145,-1.2643557,-1.650589,0.1845398,1.3927917
2019-07-01T19:38:28.522Z,-0.021694867,-0.27148327,0.052361622,4.82872,-7.984848,4.1563263,-25.656128,16.055298,-26.634216,5.09353,-0.68762547,8.351856,1.4565773,1.9222314,2.5709448,0.49124146,-1.0294342,-1.1026001
2019-07-01T19:38:28.718Z,-0.03889363,-0.51872146,0.00610281,10.334595,-14.342575,15.340393,-32.759094,23.390198,0.90026855,8.684174,-0.71357566,4.4995923,-5.0627403,-4.0968275,-0.8262553,-2.2265167,-3.2259521,2.0378113
2019-07-01T19:38:28.923Z,-0.4557984,-0.5152486,0.111053325,15.546173,-2.0291138,-0.64845276,-13.487244,36.5448,13.980103,6.2554507,-7.534197,0.5249835,2.4249601,-3.6971474,8.475876,-1.3779602,2.0474548,3.2483215
2019-07-01T19:38:29.175Z,-0.5840393,-0.29336262,-0.018690618,2.388031,-2.778061,-2.4143524,-22.338867,28.796387,16.088867,4.567598,-8.559594,1.4285642,10.0528755,4.4765625,3.095076,-1.5060577,1.3099518,-1.397583
2019-07-01T19:38:29.325Z,-0.6492514,-0.293461,-0.12788212,9.942184,-9.269791,-3.632309,-17.449951,31.201172,20.681763,5.599487,-8.049451,-0.14997816,-2.7931457,2.2122521,0.54583824,-0.928421,0.95954895,2.7383728
2019-07-01T19:38:29.616Z,-0.711454,-0.08434115,-0.034448046,2.1248322,-9.762711,-0.39482117,-19.033813,29.16565,25.088501,1.6333425,-9.666164,-0.2604675,4.567746,-2.4417934,-0.2895893,-0.8153534,-0.0104522705,-0.8477478
2019-07-01T19:38:29.733Z,-0.7054425,-0.1356662,-0.018332684,0.2368927,-12.308685,-2.5292206,-17.167664,32.546997,18.301392,2.1040697,-9.573094,-0.31488,-0.41484666,2.171938,-0.8719417,1.1640472,1.2044983,0.5780182
2019-07-01T19:38:29.936Z,-0.6871709,-0.031334825,-0.030689163,-1.1892395,-6.8769684,4.163513,-11.235046,37.84027,16.644287,0.8592939,-9.754764,0.5259153,0.35718054,-1.4785166,-0.11555034,0.11891174,0.14324951,1.0086212
2019-07-01T19:38:30.136Z,-0.6534872,-0.0034704832,-0.010311195,-0.50727844,-9.71965,1.3543396,-11.010742,37.56714,16.127014,0.18367663,-9.699996,1.4306414,-1.4100527,-0.62653923,0.28440857,0.12397766,-0.041915894,-0.032913208
2019-07-01T19:38:30.337Z,-0.65413827,0.039009165,-0.052182347,0.39959717,-9.628723,1.5912323,-12.722778,37.31842,14.63623,0.092939064,-9.708005,1.3843347,-0.65700215,-0.3900795,-0.13598251,-0.060440063,0.64733887,-0.041030884
2019-07-01T19:38:30.536Z,-0.663065,0.07936488,-0.08596935,0.9786682,-9.265015,0.7393799,-14.147949,35.906982,15.237427,-0.032873105,-9.749137,1.060021,0.43416807,-0.11966801,0.47931278,-0.17588806,0.661438,0.043380737
2019-07-01T19:38:30.744Z,-0.6570072,0.124359764,-0.10481891,-0.46180725,-10.401596,0.29910278,-14.224243,36.50818,12.417603,-0.4447968,-9.741509,1.0370766,0.8562943,-0.15048218,0.25616026,0.06838989,0.2668152,0.07833862
2019-07-01T19:38:30.947Z,-0.6522305,0.118493274,-0.13489926,0.1603241,-12.318253,-1.1581268,-15.7196045,37.56256,11.172485,0.014144642,-9.734455,1.1876779,-0.8945458,-0.48054504,-0.43616533,0.46624756,-0.26615906,-0.3786621
2019-07-01T19:38:31.147Z,-0.6290514,0.051895298,-0.11692362,0.7776642,-9.662216,1.2753754,-13.62915,37.25586,12.535095,0.6621336,-9.579195,1.9927361,-0.6847888,-0.6739912,-1.1209947,0.17248535,-0.891449,-0.14022827
2019-07-01T19:38:31.353Z,-0.62784255,-0.004288616,-0.08502745,1.9669037,-9.372681,1.5122681,-11.047363,37.27417,13.412476,1.1121099,-9.519874,2.074996,-0.5226128,0.027259827,-0.6845169,-0.04547119,-0.6287079,0.14344788
2019-07-01T19:38:31.547Z,-0.6292655,0.13514832,-0.20875429,-1.8807526,-7.802994,-0.24645996,-1.4205933,37.58087,18.519592,0.62464684,-9.641108,1.6820344,0.82987213,0.4130659,-0.20033622,-0.14828491,-1.2379913,0.58296204
2019-07-01T19:38:31.752Z,-0.6826397,0.050371755,-0.07319936,-1.5026855,-9.257828,2.634491,3.7521362,36.32202,18.426514,0.2634559,-9.783666,0.617146,0.6759752,-0.3436222,0.6328114,-0.33190918,-1.0565643,0.07521057
2019-07-01T19:38:31.943Z,-0.6725488,0.02602367,-0.023525538,-1.5170441,-9.693329,1.8520508,6.7245483,36.231995,18.136597,-0.066982694,-9.762998,0.921843,-2.4444351,0.039121628,1.6567112,0.026062012,-0.70487976,0.20385742
2019-07-01T19:38:32.143Z,-0.6787924,-0.001534875,0.0107459575,-1.5457611,-9.384644,1.7060852,6.626892,35.784912,18.57605,-0.12096096,-9.775658,0.76959693,-1.5368494,-0.11091995,0.62621504,-0.061782837,-0.15327454,-0.045181274
2019-07-01T19:38:32.354Z,-0.678473,0.0010736865,0.0052571245,0.112457275,-9.839294,0.9690857,4.776001,35.8078,18.28003,-0.08542677,-9.775356,0.77812237,-0.9286068,-0.118946075,0.025956094,0.024719238,0.06437683,-0.07015991
2019-07-01T19:38:32.572Z,-0.6746436,0.0070708166,-0.011828989,-0.086135864,-9.894318,0.58384705,4.9835205,36.994934,17.608643,0.05417159,-9.767045,0.8787949,-0.23132269,-0.10323143,-0.25734347,0.06515503,0.08526611,-0.06149292
2019-07-01T19:38:32.764Z,-0.6737511,0.0070592384,-0.015286827,0.04547119,-9.800995,0.72024536,5.8624268,36.68213,18.565369,0.09972163,-9.764533,0.9024001,-0.13038391,-0.13695717,-0.2992378,0.017562866,0.0059814453,-0.019836426
2019-07-01T19:38:32.978Z,-0.67168885,0.0050619226,-0.015373761,-0.007171631,-9.769897,0.9571228,4.4891357,36.668396,17.713928,0.12900133,-9.758962,0.9572955,-0.06627484,-0.107997894,-0.097531915,0.015304565,-0.030731201,0.008758545
2019-07-01T19:38:33.172Z,-0.67083657,0.004607279,-0.011544845,-0.098098755,-9.717255,1.0671997,5.9768677,35.74524,18.067932,0.08489426,-9.757209,0.9798223,-0.12344313,-0.086481094,-0.017948747,0.0063934326,-0.029205322,0.029815674
2019-07-01T19:38:33.372Z,-0.6703765,0.0067670024,-0.009401531,-0.04547119,-9.743576,1.0504456,6.071472,36.19232,17.326355,0.025142647,-9.7563715,0.99144447,-0.1417922,-0.058101654,0.024722576,0.008651733,0.015930176,0.018157959
2019-07-01T19:38:33.588Z,-0.66959506,0.009672648,-0.011374265,-0.1268158,-9.784256,0.9834442,5.4885864,35.7193,17.326355,0.008501835,-9.75439,1.0110437,-0.11495365,-0.06870365,0.043599725,0.010299683,0.03425598,-0.0070648193
2019-07-01T19:38:33.785Z,-0.66911626,0.0153470645,-0.015136917,-0.15074158,-9.769897,0.9762726,4.420471,36.953735,17.9245,-0.024950722,-9.753341,1.0208305,-0.08301415,-0.04704094,0.0074549913,0.0013122559,0.018081665,-0.010238647
2019-07-01T19:38:33.987Z,-0.6696041,0.020461641,-0.018452415,-0.15553284,-9.748352,0.96191406,4.9850464,36.99341,17.759705,-0.05552444,-9.754917,1.0044292,-0.100516714,-0.03433323,-0.037802696,0.0030212402,0.0087890625,-0.0075531006
2019-07-01T19:38:34.189Z,-0.67021865,0.024452452,-0.020493845,-0.1531372,-9.815353,0.94277954,5.570984,37.316895,18.707275,-0.08621199,-9.7567,0.98476535,-0.07594623,-0.03409958,-0.05216074,0.0024108887,0.00090026855,-0.0037078857
2019-07-01T19:38:34.394Z,-0.6706835,0.025645291,-0.020697523,-0.12921143,-9.786652,0.98583984,5.6411743,37.101746,18.58368,-0.100458555,-9.757906,0.97136766,-0.030978866,-0.018966675,-0.027130842,0.00033569336,-0.0045318604,0.0012359619
2019-07-01T19:38:34.596Z,-0.67012256,0.026453564,-0.021530531,-0.13877869,-9.836899,1.0145569,5.291748,36.572266,18.26477,-0.10172109,-9.756496,0.98529285,-0.02061075,-0.00083351135,0.007415235,0.006515503,0.007019043,-0.0066986084
2019-07-01T19:38:34.799Z,-0.6698834,0.027189268,-0.0217681,-0.18185425,-9.793823,0.9690857,5.101013,36.058044,17.034912,-0.10949722,-9.755855,0.9908059,-0.022828788,-0.008242607,0.00074493885,0.004501343,0.010925293,-0.001449585
2019-07-01T19:38:35.001Z,-0.6700102,0.029041575,-0.022400042,-0.050247192,-9.762711,1.0121613,4.46167,36.236572,16.871643,-0.12796667,-9.756174,0.9854299,-0.018101782,-0.014450073,-0.012724817,-0.0034484863,0.0154418945,0.007537842
2019-07-01T19:38:35.203Z,-0.66951376,0.028858252,-0.022960182,-0.122039795,-9.7986145,0.95474243,4.2419434,36.654663,17.192078,-0.118411526,-9.754948,0.99868035,0.024433762,0.0097436905,0.014612079,0.007247925,0.012634277,-0.0068206787
2019-07-01T19:38:35.394Z,-0.66803867,-0.054737713,0.068844825,-0.14596558,-9.812973,0.9260254,4.600525,35.661316,17.124939,-0.10875066,-9.755442,0.99494654,-0.0033844411,-0.012105942,-0.021377265,-0.00076293945,0.0095825195,-0.004562378
2019-07-01T19:38:35.617Z,-0.66875535,-0.05436673,0.06881048,-0.124420166,-9.777069,0.9643097,5.1956177,36.27777,17.907715,-0.115303285,-9.757184,0.97694933,-0.006634943,-0.00029850006,-0.02262634,-0.0055236816,-0.0042266846,0.006072998
2019-07-01T19:38:35.815Z,-0.66913736,-0.054708973,0.06965525,-0.13160706,-9.78186,0.92362976,5.0308228,36.11908,18.031311,-0.12243348,-9.758169,0.96619254,0.0021828264,0.0012207031,-0.005767882,-0.0014953613,-0.00062561035,0.0017242432
2019-07-01T19:38:36.014Z,-0.66986036,-0.05357117,0.06903957,-0.14117432,-9.738785,0.9667053,4.8706055,36.10382,18.563843,-0.13233899,-9.759666,0.94962186,-0.013723448,-0.0035467148,-0.024144173,-0.0026550293,0.012878418,0.0018615723
2019-07-01T19:38:36.217Z,-0.6703209,-0.051881824,0.067974314,-0.19381714,-9.810577,0.96191406,5.26886,36.138916,17.648315,-0.14359012,-9.760342,0.94100976,-0.011540189,0.00057792664,-0.003736794,-0.00289917,0.013671875,-0.0009613037
2019-07-01T19:38:36.418Z,-0.67042565,-0.05027391,0.06752248,-0.22253418,-9.791428,1.0049896,5.0735474,36.991882,18.736267,-0.16097799,-9.760025,0.94147784,-0.032896042,0.0040750504,0.011687696,-0.0032043457,0.005554199,-0.0012664795
2019-07-01T19:38:36.618Z,-0.669674,-0.048227586,0.06604034,-0.22013855,-9.846466,0.9954071,4.8553467,36.042786,16.966248,-0.1692004,-9.75757,0.9651877,-0.03975901,0.010393143,0.04369378,0.007675171,0.0053710938,-0.015563965
2019-07-01T19:38:36.842Z,-0.6689069,-0.047793485,0.06352217,-0.0765686,-9.745972,0.99302673,4.3029785,35.916138,19.154358,-0.14056957,-9.755929,0.9861426,-0.020165756,0.005112648,0.00377661,0.009811401,0.020828247,-0.020446777
2019-07-01T19:38:37.021Z,-0.66815925,-0.047847882,0.06118905,-0.48095703,-9.932602,0.9379883,4.196167,35.63385,16.986084,-0.10745868,-9.754358,1.0056492,0.0012288019,-0.0023088455,-0.0008097887,0.0129852295,-0.0056915283,-0.018600464
2019-07-01T19:38:37.232Z,-0.6685797,-0.040120587,0.055324417,-1.3830566,-10.229324,0.1268158,3.4454346,36.74469,17.845154,-0.14277978,-9.753666,1.0079578,-0.25405502,-0.07746792,-0.06260812,0.0019226074,0.08270264,-0.1108551
2019-07-01T19:38:37.434Z,-0.6694601,-0.026066434,0.029231608,-0.41156006,-10.41835,0.5647125,2.5253296,37.701416,18.078613,-0.004568528,-9.755212,1.003096,-1.200431,-0.31175327,-0.77772737,0.042495728,0.42625427,-0.13040161
2019-07-01T19:38:37.636Z,-0.68943787,0.013405185,-0.012356263,0.5862427,-9.348755,0.49531555,-0.26245117,34.82361,17.532349,-0.023301087,-9.794847,0.48044187,0.022762394,-0.081884384,0.08249819,-0.42152405,0.4404297,0.051330566
2019-07-01T19:38:37.840Z,-0.7071348,0.033770416,-0.03226131,-0.12921143,-9.590439,-0.42352295,-2.583313,36.167908,21.600342,-0.019870397,-9.806603,-0.023143793,1.0445931,0.38402843,0.798785,-0.25315857,0.6613159,-0.036819458
2019-07-01T19:38:38.040Z,-0.70907694,0.10551675,-0.119323365,0.7848511,-9.401398,-0.31825256,-7.4249268,33.87451,22.312927,0.23789951,-9.79996,-0.27309325,-0.5271416,0.1340046,-0.24508259,0.004928589,1.436203,-0.13864136
2019-07-01T19:38:38.243Z,-0.6795124,0.19930565,-0.22296195,2.498108,-9.250656,0.071777344,-13.494873,33.79364,18.241882,0.35267255,-9.800264,-0.028631639,0.32222772,0.3345766,-0.23545615,0.2297821,1.2100067,0.17991638
2019-07-01T19:38:38.449Z,-0.6337346,0.25719354,-0.26057917,-2.4598236,-7.6546326,1.5960083,-14.303589,36.47766,12.85553,-0.19845247,-9.784241,0.6321746,2.3417838,0.40385342,-0.4366951,0.08441162,0.55026245,0.08731079
2019-07-01T19:38:38.648Z,-0.61146224,0.3036749,-0.30972597,-0.8279114,-9.200409,1.2346954,-15.135193,36.143494,11.463928,-0.22718313,-9.781453,0.6648026,-0.6328918,-0.58183193,0.47742063,0.28097534,1.3186188,0.07650757
2019-07-01T19:38:38.856Z,-0.5337305,0.40016857,-0.41556594,-0.6915283,-10.167099,1.7874451,-17.475891,37.20703,4.3762207,-0.5026155,-9.734179,1.0786705,-0.873046,0.025464058,-0.16914535,0.077560425,1.7126312,-0.13949585
2019-07-01T19:38:39.052Z,-0.46521232,0.49459034,-0.5024137,0.5048828,-9.305695,1.6630096,-18.473816,35.806274,-1.9088745,-0.60843676,-9.757887,0.7640934,-0.0972563,-0.073532104,1.158591,-0.22244263,1.6338348,-0.08984375
2019-07-01T19:38:39.252Z,-0.418214,0.56757015,-0.54976106,0.933197,-10.753342,1.8017883,-17.703247,35.81848,-6.2438965,-0.47790393,-9.7948265,0.058078233,1.0879111,0.31255817,1.732325,-0.32769775,1.3115997,-0.07475281
2019-07-01T19:38:39.451Z,-0.36323375,0.60656804,-0.5891012,-0.5886383,-8.98027,1.8161469,-15.899658,35.154724,-8.792114,0.22073193,-9.5896015,2.039901,0.55772674,-0.3555956,-1.885663,0.42355347,-0.9697571,-0.19992065
2019-07-01T19:38:39.655Z,-0.5882621,0.22755753,-0.34635678,0.098098755,-8.709869,2.292328,-22.434998,32.730103,-8.082581,0.89693254,-9.557755,2.003798,-0.9811851,0.27161598,-0.66412616,0.22477722,-1.3607788,0.15908813
2019-07-01T19:38:39.862Z,-0.618925,0.15705574,-0.24630918,2.6799622,-9.131012,4.1036835,-21.031189,34.535217,-3.3920288,0.7440588,-9.609474,1.8096281,-0.15669441,0.56007004,0.26718855,0.03517151,-1.0655975,0.38223267
2019-07-01T19:38:40.070Z,-0.6217384,0.08779791,-0.15167266,-0.5001068,-6.4941254,-0.74894714,-19.213867,34.535217,2.7236938,0.5350261,-9.569933,2.0737712,1.3723933,0.17961597,1.2771585,-0.28163147,-0.7759857,0.07118225
2019-07-01T19:38:40.276Z,-0.6707412,0.062473536,-0.1089543,1.3591309,-9.980469,0.93559265,-18.521118,34.53369,8.886719,0.5376636,-9.749877,0.9061989,-1.491018,-0.9989395,-0.2682582,-0.21339417,-0.44465637,0.25950623
2019-07-01T19:38:40.471Z,-0.6673373,0.07109312,-0.08261171,-1.3591309,-9.810577,0.653244,-14.881897,36.58905,10.214233,0.053993788,-9.758117,0.9729505,-0.8756449,0.49446774,-0.103067935,-0.05848694,-0.13250732,0.29916382
2019-07-01T19:38:40.675Z,-0.68955165,0.107726574,-0.066071205,-1.5481567,-12.69632,3.2446747,-13.88092,36.927795,12.582397,-0.61317194,-9.784184,0.25327674,-0.5914147,0.23086548,0.90608174,-0.46684265,0.52375793,0.040023804
2019-07-01T19:38:40.879Z,-0.69777,0.14287458,-0.120783575,-1.4955139,-10.858627,-2.0291138,-19.763184,38.81073,11.09314,-0.28464252,-9.801474,-0.14310105,-0.33701,-0.49669933,2.7445788,0.8119507,0.33016968,-0.1387024
2019-07-01T19:38:41.083Z,-0.59699935,0.09446132,-0.12263922,-0.13639832,-9.190826,1.1006927,-21.377563,40.60669,0.34942627,-0.02238081,-9.444226,2.641301,0.42525044,-1.3719101,-3.3330116,0.66441345,-0.6469116,-0.13522339
2019-07-01T19:38:41.282Z,-0.59888935,0.047634073,-0.11789782,1.8855438,-8.283951,3.534195,-21.061707,40.252686,1.5472412,0.6461565,-9.397539,2.7274752,-0.40710747,0.46362877,-1.3364227,0.053359985,-0.22332764,0.05517578
2019-07-01T19:38:41.479Z,-0.6093772,0.052820317,-0.0783134,3.1274261,-14.342575,2.7158508,-18.115234,41.775513,-0.30059814,0.120435104,-9.490065,2.468715,1.0613753,0.8883543,0.04082179,-0.034225464,-0.33207703,0.30630493
2019-07-01T19:38:41.678Z,-0.6252485,0.02350546,-0.058509305,-2.732605,-9.973282,-0.5168457,-15.679932,42.382812,-1.1077881,0.3588952,-9.566193,2.1282744,0.78097826,-2.1466322,0.058572054,-0.31541443,-0.04258728,-0.17321777
2019-07-01T19:38:41.880Z,-0.63286144,0.10014977,-0.12667654,0.9667053,-9.511475,1.6438751,-14.094543,40.9256,-6.451416,0.08495465,-9.648046,1.7545359,-2.3539467,0.8557091,-0.59860206,-0.15420532,1.8774414,-0.03388977
2019-07-01T19:38:42.081Z,-0.60921645,0.25640076,-0.256066,0.50727844,-8.819946,2.2277222,-11.521912,41.638184,-10.491943,-0.4875338,-9.715986,1.2378727,0.087598264,0.26663303,-0.02858305,-0.44021606,2.068039,-0.058013916
2019-07-01T19:38:42.285Z,-0.59150785,0.37861252,-0.35506335,1.696518,-11.387436,1.9142609,-7.3898315,41.29181,-14.884949,-0.46257648,-9.794834,0.1328018,0.07962182,0.368865,2.1407564,-0.16067505,1.5888672,0.04888916
2019-07-01T19:38:42.496Z,-0.49030936,0.41008183,-0.4166819,-1.9429779,-9.662216,0.29670715,-2.7023315,36.361694,-25.593567,-1.1918077,-9.567356,1.7932367,2.0021148,-1.0948372,0.53935933,1.1980743,0.07281494,0.18890381
2019-07-01T19:38:42.692Z,-0.49097902,0.37090245,-0.45141244,0.75613403,-8.583054,1.5385895,-4.8583984,37.112427,-27.845764,-0.35401675,-9.506753,2.3804858,1.6377609,-0.89701843,-2.4355402,0.04335022,-0.041488647,-0.5552521
2019-07-01T19:38:42.895Z,-0.5006616,0.3628036,-0.46792245,2.4957123,-9.310471,2.033905,-2.6885986,37.18872,-28.521729,0.10139297,-9.530476,2.3087103,0.3881093,0.96939564,-0.7546239,-0.045532227,-0.025482178,0.115097046
2019-07-01T19:38:43.100Z,-0.51038384,0.34140354,-0.4426409,-0.50727844,-7.944168,1.5026855,-3.4866333,37.431335,-28.895569,0.055315625,-9.505368,2.411494,2.3278499,0.102822304,1.0802903,-0.3452301,-0.27630615,-0.10279846
2019-07-01T19:38:43.303Z,-0.542916,0.3630768,-0.4463276,0.43070984,-9.784256,1.5050812,0.1296997,36.924744,-26.577759,0.3964773,-9.69225,1.4399587,-1.5426016,-1.4530535,-1.4736112,-0.15390015,0.72540283,0.0042877197
2019-07-01T19:38:43.503Z,-0.3417604,0.5649374,-0.6333768,-0.062210083,-8.908478,1.4309082,8.543396,38.597107,-19.93866,-0.22626187,-9.723234,1.256145,-0.9590014,0.5263996,-0.22883141,-0.3896942,1.1875305,0.13545227
2019-07-01T19:38:43.707Z,-0.26129428,0.6547758,-0.6427262,0.447464,-13.201202,1.8113708,16.682434,40.43579,-18.159485,-0.55661696,-9.790665,0.058720503,0.7655847,0.6058674,1.4324069,-0.41809082,0.9385376,0.049438477
2019-07-01T19:38:43.909Z,-0.20438284,0.65010434,-0.6821083,4.524826,-13.564911,-0.97387695,8.403015,33.488464,-29.655457,-0.6469093,-9.760358,0.69807607,0.8528665,-1.3952341,1.6082096,1.3347168,0.073913574,-0.046585083
2019-07-01T19:38:44.113Z,-0.21513359,0.57695836,-0.7411106,-0.114852905,-8.3198395,1.2514496,1.7944336,31.677246,-31.263733,0.09930837,-9.515441,2.3700047,0.8124794,-0.67522526,-3.147386,0.14279175,-0.47213745,-0.36912537
2019-07-01T19:38:44.319Z,-0.23652722,0.5649577,-0.74081933,5.149353,-10.729416,2.7373962,-4.122925,30.471802,-30.20935,0.38069007,-9.488233,2.4492643,-0.68101645,1.3527431,-0.8948679,-0.110580444,-0.18411255,0.34509277
2019-07-01T19:38:44.531Z,-0.25220534,0.55809116,-0.73164344,-1.1485596,-7.594818,0.22253418,-8.97522,30.76477,-24.891663,0.34218544,-9.489451,2.4502249,2.7892685,-0.87842464,0.9867523,-0.38432312,-0.21221924,-0.21511841
2019-07-01T19:38:44.719Z,-0.2627298,0.60752946,-0.69499934,0.37806702,-9.4253235,1.1222382,-5.2124023,32.029724,-23.957825,0.23523803,-9.728413,1.2136906,-2.400544,-0.6162691,-1.3604338,-0.14944458,0.90005493,0.14888
2019-07-01T19:38:44.928Z,-0.16545369,0.65718323,-0.7087494,0.30389404,-8.793625,1.3686981,0.35095215,33.7677,-21.794128,-0.22618012,-9.771433,0.79895353,-0.92864007,0.6350584,0.16342717,-0.5325775,1.0626068,0.11424255
2019-07-01T19:38:45.131Z,-0.12097036,0.70761216,-0.68202245,0.48095703,-11.186447,2.0195465,0.45776367,32.536316,-22.047424,-0.31968668,-9.796814,-0.30104065,0.66839635,0.5474596,1.737731,-0.30862427,0.6695709,-0.0552063
2019-07-01T19:38:45.329Z,-0.10358016,0.6453914,-0.74514216,2.0075836,-9.037689,1.2586212,-6.742859,28.50647,-24.913025,-0.16094229,-9.70098,1.4266928,0.29058897,-1.2629814,0.35818362,1.3815155,-0.737381,-0.099609375
2019-07-01T19:38:45.535Z,-0.21241572,0.5960327,-0.74737895,-0.3517456,-8.941986,1.1485596,-12.6297,27.505493,-21.026611,0.74520826,-9.581079,1.9539677,0.4776644,-0.42080116,-1.7712886,0.1108551,-1.529068,-0.14012146
2019-07-01T19:38:45.737Z,-0.27024975,0.5619945,-0.7254977,2.1152496,-9.891922,5.314453,-12.335205,27.926636,-16.497803,0.636046,-9.540194,2.1795723,-1.7203113,1.1698036,-0.32040834,-0.045654297,-0.7306061,0.46440125
2019-07-01T19:38:45.938Z,-0.34360045,0.58426595,-0.650431,0.5288086,-9.858429,0.1651001,-14.277649,29.771423,-8.036804,0.45507184,-9.763712,0.79575217,-2.8811173,0.95256805,-0.42838502,-0.005340576,0.42344666,0.3352661
2019-07-01T19:38:46.133Z,-0.30804756,0.6196499,-0.6401829,0.122039795,-9.970886,2.1224365,-14.561462,31.915283,-4.9468994,-0.18681206,-9.7961,0.4146399,0.57929873,0.54092216,0.504096,-0.6331787,0.31324768,0.22628784
2019-07-01T19:38:46.353Z,-0.3029708,0.6544246,-0.627664,-2.3497467,-10.054642,-0.18424988,-18.183899,33.335876,-2.923584,-0.03379682,-9.798694,-0.39349943,0.22680491,0.048052788,2.7679987,0.70736694,0.14788818,-0.18605042
2019-07-01T19:38:46.544Z,-0.30728373,0.5330999,-0.68866664,-1.9262238,-8.690735,2.4311066,-24.497986,31.726074,-9.260559,0.14002791,-9.51226,2.3806868,-0.2153697,-1.9371347,-2.1044776,0.6997833,-1.8024292,-4.5776367e-05
2019-07-01T19:38:46.746Z,-0.4250293,0.43401757,-0.62564296,1.5840454,-8.195419,2.995819,-26.423645,31.053162,-4.9362183,1.0491517,-9.405864,2.5689268,-1.0977049,0.76570606,-0.52555275,0.14659119,-1.9494629,0.53341675
2019-07-01T19:38:46.971Z,-0.4959563,0.38062695,-0.51007295,-2.9886322,-15.017349,-0.74417114,-24.754333,33.309937,0.5874634,0.5515568,-9.554221,2.140801,0.051648676,0.3497162,-0.13853526,-0.16435242,-1.4590607,0.48498535
2019-07-01T19:38:47.149Z,-0.5835296,0.3423919,-0.39955777,0.5766754,-9.889542,-1.8161469,-24.395752,33.06732,6.639099,0.41902602,-9.76257,0.8288777,-1.4081054,-0.87174606,0.40134275,-0.39959717,-0.8092804,0.24472046
2019-07-01T19:38:47.357Z,-0.38170066,0.55015516,-0.59781206,-1.6988983,-9.286545,1.6223297,-21.125793,33.85315,8.552551,-0.28031138,-9.750191,1.0127113,-0.9966482,0.5999689,0.9793736,-0.09703064,-1.0939484,0.43263245
2019-07-01T19:38:47.559Z,-0.45748836,0.5114072,-0.49797392,-1.1868439,-9.382263,1.8711853,-16.409302,33.82263,15.452576,-0.8505891,-9.75293,0.5720632,-0.7697366,0.34382725,1.1296287,-0.38987732,-0.5965729,0.12194824
2019-07-01T19:38:47.763Z,-0.4971809,0.5081986,-0.478801,0.67237854,-9.549759,-1.1006927,-19.343567,32.36389,18.522644,-0.4649537,-9.795037,-0.1069848,-0.840503,0.2660761,2.1266894,-0.038513184,-0.16157532,-0.21800232
2019-07-01T19:38:47.963Z,-0.52312845,0.40438548,-0.4619108,0.24406433,-8.997009,0.3517456,-16.430664,34.52301,18.766785,0.050798126,-9.728836,1.2318915,-0.29413205,-0.12442398,-0.24409461,0.8573303,-1.9176483,-0.07273865
2019-07-01T19:38:48.168Z,-0.5815749,0.27022275,-0.34066045,-0.6269226,-9.583252,2.0075836,-8.21228,36.294556,20.680237,0.24188462,-9.647896,1.7406858,0.0186062,-0.7461195,-0.87951016,0.19526672,-2.1441498,0.21174622
2019-07-01T19:38:48.372Z,-0.61386955,0.15404966,-0.2230132,0.3517456,-9.580856,1.7060852,1.0025024,35.82611,18.847656,0.44494915,-9.600474,1.950207,-0.96410024,0.019267082,-0.11666846,-0.07650757,-1.7081146,0.3359375
2019-07-01T19:38:48.572Z,-0.64199185,0.058410347,-0.07905959,-2.794815,-9.396622,-1.3686981,10.627747,35.231018,18.255615,0.12437397,-9.665011,1.6560429,0.3979187,0.53460884,0.35566986,-0.16220093,-1.4752502,0.64198303
2019-07-01T19:38:48.780Z,-0.6594942,0.015977807,0.0326912,-0.71784973,-9.84407,1.1102753,18.374634,32.559204,15.657043,-0.6581489,-9.701616,1.2711786,-0.93391705,-0.024357796,-0.2803533,0.039871216,-0.99645996,0.36213684
2019-07-01T19:38:48.981Z,-0.6440466,-0.035206947,0.1055836,-1.3997955,-9.705292,1.6773682,21.954346,30.877686,9.428406,-0.81109834,-9.633302,1.6468207,-0.41142452,-0.114191055,-0.059265733,-0.024520874,-0.652771,0.095184326
2019-07-01T19:38:49.186Z,-0.63957596,-0.057779405,0.13315374,-1.2897339,-9.698105,1.9190369,20.602417,31.222534,9.780884,-0.8148198,-9.620511,1.718206,-0.44749826,-0.055140495,-0.34284043,-0.021835327,-0.36506653,0.09048462
2019-07-01T19:38:49.384Z,-0.63808745,-0.079030946,0.16153738,-0.9379883,-9.769897,1.5505524,22.279358,29.450989,7.91626,-0.86116135,-9.619977,1.6984835,-0.19128507,0.07419491,0.049752116,0.0043792725,-0.21508789,0.030136108
2019-07-01T19:38:49.584Z,-0.63615125,-0.084630616,0.16556877,-0.78245544,-9.6263275,1.6414795,22.63031,29.980469,8.613586,-0.82284486,-9.617912,1.728897,-0.16082639,-0.0110349655,-0.0730418,-0.006011963,-0.02432251,-0.012802124
2019-07-01T19:38:49.792Z,-0.6353423,-0.08511816,0.16520657,-0.77049255,-9.707687,1.4811554,21.546936,29.18396,8.19397,-0.8073564,-9.615871,1.7474489,0.00081449747,0.01591587,-0.037176132,0.007736206,0.016418457,-0.013595581
2019-07-01T19:38:49.991Z,-0.6370218,-0.084877156,0.16222423,-0.63409424,-9.714859,1.4309082,22.357178,30.749512,10.594177,-0.78032345,-9.625481,1.7063403,0.0136063695,-0.033773422,-0.18273282,-0.023117065,0.030349731,-0.01727295
2019-07-01T19:38:50.193Z,-0.63910323,-0.08526486,0.1608471,-0.59103394,-9.671783,1.529007,22.013855,30.519104,8.976746,-0.7665359,-9.6359005,1.652949,0.08964878,-0.025781631,-0.20166588,-0.01701355,0.024368286,-0.007247925
2019-07-01T19:38:50.403Z,-0.64056313,-0.084522836,0.15763873,-0.5766754,-9.724426,1.3997955,22.343445,30.612183,9.434509,-0.7425075,-9.6435795,1.6187791,0.10625827,0.0070314407,-0.13637269,-0.0046691895,0.020095825,-0.017456055
2019-07-01T19:38:50.607Z,-0.64070606,-0.08792486,0.15930897,-0.66760254,-9.722046,1.3280182,22.351074,30.757141,9.765625,-0.71561027,-9.648135,1.6036804,0.140612,-0.008802414,-0.16713905,-0.010650635,-0.035736084,7.6293945e-05
2019-07-01T19:38:50.803Z,-0.6440266,-0.09348481,0.1624743,-0.58384705,-9.734009,1.426117,22.079468,30.160522,9.049988,-0.692384,-9.666453,1.5002277,0.028378665,-0.01921463,-0.17342961,-0.0036315918,0.010437012,-0.0063934326
2019-07-01T19:38:51.006Z,-0.64388746,-0.099674106,0.16639504,-0.624527,-9.707687,1.3830566,21.653748,29.69513,8.898926,-0.65446186,-9.672167,1.4802951,0.08115339,0.0100393295,-0.053758264,0.0013122559,-0.01411438,0.006439209
2019-07-01T19:38:51.210Z,-0.64441466,-0.1039989,0.16993348,-0.61735535,-9.712463,1.3926239,20.724487,30.278015,10.339355,-0.6419194,-9.67764,1.4496975,0.036355913,-0.015021324,-0.06562042,0.000579834,-0.013748169,0.0058288574
2019-07-01T19:38:51.412Z,-0.6444494,-0.10609731,0.1717175,-0.624527,-9.705292,1.3997955,22.375488,29.44336,9.873962,-0.63574445,-9.679469,1.440171,0.016784847,0.0064840317,-0.043792725,0.0059661865,0.0004119873,-0.00047302246
2019-07-01T19:38:51.616Z,-0.6330646,-0.16224773,0.23578618,-0.6412811,-9.6957245,1.4428711,21.64917,29.548645,8.79364,-0.638853,-9.680786,1.4299043,0.0021666288,-0.0044441223,-0.03605032,0.003326416,-0.011672974,0.0066833496
2019-07-01T19:38:51.823Z,-0.6331355,-0.16202798,0.23573886,-0.71066284,-9.7005005,1.3926239,22.7005,29.61731,9.3688965,-0.6416846,-9.680654,1.4295417,0.01169461,-0.0032758713,-0.018684268,0.007369995,-0.013137817,0.003982544
2019-07-01T19:38:52.023Z,-0.6334039,-0.16100936,0.23549905,-0.6891327,-9.717255,1.4309082,21.595764,30.126953,9.140015,-0.65409184,-9.679854,1.4293286,-0.0162161,-0.0060977936,-0.030140162,0.006088257,-0.004348755,0.0017852783
2019-07-01T19:38:52.224Z,-0.63300115,-0.16087267,0.23532248,-0.6699829,-9.738785,1.4356995,22.54181,29.603577,9.750366,-0.6505705,-9.67848,1.440195,0.010044277,0.002275467,-0.0041685104,0.0051116943,0.0017700195,7.6293945e-05
2019-07-01T19:38:52.424Z,-0.6333065,-0.16026996,0.23478352,-0.6508484,-9.702896,1.426117,21.711731,29.267883,8.204651,-0.6536619,-9.678835,1.4364085,-0.0004695058,-0.0022010803,-0.009043574,-0.001373291,0.0048828125,0.003326416
2019-07-01T19:38:52.626Z,-0.6342004,-0.15912436,0.23398155,-0.6699829,-9.717255,1.3974152,21.920776,30.299377,8.557129,-0.6648242,-9.680296,1.4213628,-0.019426525,0.0017347336,-0.00763309,-0.0023498535,0.01361084,-0.00340271
2019-07-01T19:38:52.828Z,-0.6345605,-0.15915936,0.23366484,-0.66760254,-9.674179,1.4117584,21.73462,29.626465,9.106445,-0.66273534,-9.681783,1.4121827,-0.0002925992,0.0002412796,-0.013579369,-0.001739502,-0.0021514893,0.00088500977
2019-07-01T19:38:53.029Z,-0.6349257,-0.15939441,0.23385979,-0.7130585,-9.7005005,1.3639069,21.740723,29.620361,9.8602295,-0.66488916,-9.683169,1.401621,-0.00095289946,-0.0040979385,-0.018419147,0.0022277832,-0.007888794,0.0022277832
2019-07-01T19:38:53.234Z,-0.6347991,-0.16011927,0.23504555,-0.67477417,-9.698105,1.3974152,21.324158,29.452515,9.089661,-0.6702219,-9.683003,1.4002305,-0.0025570989,-0.0022058487,-0.017729282,0.0046844482,-0.005264282,0.00074768066
2019-07-01T19:38:53.438Z,-0.63442916,-0.16043985,0.23549262,-0.7034912,-9.722046,1.3830566,22.4823,28.286743,9.634399,-0.66921914,-9.682029,1.4074253,-0.0055063963,-0.00012874603,-0.010977387,0.006011963,-0.010757446,-0.0004119873
2019-07-01T19:38:53.638Z,-0.6342998,-0.16037337,0.23542841,-0.62931824,-9.667007,1.4644012,21.928406,30.062866,10.848999,-0.6682878,-9.681564,1.4110624,-0.010903895,-0.005145073,-0.023419023,0.010421753,-0.0030059814,-0.0030975342
2019-07-01T19:38:53.849Z,-0.63342446,-0.15952003,0.23486489,-0.5862427,-9.722046,1.3591309,21.343994,29.73938,9.899902,-0.66569006,-9.6777525,1.4381807,0.015797079,0.0027942657,0.00017011166,0.016098022,-0.017410278,0.014801025
2019-07-01T19:38:54.039Z,-0.63257784,-0.16173305,0.23804046,-0.62213135,-9.659821,1.5266266,22.065735,29.866028,9.141541,-0.67246014,-9.676229,1.4452585,0.06793004,-0.013497353,-0.033749223,-0.0046691895,0.0031738281,0.024887085
2019-07-01T19:38:54.246Z,-0.63350147,-0.16050556,0.23862468,-0.74417114,-9.614365,1.4572296,23.239136,30.66101,10.690308,-0.7036468,-9.676266,1.4300815,0.014006555,0.0072231293,0.057788253,-0.041870117,-0.03274536,0.01473999
2019-07-01T19:38:54.450Z,-0.6350511,-0.1630659,0.24267898,-0.83270264,-9.731613,1.2418823,21.969604,29.570007,8.859253,-0.73591536,-9.681808,1.3752782,-0.046826124,0.006795883,0.05142665,-0.031295776,-0.12034607,0.02104187
2019-07-01T19:38:54.663Z,-0.6341916,-0.17146134,0.2534759,-1.0624084,-9.676575,1.2131653,22.006226,28.703308,8.076477,-0.76508456,-9.684274,1.3415893,-0.049990654,-0.00019073486,-0.04861796,-0.0074768066,-0.14361572,0.024627686
2019-07-01T19:38:54.865Z,-0.632564,-0.17651597,0.25914592,-0.6388855,-9.745972,1.3686981,23.101807,29.797363,8.181763,-0.7633034,-9.68359,1.3475296,-0.13316876,0.005405426,-0.094462276,0.006134033,0.0181427,-0.025024414
2019-07-01T19:38:55.061Z,-0.6325685,-0.17445521,0.25326338,-0.75852966,-9.714859,1.282547,22.105408,29.074097,8.375549,-0.70996857,-9.6856785,1.3616045,0.0034783483,0.010139465,0.00076282024,0.013900757,0.0018920898,-0.020874023
2019-07-01T19:38:55.267Z,-0.6313566,-0.1784353,0.25656176,-0.7010956,-9.710068,1.3782654,22.485352,28.741455,7.38678,-0.6931329,-9.686546,1.3640993,-0.0047690272,-0.015774727,-0.06135559,0.012008667,-0.010879517,-0.007247925
2019-07-01T19:38:55.481Z,-0.59122795,-0.28425333,0.37400988,-0.7417755,-9.748352,1.282547,22.221375,29.730225,9.260559,-0.68211925,-9.687053,1.3660578,-0.018155634,-0.0050201416,-0.037762523,0.009567261,-0.008865356,-0.00010681152
2019-07-01T19:38:55.674Z,-0.5889826,-0.28814596,0.3792374,-0.7513428,-9.710068,1.4045868,22.709656,30.062866,8.175659,-0.6911711,-9.685241,1.374332,-0.0029760003,-0.005774498,-0.01664269,0.009628296,0.010986328,0.001663208
2019-07-01T19:38:55.878Z,-0.5893347,-0.28585863,0.3775863,-0.7130585,-9.688538,1.3758698,22.398376,30.110168,8.877563,-0.6947847,-9.682466,1.3919449,-0.017567337,-0.0031251907,0.013114572,0.003692627,0.028213501,-0.01322937
2019-07-01T19:38:56.081Z,-0.59004295,-0.2841358,0.37475628,-0.61735535,-9.707687,1.4428711,22.44873,29.457092,8.74176,-0.6797196,-9.683122,1.3948224,-0.00036674738,0.010151863,0.02173841,0.0010681152,0.03224182,-0.013839722
2019-07-01T19:38:56.285Z,-0.5888654,-0.28481364,0.37409374,-0.6771698,-9.745972,1.380661,22.946167,29.933167,8.139038,-0.64831465,-9.682423,1.4144866,0.050210595,0.0076675415,0.02077496,0.0014953613,-0.038482666,0.014007568
2019-07-01T19:38:56.485Z,-0.58752334,-0.28835917,0.3793449,-1.0121613,-9.734009,1.6055908,23.583984,29.754639,8.152771,-0.6722811,-9.682083,1.405593,0.012416244,-0.010281563,-0.029527783,-0.0002746582,-0.045028687,0.025848389
2019-07-01T19:38:56.688Z,-0.5865243,-0.2850112,0.38696602,-0.9954071,-9.573685,1.832901,24.421692,28.87268,7.258606,-0.8072261,-9.662758,1.4662484,-0.077800155,0.006136894,0.0661453,-0.020431519,-0.20965576,0.09353638
2019-07-01T19:38:56.888Z,-0.5820857,-0.2995622,0.39860657,-1.409378,-9.595215,1.7036896,23.64502,29.397583,7.849121,-0.7769588,-9.67489,1.401149,0.05074376,0.07389355,0.16269672,-0.09941101,-0.044418335,-0.06790161
2019-07-01T19:38:57.100Z,-0.59014004,-0.30418772,0.38580674,-1.4691925,-9.652649,1.8352966,22.946167,29.782104,8.787537,-0.643706,-9.71636,1.1611967,-0.6977772,0.011065483,0.3673482,-0.13990784,0.049835205,-0.1547699
2019-07-01T19:38:57.296Z,-0.59579724,-0.31465518,0.36260632,0.15074158,-9.51387,-0.08135986,22.821045,30.801392,8.093262,-0.2638218,-9.761464,0.9025598,-1.033578,0.12795544,0.7534698,0.0074920654,0.096328735,-0.13259888
2019-07-01T19:38:57.500Z,-0.5924645,-0.29978028,0.35154963,2.0937195,-9.923035,0.5288086,21.868896,32.699585,8.972168,-0.20479226,-9.735709,1.159491,-0.3726603,0.039051056,-0.79046106,0.08970642,0.25930786,-0.1207428
2019-07-01T19:38:57.698Z,-0.59193456,-0.307402,0.33536282,1.2155609,-9.899109,0.9188385,21.66748,33.631897,9.020996,0.117827296,-9.746172,1.0810349,1.1876687,-0.4582224,-0.4036957,-0.04272461,-0.098236084,-0.12184143
2019-07-01T19:38:57.905Z,-0.58305764,-0.32725444,0.34962302,0.830307,-11.191238,1.7611237,24.398804,32.078552,7.081604,0.21422242,-9.749156,1.0384905,0.73140603,0.36707115,-0.16606247,-0.068374634,-0.42456055,0.21546936
2019-07-01T19:38:58.107Z,-0.5724248,-0.3523653,0.3958125,-0.7848511,-9.542572,1.5266266,26.295471,31.332397,6.852722,-0.11959801,-9.760305,0.94474447,0.60105044,-0.35393143,-0.008273661,-0.15542603,-0.4694519,0.119140625
2019-07-01T19:38:58.310Z,-0.5745401,-0.36643755,0.41359133,-0.41156006,-10.088135,0.3134613,26.756287,32.75299,6.2164307,-0.32109582,-9.776451,0.69876695,-0.24622756,0.33939743,-0.24070156,0.07572937,-0.13201904,0.06629944
2019-07-01T19:38:58.514Z,-0.5698281,-0.3684491,0.4193038,-0.4737854,-9.820145,0.5814514,26.412964,30.54657,5.6274414,-0.32794723,-9.770434,0.77553403,-0.032289684,-0.06515312,-0.11065185,0.007675171,0.0051879883,0.025314331
2019-07-01T19:38:58.731Z,-0.5730686,-0.36328074,0.41796303,-0.3900299,-9.796219,0.6699829,27.241516,31.037903,5.847168,-0.3935749,-9.767889,0.7770683,-0.15056914,0.033668518,-0.0759173,0.024719238,0.024978638,0.01651001
2019-07-01T19:38:58.922Z,-0.57033634,-0.36326653,0.42413518,-0.6077728,-9.793823,0.8494568,26.493835,30.630493,5.19104,-0.4525715,-9.760246,0.83854526,0.03975123,-0.038524628,-0.19434774,0.0030212402,-0.12962341,0.059631348
2019-07-01T19:38:59.108Z,-0.56535757,-0.36847153,0.43695194,-0.5312042,-9.793823,0.9954071,25.99945,30.300903,5.593872,-0.5472636,-9.752215,0.87474424,-0.14613706,-0.01471138,-0.038287044,0.025268555,0.10383606,-0.012619019
2019-07-01T19:38:59.357Z,-0.5741392,-0.35258105,0.42148665,-1.1413727,-9.978073,0.54556274,26.68457,31.222534,5.453491,-0.5489684,-9.749525,0.90320796,-0.09553337,-0.019779205,0.031407714,0.020492554,0.10054016,-0.010604858
2019-07-01T19:38:59.534Z,-0.5768665,-0.34706283,0.4158636,-1.7515411,-9.6263275,0.8111725,24.545288,30.05371,6.2088013,-0.5432471,-9.748524,0.91736233,-0.4289567,-0.031373978,-0.15479136,0.04396057,0.21899414,-0.036087036
2019-07-01T19:38:59.726Z,-0.58968955,-0.31628546,0.39407688,-0.61016846,-9.856033,1.4189453,24.586487,30.700684,7.698059,-0.64949137,-9.731349,1.0243979,-0.8542443,-0.007715225,-0.25058734,0.12910461,0.8437195,0.000869751
2019-07-01T19:38:59.932Z,-0.6198207,-0.24274877,0.3336171,-0.38046265,-9.619141,1.8089752,22.532654,31.28357,9.259033,-0.877518,-9.703355,1.1159045,0.12185007,-0.060502052,0.28959036,0.058258057,0.9927826,0.025619507
2019-07-01T19:39:00.131Z,-0.63847804,-0.19189887,0.28891528,-0.70588684,-9.777069,0.94277954,21.784973,30.415344,11.077881,-1.03206,-9.691205,1.0889432,0.9255669,0.080163956,0.40667236,0.065093994,0.45637512,-0.0035247803
2019-07-01T19:39:00.336Z,-0.63993907,-0.1822354,0.2793734,-1.0241241,-9.67897,1.0193481,21.026611,31.15387,13.072205,-1.032216,-9.687275,1.1232191,0.4526657,-0.01736641,-0.0964309,0.012252808,0.020584106,-0.0029144287
2019-07-01T19:39:00.535Z,-0.63929904,-0.18331446,0.28005314,-1.2993011,-9.688538,0.9690857,21.621704,30.10254,12.533569,-1.0224664,-9.68734,1.1315415,-0.078600526,0.00687027,-0.17164648,0.009140015,-0.04673767,-0.009994507
2019-07-01T19:39:00.741Z,-0.6373047,-0.18658789,0.2823384,-0.9571228,-9.722046,1.0384827,20.739746,31.932068,13.244629,-0.9954989,-9.687056,1.1577269,-0.18921006,0.014988899,-0.1485213,0.0149383545,-0.018875122,-0.015686035
2019-07-01T19:39:00.947Z,-0.6368027,-0.18790543,0.28185484,-0.90927124,-9.731613,0.9954071,20.283508,30.892944,12.068176,-0.96767294,-9.689531,1.1605955,-0.020335257,-0.030518532,-0.17420316,0.011703491,-0.0013580322,-0.013534546
2019-07-01T19:39:01.149Z,-0.6351747,-0.18901892,0.28193218,-0.36131287,-9.698105,1.2681885,20.899963,32.025146,12.272644,-0.94021213,-9.688302,1.1929778,0.002096355,-0.01143837,-0.17213893,0.021530151,-0.022125244,-0.008163452
2019-07-01T19:39:01.353Z,-0.6305248,-0.1969457,0.2911733,-0.25602722,-9.686142,1.2969055,21.302795,32.128906,11.824036,-0.92780465,-9.682512,1.2484035,0.4202459,0.024352074,-0.07906878,0.040725708,-0.37904358,0.04876709
2019-07-01T19:39:01.555Z,-0.6084632,-0.2408611,0.33635703,-1.3567352,-9.437286,1.5361938,22.042847,31.176758,9.184265,-0.81484866,-9.670862,1.4074202,0.58427787,-0.086133,-0.084685564,-0.026290894,-0.888504,0.03819275
2019-07-01T19:39:01.744Z,-0.5772462,-0.30284384,0.39689505,-0.5670929,-11.062027,2.313858,24.554443,30.731201,3.552246,-0.65537703,-9.673306,1.4724189,-0.33798712,0.08949089,0.18693614,-0.09048462,-1.113739,0.11375427
2019-07-01T19:39:02.011Z,-0.5380531,-0.37665638,0.46679613,-0.76330566,-9.544968,1.4117584,25.698853,30.114746,-0.9994507,-0.5510522,-9.698192,1.346038,-0.34827274,-0.045965195,0.5663831,-0.23886108,-1.1725006,0.0942688
2019-07-01T19:39:02.207Z,-0.5136376,-0.42748305,0.50893533,-0.34934998,-9.738785,0.37806702,26.64032,29.97284,-3.1066895,-0.5776933,-9.733359,1.0480304,-0.91357934,0.04287243,0.56276023,-0.14466858,-0.579834,0.07136536
2019-07-01T19:39:02.418Z,-0.5017837,-0.4470165,0.5227906,-0.43788147,-9.743576,0.68196106,27.449036,30.180359,-3.8497925,-0.54675245,-9.745292,0.9490741,-0.2554677,0.10418892,0.08740932,-0.0077209473,-0.07978821,-0.015625
2019-07-01T19:39:02.615Z,-0.50248826,-0.44825444,0.521634,-0.5048828,-9.805786,0.7034912,26.939392,29.63562,-4.0145874,-0.5127546,-9.755093,0.8635044,0.088505566,-0.024817467,-0.27280694,-0.013763428,0.010070801,-0.009811401
2019-07-01T19:39:02.804Z,-0.5033169,-0.45016184,0.5198896,-0.35414124,-9.88475,0.81355286,28.02887,30.657959,-4.3045044,-0.5325547,-9.757231,0.82656825,-0.0015084147,-0.00021362305,-0.11683023,-0.015182495,-0.007156372,-0.0005340576
2019-07-01T19:39:03.004Z,-0.50410473,-0.4513703,0.5203279,-0.653244,-9.6957245,0.67477417,26.531982,29.464722,-3.8833618,-0.55873245,-9.757367,0.8074578,0.14533597,-0.011770248,-0.03473574,-0.010223389,0.0178833,0.011383057
2019-07-01T19:39:03.198Z,-0.505497,-0.45089236,0.52026445,-0.49771118,-9.812973,0.80877686,27.22168,30.377197,-3.1967163,-0.58353263,-9.757693,0.78568643,-0.033897817,-0.004078865,-0.063212335,-0.0047912598,0.0045776367,0.012664795
2019-07-01T19:39:03.394Z,-0.50737333,-0.45001498,0.51958716,-0.64367676,-9.8033905,0.78245544,28.825378,30.342102,-3.7246704,-0.5740324,-9.757124,0.79962635,0.050733924,0.0022363663,0.010108709,0.0070648193,0.006164551,0.0054626465
2019-07-01T19:39:03.593Z,-0.51548755,-0.43988976,0.5093764,-0.6125641,-9.779465,0.8183441,26.708984,29.611206,-2.6535034,-0.60811216,-9.753884,0.8138382,-0.04174465,-0.0030508041,0.0049414635,0.001739502,-0.075927734,0.013519287
2019-07-01T19:39:03.786Z,-0.5136189,-0.4412499,0.51332533,-0.6053772,-9.793823,0.84706116,27.644348,29.095459,-3.5507202,-0.62774986,-9.751402,0.828542,-0.017301261,0.00399971,0.027792633,-0.00039672852,-0.040130615,0.010650635
2019-07-01T19:39:03.980Z,-0.51292974,-0.441202,0.5150673,-0.4737854,-9.777069,0.8374939,27.017212,29.493713,-3.7460327,-0.64027685,-9.751595,0.81659424,0.021457255,-0.010766029,0.018505216,-0.0050354004,-0.012771606,0.007904053
2019-07-01T19:39:04.244Z,-0.51307124,-0.44195247,0.51539487,-0.8422699,-9.757935,0.7082825,27.682495,30.128479,-4.6279907,-0.63417417,-9.75232,0.8126949,0.057136774,0.015591621,0.03028351,-0.016098022,-0.013870239,0.017303467
2019-07-01T19:39:04.441Z,-0.520164,-0.43461928,0.5091264,-0.55992126,-9.784256,0.7657013,27.676392,29.902649,-3.9916992,-0.67286444,-9.751182,0.79503417,-0.10691154,0.004593849,-0.08295864,0.0036468506,0.043914795,-0.0013885498
2019-07-01T19:39:04.644Z,-0.52720976,-0.42406696,0.49628213,-0.5024872,-9.820145,0.7298126,27.874756,30.410767,-1.9317627,-0.6071918,-9.7527485,0.8280159,0.024233758,-0.0061206818,-0.0497455,0.04046631,0.22839355,-0.04084778
2019-07-01T19:39:04.848Z,-0.53321916,-0.41697514,0.4870961,-0.5288086,-9.789032,0.83509827,27.812195,30.697632,-1.5716553,-0.58091086,-9.755025,0.8200134,0.018989325,-0.014121056,-0.049735963,0.036987305,0.20524597,-0.036758423
2019-07-01T19:39:05.049Z,-0.53660524,-0.41148818,0.48030293,-0.1603241,-9.698105,1.0456696,27.418518,28.915405,-0.85754395,-0.54668254,-9.755464,0.83812064,0.038587213,0.0038633347,0.004849732,0.010971069,0.14556885,-0.021240234
2019-07-01T19:39:05.249Z,-0.537671,-0.41257632,0.47995672,-0.8829498,-9.817749,0.64845276,27.349854,30.947876,-0.29144287,-0.5535467,-9.758434,0.79807734,0.09052229,-0.03164959,0.016343594,0.00064086914,0.08660889,-0.0024719238
2019-07-01T19:39:05.454Z,-0.53586936,-0.4176347,0.48807016,-0.38046265,-9.7986145,1.0504456,28.06549,28.804016,0.2960205,-0.6416058,-9.756575,0.75364673,-0.21766776,0.02289772,-0.07947087,-0.038085938,-0.10720825,0.052246094
2019-07-01T19:39:05.653Z,-0.53683084,-0.4181054,0.49026275,-0.2416687,-9.631119,0.97387695,28.237915,29.260254,-0.6729126,-0.69563115,-9.754991,0.7257029,-0.0046654344,-0.031373024,0.119963884,-0.018722534,-0.07366943,0.029464722
2019-07-01T19:39:05.856Z,-0.532882,-0.42277378,0.49392518,-0.7010956,-9.970886,0.8614197,29.533386,29.568481,-1.2680054,-0.6713055,-9.756258,0.7315587,0.08635247,0.037979126,0.06567097,-0.0013122559,-0.064453125,0.014556885
2019-07-01T19:39:06.064Z,-0.5272067,-0.43041238,0.50228024,-0.76091003,-9.734009,0.7776642,29.164124,28.6026,-2.1270752,-0.6908717,-9.755623,0.7217354,-0.00643754,0.054234505,0.01829511,-0.0065612793,-0.07421875,0.0010528564
2019-07-01T19:39:06.264Z,-0.51775926,-0.4415859,0.515848,-0.8111725,-9.748352,0.62213135,30.914307,28.364563,-3.1539917,-0.7311593,-9.7525,0.7242646,-0.032569826,0.030453682,0.017457902,-0.027816772,-0.21136475,0.037704468
2019-07-01T19:39:06.468Z,-0.5091885,-0.45319813,0.5293678,-1.0624084,-9.779465,0.63409424,30.033875,28.831482,-4.988098,-0.79719424,-9.749588,0.69310534,-0.06810278,-0.0071287155,-0.005833924,-0.031845093,-0.26268005,0.035202026
2019-07-01T19:39:06.673Z,-0.5049263,-0.4593101,0.5350534,-1.0456696,-9.793823,0.6412811,28.523254,28.782654,-2.5177002,-0.8143343,-9.74989,0.66849244,-0.20805377,-0.004430771,-0.04655236,-0.031051636,-0.19999695,0.023223877
2019-07-01T19:39:06.872Z,-0.50835675,-0.45602283,0.5305823,-0.79681396,-9.784256,0.62931824,29.792786,28.507996,-3.2318115,-0.79940826,-9.75175,0.65933263,-0.17607534,0.002409935,-0.054382384,-0.00680542,-0.016616821,-0.0036468506
2019-07-01T19:39:07.077Z,-0.5180298,-0.44518855,0.5188163,-0.74417114,-9.834503,0.7298126,28.578186,29.79889,-1.4816284,-0.78253484,-9.753335,0.65611017,-0.05136448,0.016781807,-0.0016676188,0.008041382,0.16113281,-0.024230957
2019-07-01T19:39:07.278Z,-0.52793,-0.43202725,0.50424224,-0.7298126,-9.827316,0.71784973,28.300476,28.747559,-0.024414062,-0.7343488,-9.755484,0.679451,-0.031089962,0.00054073334,0.024116337,0.025268555,0.25778198,-0.05067444
2019-07-01T19:39:07.483Z,-0.5168533,-0.44442397,0.5152381,-0.52163696,-9.765106,0.6963043,27.856445,29.745483,-0.70648193,-0.69479144,-9.757404,0.69333017,-0.0148845315,-0.023834229,-0.022652566,0.026306152,0.25650024,-0.04798889
2019-07-01T19:39:07.689Z,-0.5223972,-0.4372011,0.5066164,-0.6125641,-9.800995,0.6652069,28.671265,29.640198,1.1245728,-0.65902376,-9.759034,0.70522255,0.11913729,-0.0032072067,-0.03454244,0.020858765,0.21220398,-0.027893066
2019-07-01T19:39:07.926Z,-0.52321154,-0.43725646,0.5033266,-0.58384705,-9.796219,0.6077728,28.164673,29.244995,0.46081543,-0.61316746,-9.763281,0.687573,0.006719172,-0.0070562363,-0.070985734,0.013534546,0.09327698,-0.027709961
2019-07-01T19:39:08.091Z,-0.52436334,-0.4380559,0.5025894,-0.5647125,-9.738785,0.6197357,28.352356,29.916382,-0.01373291,-0.6180716,-9.765533,0.6501829,0.009449542,-0.018661499,-0.052182376,0.007247925,0.02998352,-0.012924194
2019-07-01T19:39:08.295Z,-0.52539235,-0.43672827,0.50115705,-0.5144501,-9.82254,0.5694885,28.263855,29.614258,0.75531006,-0.61498135,-9.765622,0.65177536,0.040467024,0.015493393,-0.008179963,-0.0024719238,0.01776123,0.0128479
2019-07-01T19:39:08.498Z,-0.5247503,-0.43687135,0.4998872,-0.5790558,-9.791428,0.653244,26.683044,28.643799,-0.35705566,-0.5794506,-9.767071,0.66254765,0.039209187,-0.008125305,-0.026049614,0.01701355,0.03437805,-0.0075531006
2019-07-01T19:39:08.704Z,-0.524015,-0.43776545,0.5003344,-0.5886383,-9.8033905,0.6388855,26.434326,30.152893,0.41351318,-0.57118654,-9.767571,0.6623344,0.008051336,-0.005132675,-0.015900552,0.0035705566,0.006225586,-0.0047454834
2019-07-01T19:39:08.900Z,-0.52288514,-0.43935078,0.5017126,-0.5766754,-9.810577,0.5934143,28.862,30.381775,0.7385254,-0.58116,-9.768459,0.6401947,-0.015797913,-0.008193016,-0.059898376,0.002532959,-0.020401001,-0.0013885498
2019-07-01T19:39:09.105Z,-0.5223441,-0.4406065,0.5036853,-0.66041565,-9.748352,0.82073975,27.355957,30.71289,1.9241333,-0.5929442,-9.767257,0.64768046,0.019300938,0.005543709,0.017237961,9.1552734e-05,-0.012649536,0.008270264
2019-07-01T19:39:09.302Z,-0.52273417,-0.4375849,0.50446975,-0.7417755,-9.824936,0.7992096,27.635193,29.785156,1.6479492,-0.6243629,-9.762278,0.6917306,-0.034664154,0.008599281,0.076262236,-0.0010681152,0.0004119873,0.01071167
2019-07-01T19:39:09.521Z,-0.5225346,-0.43700498,0.50568384,-0.6125641,-9.757935,0.72024536,28.186035,29.530334,1.574707,-0.6449897,-9.759932,0.70576936,-0.016634047,0.0038080215,0.036835253,0.0035095215,-0.010879517,0.0055236816
2019-07-01T19:39:09.714Z,-0.5202895,-0.44026592,0.50811666,-0.6029968,-9.7986145,0.61735535,29.110718,30.46875,1.1993408,-0.6381051,-9.761115,0.69558173,0.0005121827,-0.0048980713,-0.016012967,-0.0055236816,-0.029693604,0.0050354004
2019-07-01T19:39:09.910Z,-0.5179499,-0.44485688,0.51175326,-0.70588684,-9.8033905,0.6053772,28.088379,29.237366,0.91400146,-0.64880025,-9.762642,0.6635239,-0.008356869,-0.0031013489,-0.038477004,-0.0065612793,-0.064208984,0.004486084
2019-07-01T19:39:10.114Z,-0.516637,-0.4483515,0.5150431,-0.68196106,-9.750748,0.5934143,26.9516,29.092407,0.32958984,-0.6767713,-9.763032,0.62894154,-0.024466932,-0.010433197,-0.031885684,-0.012435913,-0.066345215,0.008392334
2019-07-01T19:39:10.313Z,-0.51666164,-0.44947413,0.5164844,-0.7393799,-9.793823,0.5670929,27.738953,28.707886,0.3692627,-0.70180863,-9.76255,0.6086742,-0.015529931,0.0036783218,-0.020533085,-0.011520386,-0.03878784,0.014801025
2019-07-01T19:39:10.524Z,-0.51770115,-0.44939137,0.5160213,-0.7082825,-9.777069,0.5790558,28.78418,28.704834,0.24871826,-0.7129545,-9.762946,0.5890444,0.00034183264,0.0008497238,-0.029242158,-0.003692627,-0.0025177002,0.006866455
2019-07-01T19:39:10.722Z,-0.5191939,-0.4484183,0.51437354,-0.72262573,-9.762711,0.50727844,27.74353,28.933716,-0.491333,-0.71232766,-9.76378,0.5758222,0.012086332,-0.0001373291,-0.016651392,-0.0015563965,0.026992798,0.002532959
2019-07-01T19:39:10.928Z,-0.5202629,-0.44748208,0.51335114,-0.7130585,-9.745972,0.5886383,28.942871,28.869629,-0.70648193,-0.71549535,-9.763863,0.5704786,0.0041710734,0.008316994,-0.009593904,0.0038757324,0.02796936,-0.0018157959
2019-07-01T19:39:11.132Z,-0.5201439,-0.44687772,0.5121334,-0.6963043,-9.772293,0.55274963,28.863525,28.787231,-0.26397705,-0.691744,-9.764804,0.58350694,0.0071466565,-0.0008058548,-0.01353991,0.002166748,0.02381897,-0.001083374
2019-07-01T19:39:11.329Z,-0.52104557,-0.44525486,0.510347,-0.7034912,-9.812973,0.49771118,27.696228,29.580688,0.24414062,-0.6793289,-9.765074,0.59349144,-0.032113075,0.0010328293,-0.030695021,0.014511108,0.02394104,-0.015060425
2019-07-01T19:39:11.536Z,-0.5226686,-0.44322965,0.50719064,-0.5288086,-9.714859,0.58384705,27.824402,30.455017,1.473999,-0.65617764,-9.766531,0.5955581,-0.024531066,-0.01500988,-0.07380861,0.02116394,0.053131104,-0.022949219
2019-07-01T19:39:11.759Z,-0.5257184,-0.43936494,0.50163525,-0.624527,-9.8033905,0.5790558,28.027344,29.821777,0.20446777,-0.6211335,-9.768566,0.5997475,0.052990615,0.002603531,-0.04902953,0.022567749,0.094192505,-0.014404297
2019-07-01T19:39:11.946Z,-0.5287437,-0.4342606,0.49597648,-0.4283142,-9.777069,0.57188416,27.2995,29.394531,2.1865845,-0.58967656,-9.768956,0.6246414,0.01875943,-0.009852409,-0.042580068,0.031555176,0.10940552,-0.018737793
2019-07-01T19:39:12.145Z,-0.5330093,-0.4281299,0.48692933,-0.39720154,-9.762711,0.68434143,27.511597,30.426025,2.6901245,-0.5257261,-9.771645,0.6395088,0.06614554,0.021557808,-0.03408456,0.02355957,0.13786316,-0.018737793
2019-07-01T19:39:12.347Z,-0.53855836,-0.4189354,0.47782907,-0.84706116,-9.810577,0.8949127,27.822876,30.152893,2.9251099,-0.501061,-9.770509,0.675639,-0.0030436516,0.010147095,0.012838125,0.026367188,0.1634674,-0.03125
2019-07-01T19:39:12.542Z,-0.5453698,-0.406373,0.47252983,-0.69869995,-9.762711,0.9308014,26.828003,29.273987,4.069519,-0.58713907,-9.761488,0.7341803,-0.19100058,-0.016368866,0.17616194,0.024230957,0.164505,-0.001449585
2019-07-01T19:39:12.746Z,-0.54859596,-0.3986681,0.4711863,-0.91645813,-9.841675,0.91166687,27.496338,29.829407,4.1549683,-0.6598766,-9.752752,0.7866145,-0.048664212,-0.02683258,0.1251939,0.04298401,0.120147705,0.04081726
2019-07-01T19:39:12.952Z,-0.5515349,-0.39212054,0.4711843,-0.9786682,-9.877579,0.92362976,26.818848,28.823853,5.4885864,-0.7461916,-9.743376,0.82475424,-0.17698371,-0.024252892,0.04447359,0.015670776,0.057296753,0.023788452
2019-07-01T19:39:13.153Z,-0.55472136,-0.38858828,0.47265154,-0.99780273,-9.724426,0.9403839,27.250671,27.993774,3.642273,-0.8453173,-9.736539,0.8097028,-0.17533857,-0.029909134,0.12319416,0.010543823,0.04550171,0.04319763
2019-07-01T19:39:13.358Z,-0.55125755,-0.39165387,0.48058245,-1.1413727,-9.712463,1.3040924,28.019714,29.067993,3.300476,-0.9069565,-9.728602,0.83792645,-0.12717903,0.013092041,0.17383015,0.005844116,-0.035736084,0.0546875
2019-07-01T19:39:13.560Z,-0.54380864,-0.398743,0.48460007,-1.5122681,-9.609573,1.3710938,27.622986,29.187012,3.491211,-0.8112429,-9.732611,0.8880157,-0.34010035,0.07588196,0.40988964,0.004196167,-0.11868286,-0.009750366
2019-07-01T19:39:13.767Z,-0.5402043,-0.42029023,0.47885925,-2.079361,-9.219543,2.2157593,26.759338,29.789734,2.8182983,-0.5418301,-9.772117,0.618514,-0.9286908,0.1902113,0.7669946,-0.06666565,-0.154068,-0.09588623
2019-07-01T19:39:13.966Z,-0.5382801,-0.42137498,0.4786961,1.9860382,-12.691528,-0.26081848,27.914429,30.52826,2.31781,-0.5004408,-9.772854,0.64130884,-1.3183403,0.51899624,1.225475,-0.2761383,-0.18069458,-0.17480469
2019-07-01T19:39:14.174Z,-0.49783292,-0.43508118,0.5010046,-0.04067993,-8.760132,0.098098755,27.061462,32.032776,-2.0965576,-0.12645781,-9.7280035,1.233024,1.7462637,-1.2336416,-1.2903,0.32086182,0.050827026,0.06599426
2019-07-01T19:39:14.378Z,-0.45372283,-0.46856698,0.5413338,0.1651001,-9.533005,1.7252197,28.364563,31.277466,-6.0806274,0.058977097,-9.696763,1.4627713,0.4051628,0.558403,-0.6404804,0.21743774,-0.78601074,-0.21885681
2019-07-01T19:39:14.577Z,-0.4237863,-0.47622848,0.5663974,0.7010956,-9.032898,2.4789581,30.967712,32.725525,-10.499573,0.1707617,-9.63173,1.8360327,0.30984715,0.08880043,-0.017647624,0.13967896,-0.49609375,0.13336182
2019-07-01T19:39:14.785Z,-0.41967145,-0.46506712,0.57831264,0.51924133,-11.545364,2.2181396,36.184692,30.516052,-10.029602,0.007003534,-9.576927,2.1101646,0.5457589,0.50475407,0.18529892,0.1990509,-0.2088623,-0.017944336
2019-07-01T19:39:14.987Z,-0.46315956,-0.44950947,0.56058407,-1.2275238,-9.415756,-1.7826538,42.947388,29.23584,-12.454224,-0.51832545,-9.655283,1.6362287,0.69762844,-1.3293972,0.26994097,-0.019760132,0.18295288,0.23709106
2019-07-01T19:39:15.181Z,-0.49564737,-0.4223127,0.5312713,-0.0023956299,-9.74118,0.63409424,44.94171,30.909729,-13.858032,-0.67549115,-9.669178,1.4903294,0.101718605,0.28193188,-1.0021663,-0.09587097,0.43463135,0.15689087
2019-07-01T19:39:15.390Z,-0.53889865,-0.36622146,0.4753501,-0.9188385,-9.600006,1.3639069,40.481567,31.236267,-9.681702,-0.77780414,-9.663041,1.4802177,-0.41152906,0.24104023,-0.4438218,0.0040130615,0.98275757,-0.115493774
2019-07-01T19:39:15.651Z,-0.58776236,-0.3669096,0.41253114,-0.6077728,-10.174286,1.0839539,38.00049,32.341003,-3.9962769,-0.49988672,-9.786111,0.3905542,0.18523782,0.060995102,0.69277203,-0.24003601,0.7351074,-0.15330505
2019-07-01T19:39:15.843Z,-0.6378232,-0.32999665,0.3567577,-2.342575,-10.033112,1.3830566,33.735657,31.359863,1.1901855,-0.59575313,-9.783683,-0.3082479,0.53139645,-0.5046711,1.4298048,-0.39109802,0.74391174,0.012176514
2019-07-01T19:39:16.043Z,-0.58718497,-0.30526865,0.36209083,-0.5048828,-10.451843,-0.34695435,32.03125,32.39441,3.6621094,-0.23974067,-9.727951,1.2165121,-0.2879811,0.15681362,-1.3090707,0.08055115,0.49778748,-0.010482788
2019-07-01T19:39:16.247Z,-0.5521724,-0.34401193,0.3710469,-0.105285645,-9.683746,0.5407715,27.642822,34.48944,-3.2089233,0.45252967,-9.679821,1.5055441,-0.24368683,-0.561162,-1.9657909,0.8726654,-0.053634644,-0.36863708
2019-07-01T19:39:16.499Z,-0.5237528,-0.3593388,0.38767374,0.6388855,-9.516251,1.6103668,25.013733,35.879517,-7.725525,0.725787,-9.594634,1.8938328,-0.69329125,0.0061063766,-1.0139982,0.08439636,-0.46780396,-0.19129944
2019-07-01T19:39:16.656Z,-0.5145414,-0.36114648,0.38735625,1.4021912,-8.901306,2.4191437,24.258423,35.707092,-10.824585,0.8676078,-9.5494,2.0558734,-0.049181998,-0.017715454,-0.39828992,0.13339233,-0.16035461,-0.07144165
2019-07-01T19:39:16.858Z,-0.5183118,-0.34775886,0.38773188,2.1176453,-9.114258,2.519638,20.332336,34.661865,-13.066101,0.6848221,-9.539991,2.165635,0.5744701,0.5691595,0.06546068,0.08805847,0.06175232,-0.013656616
2019-07-01T19:39:17.060Z,-0.5408511,-0.33859167,0.40093932,1.5122681,-9.317657,0.9379883,19.454956,33.151245,-13.7161255,0.1121521,-9.635478,1.8208156,1.4275641,-0.835886,-0.053210378,-0.043701172,0.18380737,0.2566986
2019-07-01T19:39:17.258Z,-0.55638874,-0.3372176,0.38893792,-2.9168549,-9.43251,0.8422699,13.858032,31.964111,-2.7038574,0.06968353,-9.690282,1.5046514,0.054789178,-0.00966835,-0.05586183,-0.14277649,0.056625366,0.11517334
2019-07-01T19:39:17.526Z,-0.5812881,-0.299555,0.35903618,-0.74417114,-9.86322,0.34457397,12.895203,31.36139,1.0635376,-0.18084496,-9.701696,1.4194335,-1.650632,0.22980595,-0.4603163,-0.22488403,0.20768738,0.008514404
2019-07-01T19:39:17.721Z,-0.61162776,-0.27019015,0.31731993,0.22253418,-9.623932,1.3304138,12.937927,31.471252,5.9188843,-0.2429443,-9.748565,1.0377159,-0.3668002,-0.13760662,-0.5707768,0.01133728,0.6761017,-0.013671875
2019-07-01T19:39:17.924Z,-0.6353234,-0.23705988,0.28411475,0.40438843,-9.650253,0.9523468,13.420105,30.744934,9.60083,-0.38873267,-9.767222,0.7878025,0.24691856,0.06944466,0.31581795,-0.16966248,0.50946045,0.0309906
2019-07-01T19:39:18.124Z,-0.6707219,-0.20231876,0.24729972,0.8901367,-9.444473,1.8065796,11.495972,29.922485,14.94751,-0.5971338,-9.786791,0.18042816,0.64052474,0.14768696,0.9276003,-0.1887207,0.5714569,0.022613525
2019-07-01T19:39:18.325Z,-0.69866157,-0.16325766,0.21449184,-0.21534729,-8.123627,0.279953,9.898376,31.84967,16.011047,-0.81711584,-9.768249,-0.28990436,0.8759264,-0.80317783,0.5950501,-0.3851776,0.63804626,0.13635254
2019-07-01T19:39:18.531Z,-0.6513926,-0.13463508,0.18122093,0.80877686,-10.547562,-1.2562256,7.5546265,33.976746,12.915039,-0.4024571,-9.733132,1.1289632,-0.48332682,0.7359972,-0.6622175,0.185318,0.467865,0.00894165
2019-07-01T19:39:18.735Z,-0.61826146,-0.18749368,0.19740906,0.9786682,-9.7986145,1.3997955,8.595276,34.129333,11.543274,0.31755647,-9.666697,1.6200372,-0.09470901,-0.7967529,-1.6663809,0.8766327,-0.08558655,-0.30389404
2019-07-01T19:39:18.964Z,-0.58949035,-0.2215854,0.25167117,3.1872406,-12.832703,2.6105652,9.887695,34.214783,11.659241,0.28406066,-9.590452,2.0280352,1.1582738,0.73551464,0.3694532,0.044326782,-0.27726746,0.09176636
2019-07-01T19:39:19.153Z,-0.5912391,-0.26058334,0.2804309,-1.8544312,-8.767303,0.3517456,11.410522,34.324646,10.411072,0.3760678,-9.664815,1.6187376,0.5848433,-1.7164078,0.26651,0.18312073,-0.4984131,0.20703125
2019-07-01T19:39:19.356Z,-0.5828008,-0.3080176,0.35812104,-0.29670715,-9.339188,1.3016968,13.13324,32.969666,12.028503,-0.098938316,-9.721719,1.2840514,-1.6195172,0.66324997,-0.7331693,-0.32611084,-0.29309082,0.117370605
2019-07-01T19:39:19.596Z,-0.60525954,-0.2773919,0.33388212,-1.7491608,-9.3703,0.7992096,14.179993,32.963562,12.286377,-0.3332798,-9.737658,1.1123602,-0.6941694,0.0408144,-0.08579838,-0.11517334,0.16285706,0.19873047
2019-07-01T19:39:19.799Z,-0.6269111,-0.25028035,0.30876356,-0.7034912,-10.48056,2.8905334,12.994385,33.09021,13.871765,-0.50718886,-9.754833,0.86969644,-0.6629891,0.18032455,-0.04605502,-0.11706543,0.2869873,-0.025512695
2019-07-01T19:39:20.003Z,-0.6427134,-0.24433172,0.2858327,0.49771118,-9.525833,0.4665985,10.5896,32.759094,17.300415,-0.40449515,-9.783748,0.53390294,-0.12217632,-0.21047115,0.6489152,-0.19104004,0.47921753,-0.0075531006
2019-07-01T19:39:20.207Z,-0.6727725,-0.28426602,0.2686236,-0.32781982,-12.370895,-0.48335266,11.790466,32.31659,18.67218,-0.04309667,-9.784612,-0.6556735,1.0095136,0.72969246,1.5571,-0.36709595,-0.39982605,-0.12783813
2019-07-01T19:39:20.406Z,-0.63188016,-0.32787883,0.26207355,1.8137665,-11.571686,-0.25125122,8.744812,32.170105,21.031189,0.94214755,-9.760383,-0.13292138,-0.2620241,-2.7629633,-0.5194573,-0.22415161,0.36810303,-0.15208435
2019-07-01T19:39:20.609Z,-0.41355643,-0.3728665,0.365612,3.5246277,1.2945099,-2.009964,5.79834,36.34796,11.808777,2.488842,-8.7233925,3.7253823,-1.7927384,-3.1013594,-4.0771875,0.89642334,-1.3431854,-1.265091
2019-07-01T19:39:20.811Z,-0.41263565,-0.519662,0.2993167,11.215164,-8.688339,12.397217,3.4179688,37.52594,-0.9170532,4.5657554,-8.599651,1.1705844,1.946949,7.0198603,-1.1744992,2.004364,-0.65589905,-0.0690155
2019-07-01T19:39:21.016Z,-0.195359,-0.53511316,0.045018576,8.731415,-12.483353,1.2562256,-20.196533,28.78418,12.089539,8.440474,-3.616906,3.441914,3.8080177,-6.8174963,7.9119196,-1.677414,-0.5607147,-2.363678
2019-07-01T19:39:21.219Z,0.06284179,-0.2986803,0.008822152,-0.38285828,3.4073792,14.634506,-33.665466,10.437012,-12.387085,5.5892034,1.1219893,7.9794946,1.9446917,-9.904577,-7.060874,2.2021027,2.63443,-2.9679565
2019-07-01T19:39:21.408Z,0.038232144,-0.0063722497,0.09064916,2.6392822,-1.2059784,11.413757,-12.330627,4.171753,-36.738586,0.19234604,0.7348761,9.777185,0.73663354,-0.16151667,-2.357154,1.7975769,3.8465881,-0.6120758
2019-07-01T19:39:21.544Z,0.1334364,-0.0060838745,0.14740923,-0.83509827,2.1320038,10.258026,-10.908508,2.2460938,-39.604187,0.50272894,2.5472338,9.456704,1.9092878,-2.0163376,-0.35827827,0.21047974,0.77275085,0.7384949
2019-07-01T19:39:21.744Z,0.09933838,0.04822642,0.2340886,-1.2658081,2.8091736,7.1114655,-3.6514282,4.5578003,-40.263367,-0.45755988,2.1033804,9.567488,0.7036355,0.035534143,0.5160208,-0.2328186,0.37646484,0.54148865
2019-07-01T19:39:22.084Z,0.07420751,0.062464345,0.2640351,-0.5670929,2.6440735,9.135803,-0.6225586,7.6034546,-40.37018,-0.79137427,1.7201657,9.622118,0.40458894,0.35550272,-0.31956196,-0.14956665,-0.15071106,-0.00932312
2019-07-01T19:39:22.289Z,0.07661321,0.027470121,0.24525228,-0.5288086,3.1322021,9.851257,-2.3910522,6.5704346,-44.511414,-0.15195566,1.5837406,9.676728,-0.54924256,0.8540151,-0.027000427,0.007247925,-0.20581055,-0.09887695
2019-07-01T19:39:22.346Z,0.102276765,0.009254202,0.23488067,0.9906311,1.6749725,10.559525,-5.529785,6.6574097,-45.269775,0.29572678,1.9815853,9.599805,-0.7675586,0.9192848,0.3069868,0.24542236,-0.46627808,0.041671753
2019-07-01T19:39:22.615Z,0.13141458,-0.0476748,0.23426344,2.4837494,1.763504,8.975479,-8.456421,5.8029175,-44.56787,1.5034009,2.2606587,9.423354,-0.9038162,-0.28756237,0.9428911,0.14694214,-0.5259552,0.06404114
2019-07-01T19:39:22.820Z,0.12111703,-0.050699394,0.22647923,1.071991,2.096115,8.446671,-10.871887,5.7876587,-44.62433,1.4977065,2.0674536,9.468522,0.2820034,-0.39412737,-0.6442299,-0.30844116,0.15209961,-0.090026855
2019-07-01T19:39:23.025Z,0.12196999,-0.05654733,0.23678043,2.3521423,2.2612152,9.410965,-11.227417,6.703186,-43.59131,1.6336092,2.039239,9.452154,-0.25191188,-0.23930025,0.5515108,0.36784363,-0.20420837,0.24130249
2019-07-01T19:39:23.230Z,0.14670825,-0.03807356,0.27442533,2.297104,2.5914307,9.269791,-8.860779,5.622864,-43.606567,1.4987437,2.5274498,9.356075,0.37311816,-0.3035779,0.18446064,0.13174438,0.3809967,0.41400146
2019-07-01T19:39:23.435Z,0.14806072,-0.038131922,0.31470057,2.5794678,2.9144592,9.279373,-6.4727783,5.052185,-43.670654,1.6145011,2.4850566,9.348169,0.35375535,0.084826946,-0.25578594,-0.025680542,0.014480591,0.43928528
2019-07-01T19:39:23.640Z,0.13374661,-0.081109025,0.0953869,2.4191437,3.0029907,9.008972,-5.9173584,6.6192627,-43.4494,1.8141096,2.427069,9.326775,0.45592046,0.6812599,-0.1948824,0.06619263,0.061203003,0.28627014
2019-07-01T19:39:23.846Z,0.13493247,-0.07307451,0.11602823,2.892929,3.3332062,8.817551,-4.0634155,6.742859,-43.50128,1.7135264,2.4307423,9.344823,0.80804276,0.5893905,-0.47603416,-0.16874695,-0.08027649,0.12640381
2019-07-01T19:39:24.051Z,0.09809304,-0.09829935,0.12561901,1.3471527,1.6749725,8.233704,-4.5684814,9.991455,-43.800354,2.1355526,1.6477056,9.428408,1.018286,1.3458183,0.073657036,-0.20942688,-0.13787842,-0.049102783
2019-07-01T19:39:24.256Z,0.120961025,-0.092023484,0.106569104,0.3397827,0.93559265,11.887543,-4.017639,9.434509,-42.5766,2.0263457,2.1388683,9.353585,0.49946022,-1.0657263,0.5494318,0.13516235,0.37072754,-0.32478333
2019-07-01T19:39:24.460Z,0.13245702,-0.017330445,0.060710456,-0.21534729,2.8043823,8.941986,-0.5050659,10.53772,-41.89148,0.49394894,2.5491633,9.456647,-0.8008814,-0.027374506,-0.10863304,0.16026306,0.25387573,-0.31756592
2019-07-01T19:39:24.667Z,0.15164518,-0.05519383,0.043243047,1.0695953,4.1084747,6.9918213,1.399231,8.416748,-43.460083,1.1959343,2.885647,9.295869,-0.18959332,0.5967655,-0.7328396,0.2743683,-0.23097229,-0.022460938
2019-07-01T19:39:24.872Z,0.1787022,-0.08208771,0.040095057,0.1986084,3.9936218,9.049652,-2.0812988,7.739258,-42.245483,1.7177824,3.3690705,9.048147,-1.0568233,0.15352678,0.08803272,0.11891174,-0.39193726,-0.055267334
2019-07-01T19:39:25.076Z,0.1662096,0.020655094,0.05609757,1.2059784,-0.8279114,9.573685,-4.071045,6.2164307,-41.645813,-0.21587135,3.231388,9.256453,1.4177339,-0.4745047,0.0728693,-0.02293396,0.2994995,-0.17567444
2019-07-01T19:39:25.281Z,0.20925613,0.14774503,0.09739412,-4.6995087,5.2378845,8.8367,7.7041626,5.407715,-43.348694,-2.3871043,4.2293034,8.51969,0.64339066,-0.61403847,0.8637667,0.58073425,1.6608887,0.03501892
2019-07-01T19:39:25.485Z,0.17839028,0.15603785,0.1920883,-1.8017883,4.455429,8.181061,19.122314,-0.32196045,-43.022156,-2.2424424,3.9199014,8.704953,0.44306326,0.26560378,-0.12539959,-0.30111694,0.6208801,0.708374
2019-07-01T19:39:25.566Z,0.10278443,0.07894421,0.29430285,-1.2370911,2.1678925,10.820343,21.965027,0.14953613,-42.211914,-0.8728164,2.3645487,9.477209,-0.49635458,1.0085988,-0.34890747,-0.585968,0.13224792,0.8560333
2019-07-01T19:39:25.746Z,0.07698451,0.057003386,0.3884183,-0.2416687,0.8231354,9.430115,20.155334,4.6203613,-41.905212,-0.43817845,1.8180892,9.626679,0.0070052147,-0.51489973,0.42144012,-0.8317871,-0.2461853,1.2359924
2019-07-01T19:39:25.944Z,0.067093976,0.08398367,0.42046323,-1.134201,1.4165497,9.169296,22.19696,2.1514893,-44.45343,-0.93068963,1.8781364,9.580021,-0.31083727,-0.40971506,-0.03025055,-0.11456299,0.020339966,0.5545654
2019-07-01T19:39:26.147Z,0.060851935,0.09893684,0.44404614,-1.351944,1.9573364,9.640686,25.13733,1.4022827,-44.72809,-1.1940324,1.9220253,9.542038,-0.34119165,-0.18691218,0.21332073,-0.007293701,0.36047363,0.2454071
2019-07-01T19:39:26.436Z,0.055146858,0.105505496,0.46220112,-1.3447723,1.7850494,9.343979,26.441956,-0.5722046,-42.01355,-1.3184801,1.9069018,9.528679,0.05278504,0.029594421,0.021691322,-0.02897644,0.083618164,0.26501465
2019-07-01T19:39:26.545Z,0.04811148,0.10982821,0.46773115,-1.4237366,1.8735809,9.544968,26.860046,-0.10681152,-42.23633,-1.4449773,1.8338691,9.524671,0.015963912,0.0812211,0.0379591,-0.038757324,0.082214355,0.083343506
2019-07-01T19:39:26.743Z,0.04436457,0.11302879,0.47553104,-1.4931183,1.9262238,9.602402,28.044128,0.75531006,-39.768982,-1.517733,1.8123201,9.517478,0.07247019,0.13704705,0.088793755,-0.04083252,0.07312012,0.087371826
2019-07-01T19:39:26.947Z,0.044048827,0.11591933,0.48159394,-1.2059784,1.8257294,9.657425,28.024292,-0.062561035,-37.820435,-1.5564191,1.8444699,9.505045,0.1968447,0.102416515,0.021265984,-0.0007019043,0.048919678,0.08363342
2019-07-01T19:39:27.148Z,0.045011092,0.113739625,0.48150417,-1.5481567,1.9621124,9.537796,27.966309,0.66986084,-38.954163,-1.5109637,1.84031,9.513183,0.09616339,0.06973958,0.0016870499,-0.004119873,0.026321411,0.035995483
2019-07-01T19:39:27.369Z,0.04484256,0.114751615,0.47430095,-1.4596252,1.8520508,9.363113,28.929138,0.66223145,-39.294434,-1.5447445,1.8341582,9.5089445,0.06317985,0.0505265,0.03190422,-0.011505127,0.0067749023,-0.041641235
2019-07-01T19:39:27.544Z,0.043208495,0.11852488,0.46986333,-1.7204437,1.7491608,9.681366,28.909302,1.8203735,-38.07831,-1.632817,1.8326826,9.494502,-0.028887033,-0.021197319,0.038402557,0.0022888184,0.04458618,-0.050369263
2019-07-01T19:39:27.744Z,0.04267356,0.118653834,0.46832195,-1.6510468,1.8687897,9.410965,27.722168,2.0233154,-37.005615,-1.6431919,1.821817,9.494802,-0.0692786,0.09756458,-0.031715393,0.0007019043,-0.0022735596,-0.030395508
2019-07-01T19:39:27.944Z,0.043622825,0.11857496,0.46748728,-1.7084808,1.8640137,9.5354,28.268433,1.8508911,-38.121033,-1.6347882,1.8357843,9.493563,-0.03265655,-0.003021121,0.02521801,0.012008667,0.013183594,-0.01512146
2019-07-01T19:39:28.144Z,0.04516278,0.11685663,0.46712977,-1.5481567,1.8520508,9.267395,28.044128,2.1194458,-37.226868,-1.5922866,1.8459402,9.4988165,-0.018604398,0.0066940784,-0.035695076,-0.0035095215,-0.023895264,0.0059509277
2019-07-01T19:39:28.346Z,0.0478131,0.114844,0.4668027,-1.3878326,1.7611237,9.59761,28.263855,1.7028809,-37.997437,-1.5344367,1.8725432,9.50313,-0.05618,-0.018599391,0.07514095,0.009994507,-0.025299072,0.01876831
2019-07-01T19:39:28.546Z,0.04962841,0.11382808,0.46404988,-1.6247253,1.9836426,9.219543,27.749634,1.0116577,-37.817383,-1.5063844,1.8897238,9.504216,-0.11163688,0.03627801,-0.06830597,0.022750854,-0.045700073,-0.006210327
2019-07-01T19:39:28.764Z,0.055530183,0.10739155,0.46933576,-1.4189453,1.9453583,9.3703,28.125,0.45776367,-38.323975,-1.331224,1.9412298,9.519971,-0.062802315,-0.028485298,0.094447136,-0.009552002,-0.074645996,0.06225586
2019-07-01T19:39:28.994Z,0.053415444,0.1067589,0.46926853,-1.3830566,2.0315094,9.454041,26.46637,-0.2960205,-39.994812,-1.3404208,1.8992422,9.527147,0.26026905,-0.048842072,-0.09610081,0.022888184,-0.04423523,0.025314331
2019-07-01T19:39:29.155Z,0.050514188,0.10893372,0.46850908,-1.409378,1.8496552,9.585648,27.316284,0.32958984,-38.163757,-1.4058623,1.8681573,9.523861,0.06869221,0.013694286,0.033885002,-0.038146973,0.033706665,-0.012496948
2019-07-01T19:39:29.359Z,0.0512503,0.110501446,0.46952587,-1.3734741,1.8735809,9.578476,27.923584,1.3931274,-38.349915,-1.4232886,1.896615,9.515645,0.058671117,-0.001989007,0.058535576,0.012680054,-0.0016479492,0.020980835
2019-07-01T19:39:29.562Z,0.052256573,0.10964568,0.47158027,-1.3016968,1.9142609,9.399002,26.777649,0.79956055,-37.59308,-1.3949636,1.9093269,9.517297,0.09235692,-0.02385521,-0.020849228,-0.011688232,-0.0018920898,0.004180908
2019-07-01T19:39:29.764Z,0.051410783,0.107944906,0.47330752,-1.2849426,1.902298,9.525833,26.850891,0.9628296,-39.300537,-1.3704858,1.8820858,9.526275,0.057475686,-0.002770543,0.020161629,0.0012512207,0.0026245117,-0.0059051514
2019-07-01T19:39:29.967Z,0.05139627,0.10815921,0.47280666,-1.3782654,1.8520508,9.456436,27.186584,0.97351074,-37.724304,-1.3753151,1.8830119,9.525395,-0.00041115284,-0.011778951,-0.008553505,-0.0019226074,0.0024414062,-0.010421753
2019-07-01T19:39:30.171Z,0.051007796,0.10832683,0.47364226,-1.3878326,1.8448639,9.51387,27.488708,0.7080078,-38.471985,-1.3799932,1.879239,9.525464,0.025024652,-0.016776323,0.02401638,0.006149292,-0.0010375977,-0.005050659
2019-07-01T19:39:30.372Z,0.05061582,0.10771856,0.47416335,-1.385437,1.8233337,9.434906,26.522827,0.41503906,-37.35962,-1.372317,1.8677976,9.528823,-0.010243773,-0.021576166,0.004685402,0.0055389404,-0.009475708,-0.0031585693
2019-07-01T19:39:30.575Z,0.050641507,0.10690993,0.4753437,-1.3304138,1.9094696,9.293716,27.442932,1.4312744,-38.24768,-1.3559283,1.862651,9.532175,-0.005892992,-0.028764129,0.013831139,0.013290405,-0.009780884,0.0014953613
2019-07-01T19:39:30.778Z,0.052144017,0.106939495,0.47609296,-1.3591309,1.8807526,9.521042,27.217102,1.7059326,-37.879944,-1.3406085,1.8896773,9.529023,0.0009723902,-0.0396775,0.010373116,0.022888184,-0.0029296875,-0.001449585
2019-07-01T19:39:30.983Z,0.05430342,0.10667302,0.47709695,-1.0695953,1.9286194,9.396622,26.589966,0.5081177,-39.230347,-1.3134643,1.9255012,9.525631,-0.034475446,0.020246148,-0.0011148453,-0.0062561035,-0.02406311,0.0639801
2019-07-01T19:39:31.191Z,0.054971345,0.10311077,0.4812433,-1.2897339,1.8999023,9.592819,26.576233,-0.012207031,-38.20343,-1.2380769,1.909914,9.538857,0.04243362,-0.022697926,-0.03653145,-0.0062561035,-0.020095825,-0.004928589
2019-07-01T19:39:31.398Z,0.054884527,0.10373131,0.4821525,-1.3351898,1.9669037,9.466003,27.450562,-0.09307861,-38.85956,-1.2473263,1.9155251,9.536527,-0.03182149,-0.02786696,0.05247593,0.015609741,0.0043945312,0.02470398
2019-07-01T19:39:31.600Z,0.046300154,0.108340755,0.5606223,-1.2155609,1.8879395,9.442078,26.495361,0.062561035,-38.86566,-1.2325836,1.9355978,9.5343895,0.025485396,-0.0056712627,-0.026816368,0.0076141357,-0.007522583,-0.00541687
2019-07-01T19:39:31.801Z,0.046573747,0.10808891,0.55974126,-1.2801666,1.9190369,9.564117,27.183533,-0.6942749,-39.04724,-1.2276452,1.9359252,9.534961,0.02037847,-0.017401576,-0.00458622,0.01109314,0.0023040771,-0.023864746
2019-07-01T19:39:32.008Z,0.04647962,0.10838835,0.55898035,-1.1772614,1.9669037,9.5234375,27.931213,-0.13427734,-38.81378,-1.2352198,1.9365225,9.533861,-0.00878191,-0.0024049282,0.028788567,0.017074585,0.012756348,-0.0029754639
2019-07-01T19:39:32.208Z,0.047405563,0.11024605,0.5588747,-1.2562256,1.9669037,9.39183,26.49231,0.064086914,-39.242554,-1.254577,1.9713539,9.52419,0.008851409,-0.006480813,-0.012908936,0.008529663,0.007019043,0.0046691895
2019-07-01T19:39:32.418Z,0.04733291,0.11092001,0.5593303,-1.2634125,2.0171509,9.489929,27.159119,0.692749,-39.44397,-1.2649325,1.9781946,9.521401,0.017023444,-0.00420022,-0.023767471,-0.008453369,0.012634277,0.003921509
2019-07-01T19:39:32.614Z,0.04744068,0.114547856,0.55850303,-1.3591309,2.009964,9.401398,26.834106,0.37078857,-38.061523,-1.3230073,2.0179229,9.505157,-0.00022137165,-0.014173746,-0.018435478,0.024536133,0.015380859,-0.009994507
2019-07-01T19:39:32.809Z,0.04769337,0.11568576,0.55843,-1.277771,2.0362854,9.521042,27.693176,-0.37841797,-37.417603,-1.3383297,2.0341702,9.499547,0.025019288,-0.014626265,0.045357704,0.007980347,0.011047363,-0.016464233
2019-07-01T19:39:33.007Z,0.04449775,0.117351785,0.5568379,-1.414154,1.9956207,9.511475,27.218628,0.10986328,-39.11133,-1.4038754,1.9982489,9.497711,-0.0037529469,0.0022860765,-0.041672707,0.0034637451,0.022537231,-0.012191772
2019-07-01T19:39:33.211Z,0.042450216,0.119226135,0.5545746,-1.4955139,1.8759766,9.611969,28.778076,0.41656494,-36.997986,-1.4615079,1.981593,9.492506,0.0052677393,-0.00729084,0.008164406,-0.008148193,0.02809143,-0.03375244
2019-07-01T19:39:33.424Z,0.04259252,0.12008331,0.55056936,-1.6845398,2.0817566,9.561722,27.658081,0.8666992,-38.671875,-1.4831504,1.985913,9.488245,-0.07871425,0.026958466,0.020878792,0.008102417,0.0028076172,-0.04109192
2019-07-01T19:39:33.616Z,0.04385515,0.121305004,0.5520188,-1.6486511,2.0889282,9.430115,27.191162,1.0437012,-37.409973,-1.4851485,2.0219405,9.480321,-0.081611395,0.031480074,-0.027126312,0.003753662,-0.0034332275,0.016326904
2019-07-01T19:39:33.820Z,0.037995785,0.113622315,0.5606216,-0.9714813,1.701294,9.600006,26.513672,0.34942627,-38.127136,-1.4081613,1.8599553,9.525126,0.03134823,0.03185594,0.009543419,-0.08010864,-0.017349243,0.08401489
2019-07-01T19:39:34.031Z,0.039356157,0.111561656,0.5640618,-1.3040924,1.6151581,9.604797,27.618408,0.13885498,-39.27307,-1.352739,1.8650306,9.532165,-0.023884535,-0.120132565,-0.02925396,-0.030319214,-0.0042266846,0.057876587
2019-07-01T19:39:34.224Z,0.040718224,0.10517067,0.5661736,-1.2155609,1.7108612,9.47319,27.386475,0.2670288,-38.710022,-1.2321447,1.819971,9.557192,0.057418108,-0.16668737,-0.071665764,-0.015350342,-0.0647583,0.033737183
2019-07-01T19:39:34.427Z,0.0314436,0.09058092,0.5638113,-1.1413727,1.409378,9.573685,26.998901,0.6820679,-39.3631,-1.1096615,1.5075631,9.626333,-0.066019535,0.032316566,0.027202606,-0.040283203,-0.016799927,0.0050964355
2019-07-01T19:39:34.630Z,0.017606815,0.02864322,0.5507342,-4.553543,3.2326965,6.484543,25.99945,1.4831543,-38.253784,-0.27834925,0.59740037,9.784478,-1.1761996,0.7333284,-0.5063505,-0.17198181,-0.22492981,0.034103394
2019-07-01T19:39:34.833Z,0.08722756,0.04832307,0.5178103,1.1006927,3.5748749,6.5611267,24.113464,4.269409,-37.7594,0.08059027,1.9443898,9.61162,-0.32926002,-0.2839303,-0.16875172,0.2791443,0.18673706,-0.4154358
2019-07-01T19:39:35.036Z,0.06764431,-0.009154742,0.5203744,-0.028717041,0.32781982,10.975876,23.083496,1.4511108,-40.405273,0.84323335,1.0358827,9.7152605,-1.0956652,0.16530693,0.8681307,-0.31175232,-1.0794678,-0.20150757
2019-07-01T19:39:35.237Z,0.09285756,-0.016528165,0.54898053,-0.31106567,0.31585693,10.052246,15.985107,5.305481,-43.55774,1.2690507,1.3345723,9.632175,-1.0942712,-0.39500725,0.33382893,-0.047424316,-0.18833923,0.28944397
2019-07-01T19:39:35.440Z,0.09683539,-0.0022396399,0.6318956,1.105484,1.1605225,9.418152,15.104675,3.7231445,-44.52362,1.2339138,1.4327317,9.622637,-0.20793188,-0.40529978,-0.073218346,0.123672485,-0.08491516,0.37661743
2019-07-01T19:39:35.642Z,0.116402835,0.0048022983,0.6625946,2.050644,1.1940155,9.88475,15.057373,2.4734497,-43.492126,1.4430455,1.7515461,9.540444,0.3235941,-0.5591713,0.14439297,0.15196228,0.026504517,0.34283447
2019-07-01T19:39:35.881Z,0.1326952,0.005923503,0.7071056,1.9525452,1.1724854,10.3537445,13.882446,-4.168701,-43.363953,1.7596176,1.8897035,9.46061,0.1472807,-0.37933302,-0.1095438,0.1421814,-0.0736084,0.697937
2019-07-01T19:39:36.079Z,0.18249728,-0.010257444,0.7643146,3.1082764,0.8374939,9.61676,9.312439,-9.130859,-44.032288,2.8601778,2.0597014,9.1513605,-0.8709767,-0.6113186,0.55890274,0.55470276,-0.1781311,1.1767883
2019-07-01T19:39:36.274Z,0.1916401,0.028236343,0.83731335,4.261612,0.66760254,9.269791,8.485413,-13.647461,-42.427063,2.8640673,2.3853676,9.070696,0.18033051,-1.3141282,0.1620903,0.4757843,0.2874756,1.14711
2019-07-01T19:39:36.471Z,0.16838993,0.04767776,0.89580435,2.6033936,2.5411835,5.7188416,8.540344,-16.583252,-39.328003,2.5765226,2.1869662,9.205928,1.2365842,-1.0193555,-0.38062572,0.3873291,0.60554504,0.940506
2019-07-01T19:39:36.663Z,0.17101124,0.03883356,0.9403561,3.8189392,2.0410767,5.38385,4.6966553,-19.82727,-39.302063,2.9320142,1.6939754,9.203485,-0.46001935,0.30204892,-1.6542044,-0.5984955,-0.812088,1.477768
2019-07-01T19:39:36.844Z,0.345959,-0.112915635,0.910939,6.644867,-2.634491,1.9501495,-15.901184,-11.228943,-36.48224,6.61139,-0.69900435,7.209112,-0.947989,-0.9455734,0.25679493,-0.85414124,-2.7538605,1.6010437
2019-07-01T19:39:37.045Z,-0.4886112,0.34158546,-0.80273235,9.999603,-9.281754,4.9292145,-33.36792,8.518982,-25.326538,7.5982447,-5.513265,2.8356614,-0.5209727,0.5400171,0.84086394,-2.0730133,-2.0153809,2.8431854
2019-07-01T19:39:37.246Z,-0.38339874,0.5627678,-0.7133692,9.224335,-10.794022,6.175873,-19.59076,29.9469,-19.714355,3.537187,-9.118764,0.71192026,6.370176,-2.0473652,6.448498,0.4937439,1.9606476,2.477707
2019-07-01T19:39:37.448Z,-0.22367026,0.59956217,-0.76355594,3.8117676,-8.2456665,3.426529,-9.608459,31.471252,-27.288818,2.3326755,-9.358343,1.7749408,5.3812237,2.6886187,-0.2956611,-0.4100952,0.2037201,-1.2281952
2019-07-01T19:39:37.725Z,-0.27722505,0.5868812,-0.7527263,15.067612,-8.315063,0.43310547,-8.705139,32.507324,-30.892944,2.825591,-9.262981,1.543894,-1.3113344,0.91516685,-1.0577526,-0.19152832,-0.064941406,2.1791687
2019-07-01T19:39:37.929Z,-0.23505114,0.6468912,-0.7101817,1.1724854,-6.422333,2.1846466,-3.5644531,36.662292,-24.441528,1.3953662,-9.693173,0.51549166,2.3914626,-1.0079594,-0.10359287,-0.17857361,-0.74490356,-0.91023254
2019-07-01T19:39:38.054Z,-0.24256836,0.5737698,-0.74914974,2.622528,-13.794617,2.3018951,-4.475403,35.258484,-29.901123,1.0296255,-9.502065,2.1956854,0.4599558,2.5267706,0.38966656,0.9270935,-0.5409241,0.52175903
2019-07-01T19:39:38.251Z,-0.24304129,0.56882125,-0.71304715,-3.3666992,-18.917664,0.84706116,0.4852295,36.235046,-28.771973,-0.28327584,-9.528409,2.3020775,1.5499101,-2.2987614,-0.161592,-0.3006897,-0.8764801,1.1939545
2019-07-01T19:39:38.452Z,-0.3296289,0.57290757,-0.6338331,-1.311264,-12.198608,2.6440735,-1.9302368,39.02893,-24.25232,-0.4161465,-9.719286,1.2380255,-2.046815,-0.048005104,-0.95345116,-0.28089905,-0.40873718,0.022735596
2019-07-01T19:39:38.654Z,-0.2380906,0.60474753,-0.68647045,-2.5100708,-10.669601,2.670395,5.1498413,39.289856,-25.471497,-0.6624516,-9.665169,1.5218599,-1.0282278,-0.36802006,-0.7890748,0.20767212,1.3547211,-0.110061646
2019-07-01T19:39:38.850Z,-0.18242167,0.63471454,-0.7003645,-0.45224,-9.540192,1.4069824,9.988403,41.207886,-24.447632,-0.8657044,-9.687734,1.2525015,-0.8722377,-0.0453434,0.12220645,-0.17753601,0.954834,-0.09362793
2019-07-01T19:39:39.051Z,-0.12715875,0.6633944,-0.71249014,-1.4356995,-9.76033,2.4669952,15.138245,42.092896,-19.343567,-0.69507825,-9.744298,0.85785663,-0.2363714,0.28769112,0.9400666,-0.22579956,1.2154388,-0.32148743
2019-07-01T19:39:39.247Z,-0.0725136,0.678794,-0.72089773,-0.22732544,-11.088333,-0.100494385,16.653442,40.008545,-19.604492,-0.5660398,-9.76759,0.6664686,0.2108314,-0.68383694,1.0571871,0.51841736,0.24269104,-0.12136841
2019-07-01T19:39:39.455Z,-0.037051607,0.6155674,-0.7853198,2.3665009,-11.964111,-0.19142151,14.453125,36.697388,-24.946594,-0.0880219,-9.521056,2.347789,0.2219084,0.04416561,-2.5952244,0.48109436,-0.5927887,-0.045303345
2019-07-01T19:39:39.662Z,-0.079175696,0.62553036,-0.7724615,-0.2368927,-9.355942,1.2203369,11.381531,36.42273,-25.480652,0.26953873,-9.594825,2.0092447,0.16806981,-0.36978722,-1.2410903,-0.08279419,-0.4244995,0.03807068
2019-07-01T19:39:39.849Z,-0.09235771,0.62183696,-0.7716133,1.3471527,-9.099899,2.371292,11.854553,36.38611,-26.260376,0.21514237,-9.586451,2.055256,0.1645103,0.115032196,-0.45235682,0.15275574,-0.31037903,0.13684082
2019-07-01T19:39:40.056Z,-0.118211865,0.6002531,-0.7768794,0.9140625,-9.63829,2.6990967,12.515259,35.203552,-27.586365,0.047851127,-9.491459,2.4658263,0.9216666,0.49951935,0.36859488,-0.03643799,-0.70536804,0.35572815
2019-07-01T19:39:40.255Z,-0.13460809,0.62504774,-0.7512415,0.5383911,-8.044662,0.447464,11.036682,38.700867,-30.81665,-0.024769027,-9.642121,1.788654,-0.20363843,-1.5278215,0.23479986,-0.22805786,0.049118042,-0.060760498
2019-07-01T19:39:40.453Z,-0.1277259,0.6334278,-0.74715924,-2.1320038,-10.09053,0.59103394,11.857605,37.530518,-32.44629,-0.0612657,-9.672189,1.6172204,-1.5163096,0.59939384,-1.067278,-0.0320282,0.7651062,-0.048553467
2019-07-01T19:39:40.649Z,-0.048888363,0.6505688,-0.75152326,-1.3830566,-9.765106,0.928421,15.435791,37.358093,-26.737976,-0.52848655,-9.683153,1.4586456,-0.47842407,-0.10884285,-0.6557692,-0.1852417,0.9406128,0.02696228
2019-07-01T19:39:40.849Z,0.014536324,0.6765337,-0.73597836,-1.5074768,-9.659821,2.0362854,14.71405,36.543274,-21.891785,-0.4839103,-9.759851,0.8255397,-0.30508184,0.25598812,0.47095054,-0.29145813,1.1877747,-0.344635
2019-07-01T19:39:41.056Z,-0.088526115,-0.6676729,0.73639846,1.1916199,-14.622543,-4.857437,14.0182495,33.584595,-21.937561,-0.44077483,-9.754422,0.9095876,-1.2653856,-0.23146343,1.2093728,0.33345032,0.99705505,-0.040115356
2019-07-01T19:39:41.253Z,-0.13240097,-0.6353829,0.74759126,-0.45942688,-10.255646,-0.6628113,13.592529,32.510376,-19.042969,-0.24035917,-9.752963,0.99616337,-0.12956874,-0.0036649704,-0.8510064,0.16491699,0.9494629,-0.21359253
2019-07-01T19:39:41.457Z,-0.33963716,-0.6144849,0.62797964,0.114852905,-10.04985,0.9188385,15.583801,32.66449,-12.298584,-0.13730966,-9.804712,0.13836996,0.9561521,-0.1650238,0.28012085,-0.30648804,1.7545929,-0.16156006
2019-07-01T19:39:41.652Z,-0.37610066,-0.5926295,0.5955336,1.5601196,-9.578476,0.48095703,16.966248,33.57544,-5.2978516,0.14874427,-9.804465,0.14393397,1.3666202,0.34456635,0.32719576,-0.33172607,1.2402344,-0.09887695
2019-07-01T19:39:41.849Z,-0.37248772,-0.5866741,0.59348863,1.5194397,-9.769897,-0.30867004,15.162659,33.180237,-7.267761,0.33585086,-9.79518,0.33472797,1.1459358,0.11945534,-0.4606841,0.17559814,0.3591919,-0.12184143
2019-07-01T19:39:42.059Z,-0.37520948,-0.570854,0.61532366,0.5359955,-9.322433,-0.110076904,17.085266,32.865906,-6.730652,-0.12420474,-9.784032,0.65397686,0.78688866,0.41103268,-0.81928766,0.09716797,-0.04862976,0.086883545
2019-07-01T19:39:42.253Z,-0.39221507,-0.5535527,0.6203766,1.3328094,-10.121643,-0.8279114,18.60199,32.29828,-5.0949097,-0.4995849,-9.762842,0.77956504,1.2074912,-0.40003967,-1.1149098,0.2114563,0.063827515,0.29377747
2019-07-01T19:39:42.455Z,-0.4242802,-0.5394545,0.60019404,-1.799408,-9.9756775,1.6749725,18.766785,33.518982,-1.1550903,-0.64825726,-9.768683,0.56829864,-0.7675215,-0.068629265,0.14749289,-0.15414429,0.22509766,0.08425903
2019-07-01T19:39:42.649Z,-0.46976933,-0.4726581,0.5792464,-1.5266266,-9.915863,0.830307,20.071411,33.665466,0.25787354,-0.98502123,-9.695235,1.0966011,-0.80477226,-0.09708309,0.19477558,0.2862854,0.69766235,0.09642029
2019-07-01T19:39:42.846Z,-0.5496025,-0.38626426,0.48193735,-0.44984436,-9.726822,1.5744781,18.318176,35.11963,4.4769287,-0.93314797,-9.7152405,0.95589316,-0.46501607,-0.087008476,0.5121187,0.20449829,1.4060364,-0.11946106
2019-07-01T19:39:43.053Z,-0.6207112,-0.2919143,0.36305156,0.46899414,-9.686142,1.4931183,13.969421,34.062195,9.802246,-0.80923617,-9.756059,0.5786637,0.7905576,-0.042646408,1.1107093,0.046157837,1.9650421,-0.21891785
2019-07-01T19:39:43.250Z,-0.66548175,-0.23190589,0.28388414,0.7154541,-9.63829,1.7228394,9.638977,33.442688,15.061951,-0.7479311,-9.777866,0.06577742,1.1735204,0.15381241,1.263928,-0.1396637,1.4553986,-0.11116028
2019-07-01T19:39:43.455Z,-0.5228765,-0.44340882,0.5177677,-1.3088684,-5.7379913,2.2253265,5.1620483,35.533142,17.256165,-0.85919267,-9.751216,0.58817863,0.62827355,-0.6367197,0.26307267,-0.13600159,0.8661499,0.06752014
2019-07-01T19:39:43.649Z,-0.45302448,-0.43534756,0.5639505,-0.14117432,-8.791229,3.0963135,3.6956787,38.11035,10.894775,-0.43493652,-9.577087,2.06413,1.137842,-0.8560734,-1.72035,0.99012756,0.25979614,-0.083358765
2019-07-01T19:39:43.865Z,-0.4169988,-0.48345745,0.591079,0.1268158,-9.851257,0.65802,4.0893555,39.665222,11.11908,-0.15995772,-9.636484,1.8118943,-0.6419341,0.48550892,-0.14330459,-0.006866455,-0.9050751,-0.08703613
2019-07-01T19:39:44.056Z,-0.3999478,-0.51269555,0.61362654,0.7082825,-8.851059,2.285141,5.458069,39.527893,12.319946,-0.30916998,-9.684165,1.5138534,1.1063256,0.39708042,0.09405351,-0.13447571,-0.57128906,0.13606262
2019-07-01T19:39:44.252Z,-0.36029503,-0.5374312,0.64979744,-3.7495575,-11.949753,-0.5359955,7.609558,40.530396,14.172363,-0.38715327,-9.668217,1.5956441,1.6543034,-0.38481998,0.269091,-0.02671814,-0.701828,0.2915802
2019-07-01T19:39:44.451Z,-0.3529679,-0.5597975,0.650819,-1.5050812,-9.243469,1.8664093,5.999756,43.380737,18.518066,-0.41982332,-9.721805,1.2168171,-2.5546172,0.1117239,-0.37349308,-0.29891968,-0.6640167,-0.08843994
2019-07-01T19:39:44.655Z,-0.3863956,-0.53713894,0.6392019,-1.4356995,-9.6957245,1.2897339,6.285095,44.49463,18.128967,-0.71528476,-9.704196,1.2195588,-0.29325867,0.12317467,0.05532837,0.10021973,0.30818176,0.16921997
2019-07-01T19:39:44.850Z,-0.41823968,-0.5240458,0.61894256,-0.624527,-9.793823,1.2299042,4.272461,45.41931,22.703552,-0.8723979,-9.717518,0.989522,-0.2690462,-0.0469141,0.14165074,-0.028793335,0.39015198,0.021881104
2019-07-01T19:39:45.049Z,-0.45239267,-0.5211638,0.5891002,-0.23449707,-9.358322,1.902298,3.970337,43.70575,24.85962,-0.930374,-9.751318,0.46540722,0.7457473,0.15217686,0.96222544,-0.17137146,0.42155457,0.0717926
2019-07-01T19:39:45.254Z,-0.48907226,-0.5045008,0.5513038,-0.100494385,-12.71785,0.5862427,3.9978027,43.83087,27.677917,-0.83720094,-9.770071,0.123313844,0.20626855,-0.121341705,1.5557922,-0.2851715,0.38130188,-0.06845093
2019-07-01T19:39:45.455Z,-0.4266069,-0.48540363,0.5895169,0.95474243,-13.215561,0.34934998,3.6209106,45.83893,19.570923,-0.3187965,-9.667342,1.6159375,-0.059453726,0.26325798,-0.7720219,0.18409729,0.24507141,-0.10168457
2019-07-01T19:39:45.658Z,-0.33656296,-0.5370548,0.6458017,-0.73698425,-9.068802,1.6749725,9.356689,45.60852,13.549805,0.2212795,-9.612724,1.9279389,0.20341033,-1.0008383,-1.2039934,0.8740082,-0.71118164,-0.18769836
2019-07-01T19:39:45.849Z,-0.27112657,-0.5734496,0.69141155,1.2346954,-9.001801,2.4933167,16.952515,45.34607,9.031677,0.21288419,-9.615468,1.9151585,-0.4222982,0.08159065,-0.45999312,-0.038513184,-1.3233948,0.07545471
2019-07-01T19:39:46.052Z,-0.20442396,-0.5864986,0.73377717,1.8281097,-8.937195,2.182251,20.271301,43.511963,1.4221191,0.22503114,-9.544643,2.240432,1.1051797,0.64087486,0.49329972,-0.016021729,-1.0792236,0.28700256
2019-07-01T19:39:46.251Z,-0.15963872,-0.62746084,0.73359203,-0.54556274,-6.90329,1.9238281,22.19696,40.31067,-1.8737793,0.24466531,-9.674635,1.5849195,-0.5540751,-1.5790672,-0.23853481,0.1763916,-1.1629791,0.37117004
2019-07-01T19:39:46.449Z,-0.15155177,-0.64114964,0.7344103,-2.2468567,-9.4253235,3.000595,23.529053,39.83307,-3.7628174,-0.13202603,-9.72005,1.293677,-1.0910678,1.0074244,0.15049767,-0.31785583,-0.40237427,0.1124115
2019-07-01T19:39:46.654Z,-0.15589547,-0.640231,0.7395809,-0.9140625,-9.872787,1.2299042,24.301147,37.56256,-5.4656982,-0.53866893,-9.706423,1.2905715,-0.68799907,0.053171158,0.44355977,-0.14082336,-0.18467712,0.09623718
2019-07-01T19:39:46.849Z,-0.16422386,-0.6503038,0.73304236,0.052642822,-9.640686,1.5314026,24.97406,37.88452,-3.5385132,-0.918973,-9.713854,0.9833222,-0.09216398,0.10921097,0.5464109,-0.15567017,-0.17172241,0.23690796
2019-07-01T19:39:47.060Z,-0.19058307,-0.6660775,0.70585805,-2.572281,-9.533005,3.2853394,24.557495,38.6261,0.85601807,-0.7103413,-9.7730055,0.39263535,0.39038712,0.47110367,1.4920776,-0.09587097,0.85691833,-0.1414032
2019-07-01T19:39:47.252Z,-0.22310537,-0.6395092,0.70952094,0.5431671,-8.303101,-0.1268158,21.568298,38.890076,-2.2140503,-0.6650972,-9.75056,0.8090878,-0.07333243,-1.2827692,0.058479607,0.560318,-0.10336304,-0.27682495
2019-07-01T19:39:47.457Z,-0.50101185,-0.3717472,0.4585415,1.7778625,-10.62413,0.2536316,19.215393,39.81018,-9.707642,0.108555704,-9.562258,2.17298,0.103749536,0.23950958,-1.7281368,0.22325134,-0.93640137,-0.06124878
2019-07-01T19:39:47.675Z,-0.4648603,-0.4442384,0.5023449,-1.1533356,-9.817749,1.426117,17.182922,39.691162,-11.7630005,0.4569262,-9.647773,1.6976718,-0.29788885,0.094314575,-0.4873799,0.019226074,-0.596756,0.038375854
2019-07-01T19:39:47.862Z,-0.44979075,-0.45955595,0.521989,1.483551,-9.037689,2.0769653,16.807556,40.707397,-14.2578125,0.44599605,-9.648493,1.6964843,0.23507637,0.03845215,-0.17650414,0.08268738,-0.42529297,0.123413086
2019-07-01T19:39:48.082Z,-0.4252643,-0.46341315,0.5582745,0.95951843,-9.183655,1.9908295,19.104004,38.546753,-16.906738,0.26110095,-9.5869465,2.0475998,0.69038033,0.5921583,0.12823057,0.0368042,-0.38693237,0.364151
2019-07-01T19:39:48.277Z,-0.4159877,-0.48386717,0.58507466,0.928421,-8.695511,1.8520508,18.107605,38.360596,-20.075989,-0.023565173,-9.636136,1.8206396,0.84398437,-1.3257408,-0.13255835,-0.08969116,-0.49957275,0.09414673
2019-07-01T19:39:48.475Z,-0.39549747,-0.51229846,0.6047207,-2.0697937,-10.325027,1.660614,18.939209,38.693237,-18.5318,-0.0270037,-9.676649,1.5912672,-0.8594696,0.6639328,-0.73544526,-0.14241028,-0.17745972,-0.010910034
2019-07-01T19:39:48.678Z,-0.4160007,-0.50040716,0.59980786,-0.7465668,-9.442078,1.0265198,20.788574,38.974,-19.984436,-0.32440218,-9.685648,1.501125,-1.6620665,-0.10431194,0.028674364,-0.03337097,0.5023041,0.101364136
2019-07-01T19:39:48.878Z,-0.4532346,-0.4817778,0.57606053,-1.1629181,-9.4253235,0.83270264,23.0484,38.43689,-16.033936,-0.5830139,-9.712329,1.2252146,-0.018382192,-0.100551605,-0.18535268,-0.027633667,0.4532013,0.08303833
2019-07-01T19:39:49.084Z,-0.4774032,-0.45889312,0.5632831,-0.3637085,-9.446869,0.73698425,24.668884,38.537598,-15.174866,-0.82643723,-9.697023,1.2062829,0.054079473,-0.014126778,-0.10148406,-0.037338257,0.23345947,0.047546387
2019-07-01T19:39:49.288Z,-0.48225942,-0.45639095,0.5634948,-0.21534729,-9.406189,1.0839539,24.809265,38.111877,-15.415955,-0.9300338,-9.693313,1.1597961,0.5429349,0.06196785,-0.06698573,-0.021591187,-0.16493225,0.07997131
2019-07-01T19:39:49.487Z,-0.4687986,-0.47303832,0.580374,-0.58384705,-9.698105,1.1174469,22.457886,38.34839,-18.972778,-0.98833805,-9.693668,1.1074183,0.47257173,0.017105103,0.0067390203,-0.0831604,-0.62809753,0.13220215
2019-07-01T19:39:49.691Z,-0.43200278,-0.50583214,0.6175261,-1.306488,-9.714859,0.83987427,22.027588,38.27362,-22.445679,-1.0681933,-9.682828,1.1279105,0.26427627,0.02357006,0.07091892,-0.07551575,-0.7214966,0.101486206
2019-07-01T19:39:49.886Z,-0.40639502,-0.5280948,0.63882434,-1.4380798,-9.800995,0.66041565,21.67511,37.89978,-24.092102,-1.1090795,-9.681722,1.0975394,-0.5395694,0.00045490265,-0.4050398,-0.02128601,-0.2315216,0.033737183
2019-07-01T19:39:50.109Z,-0.40089574,-0.5315567,0.6425588,-1.8137665,-9.602402,0.46899414,22.189331,38.282776,-22.148132,-1.0982229,-9.681233,1.1126643,-0.41224027,-0.029958725,-0.45669913,0.06503296,0.13676453,-0.05441284
2019-07-01T19:39:50.296Z,-0.43096226,-0.5066173,0.64640206,-1.4715881,-9.475586,0.8949127,24.906921,37.574768,-20.36438,-1.7488896,-9.583059,1.1299311,0.9521129,0.06542778,0.23422289,-0.0027770996,0.22375488,0.2247467
2019-07-01T19:39:50.562Z,-0.38328624,-0.53901005,0.67981863,-0.36131287,-9.812973,1.4404755,25.012207,36.27014,-20.405579,-1.7606685,-9.568954,1.2270043,1.3259779,-0.07709694,0.35519433,-0.041870117,-0.374588,0.2062378
2019-07-01T19:39:50.706Z,-0.26961616,-0.5940212,0.7342555,-1.5337982,-9.659821,1.7826538,20.95642,36.097717,-23.52295,-1.6933568,-9.548347,1.4601313,-0.40591204,0.094142914,0.36065233,-0.2058258,-1.5514832,0.20019531
2019-07-01T19:39:50.901Z,-0.14527014,-0.6402398,0.7513087,-2.6775665,-9.291336,1.5984039,13.935852,36.393738,-27.929688,-1.2959576,-9.626005,1.3531146,-2.1214452,0.5662813,0.35552442,-0.25004578,-1.9066467,0.12384033
2019-07-01T19:39:51.110Z,-0.0629693,-0.6282584,0.7751486,2.3401794,-10.80838,-1.8137665,5.4718018,37.947083,-28.398132,-0.68994564,-9.578353,1.9873415,-0.22940475,-0.41641998,1.1787939,-0.20210266,-1.1282806,-0.1312561
2019-07-01T19:39:51.314Z,-0.12426839,-0.6230796,0.7517565,-0.62931824,-8.810379,2.7565308,-1.5228271,36.77826,-31.448364,0.32603034,-9.617407,1.889333,1.0359731,0.48900414,0.13396871,0.04512024,-1.4896088,-0.17443848
2019-07-01T19:39:51.518Z,0.005455013,-0.62741655,0.77862674,0.0382843,-8.621338,3.3427734,-12.692261,35.913086,-25.048828,0.17791443,-9.580732,2.0852604,0.18369539,0.05767536,0.42801833,0.21328735,-2.0151978,0.19494629
2019-07-01T19:39:51.817Z,-0.064819776,0.613261,-0.78022397,0.25842285,-9.827316,3.041275,-15.77301,37.843323,-18.188477,-0.26729423,-9.517685,2.3478954,-0.19393831,0.85344696,0.52580404,0.07688904,-1.6281586,0.46427917
2019-07-01T19:39:51.917Z,-0.09388792,0.62655544,-0.75716,-0.15553284,-8.745773,5.0608215,-13.609314,39.064026,-16.064453,-0.5612372,-9.597631,1.9341336,0.84270686,-1.6113214,0.5446677,0.008163452,-0.85435486,0.56103516
2019-07-01T19:39:52.150Z,-0.09246409,0.6355328,-0.7539958,-2.3449707,-9.231506,0.9403839,-14.363098,40.022278,-14.553833,-0.3525311,-9.648711,1.7171139,-1.2404372,0.28430367,-0.890782,-0.14956665,-0.46652222,-0.0037078857
2019-07-01T19:39:52.344Z,0.020575814,0.6561909,-0.75233096,-1.3208313,-9.848862,1.0001984,-12.942505,39.465332,-15.257263,-1.0071555,-9.66049,1.3531255,-0.038101435,0.36283207,-0.11925268,-0.12599182,1.1566772,-0.03694153
2019-07-01T19:39:52.536Z,-0.1405875,-0.6706625,0.72556937,-0.9379883,-9.791428,1.8472595,-5.4977417,41.003418,-18.267822,-1.1691537,-9.718378,0.5971656,0.64363956,0.23252773,0.6486621,-0.17778015,1.5760345,0.009124756
2019-07-01T19:39:52.733Z,-0.2640206,-0.6618274,0.66991067,3.259018,-10.238892,2.2612152,-0.38604736,41.9281,-18.136597,-0.7617667,-9.7758465,-0.15146059,1.0622034,-0.20446587,2.7991896,-0.31089783,1.749649,-0.16906738
2019-07-01T19:39:52.935Z,-0.22998512,-0.56499344,0.7579073,6.652054,-10.612167,-2.8115692,9.214783,39.7583,-22.90039,-0.8564312,-9.441673,2.5083303,1.2982264,-1.4788971,-2.2031186,0.60583496,1.151123,0.02684021
2019-07-01T19:39:53.141Z,-0.11109561,-0.6011547,0.7715616,-1.2466583,-9.087936,1.5457611,5.706787,36.302185,-30.406189,0.39353532,-9.480613,2.4765878,-0.048083544,0.068035126,-1.2937067,0.60131836,-0.99468994,-0.12460327
2019-07-01T19:39:53.339Z,-0.09100187,-0.6133327,0.77447397,1.4524384,-7.738388,3.2350922,-0.30670166,35.565186,-33.709717,0.12649736,-9.540384,2.2661538,-0.28439546,0.6817713,-0.38461328,0.22685242,-0.8916321,-0.08604431
2019-07-01T19:39:53.543Z,-0.072165884,-0.6127478,0.78032607,-4.6612244,-12.945175,-1.0911255,0.40893555,34.40399,-28.234863,0.12249592,-9.522471,2.3404984,2.2864451,-0.77136326,1.0437417,-0.2089386,-0.29351807,0.39500427
2019-07-01T19:39:53.755Z,-0.077914484,-0.65003246,0.75041306,-3.735199,-8.508881,1.1892395,5.671692,38.684082,-27.65503,0.01247362,-9.706176,1.4001366,-2.2302084,-0.21602535,-1.0062627,-0.044921875,0.6955261,0.11076355
2019-07-01T19:39:53.950Z,-0.16240853,-0.6354673,0.7386842,0.088531494,-9.5354,0.83987427,9.799194,43.962097,-33.468628,-0.41608423,-9.701692,1.3691016,-0.85769093,0.3206072,-0.12842584,-0.1681366,0.8373108,0.04547119
2019-07-01T19:39:54.145Z,-0.22054942,-0.6514584,0.7018179,0.37088013,-8.743378,1.557724,11.778259,43.13965,-32.8125,-0.6656319,-9.769735,0.52877384,0.3829233,0.1474371,0.50473475,-0.52420044,0.6685333,-0.038101196
2019-07-01T19:39:54.353Z,-0.2906287,-0.64731747,0.65585786,1.0959167,-11.995224,1.2442627,10.575867,42.593384,-29.025269,-0.4678239,-9.795247,-0.06835195,-0.707528,0.19411182,1.9896963,0.16217041,1.027359,0.03312683
2019-07-01T19:39:54.547Z,-0.2902669,-0.57929283,0.69352955,2.5100708,-9.949356,-0.32781982,9.310913,37.01935,-25.953674,-0.3701276,-9.672708,1.5722988,0.19813895,-0.5705881,-1.1565335,1.1000366,0.062179565,-0.22892761
2019-07-01T19:39:54.754Z,-0.24419536,-0.57966715,0.7096738,-0.7393799,-8.846268,1.6654053,1.4083862,29.885864,-29.423523,0.20916454,-9.588405,2.046739,1.2387897,-0.66798496,-1.8995168,-0.075286865,-0.36462402,-0.19062805
2019-07-01T19:39:54.967Z,-0.22844267,-0.58157974,0.7174621,1.3304138,-9.207581,1.8927155,-3.3981323,30.142212,-28.268433,0.29797995,-9.563603,2.1492047,-0.26566213,0.51279163,-0.32040715,-0.06373596,-0.1802063,0.16500854
2019-07-01T19:39:55.168Z,-0.22503902,-0.58671767,0.7288036,2.3018951,-8.910873,3.9170532,-4.283142,29.925537,-26.914978,-0.08712858,-9.587074,2.0617466,1.3251466,0.65063953,0.6733513,0.04475403,-0.75997925,0.2863922
2019-07-01T19:39:55.366Z,-0.19145396,-0.6231527,0.722314,-0.8446655,-7.613968,-0.8159485,-8.784485,29.534912,-24.47052,0.10906437,-9.695006,1.4715095,0.30440447,-1.6873522,0.45495498,-0.30943298,-0.34196472,0.027816772
2019-07-01T19:39:55.573Z,-0.045122173,-0.655718,0.75258654,-1.6462555,-9.518646,0.72502136,-10.975647,30.308533,-20.899963,-0.14979164,-9.714386,1.3336617,-1.9267358,0.7302561,-0.8243234,-0.013031006,0.6203308,0.06391907
2019-07-01T19:39:55.769Z,-0.1122614,-0.6546192,0.74232805,-1.6342926,-9.9756775,1.0695953,-7.310486,29.916382,-23.24524,-0.49907142,-9.72564,1.1546564,-0.40752262,0.097789764,-0.33726132,-0.24357605,0.9228363,-0.030456543
2019-07-01T19:39:55.977Z,-0.18684353,-0.6584402,0.7107415,-1.6678009,-9.518646,1.3016968,-2.796936,31.736755,-22.003174,-0.50658864,-9.773993,0.61872107,-0.88655597,0.032966614,0.50860757,-0.1462555,1.4925385,-0.2776184
2019-07-01T19:39:56.169Z,-0.28776506,-0.63434917,0.65635896,-0.8757782,-10.712662,1.2634125,1.4465332,31.13861,-21.38977,-0.09887888,-9.801859,0.29012752,-1.9497573,0.17594624,1.7803338,0.29380798,1.5800629,-0.077438354
2019-07-01T19:39:56.373Z,-0.3621873,-0.5678042,0.6261575,2.6368866,-11.021347,-0.7346039,7.119751,30.35431,-22.009277,-0.07284454,-9.764026,0.9104248,0.21479382,-0.17179203,-0.88434464,-0.13465881,1.5088348,-0.19998169
2019-07-01T19:39:56.595Z,-0.4547644,-0.51725966,0.55467695,0.6125641,-9.899109,0.21057129,12.376404,30.386353,-18.746948,-0.21095315,-9.791484,0.5027235,1.0763115,0.16845131,-0.20695072,-0.14993286,1.5538025,0.012054443
2019-07-01T19:39:56.788Z,-0.5765171,-0.3892225,0.4091071,0.47616577,-9.865616,0.01914978,16.134644,30.967712,-14.326477,-0.11761355,-9.8008375,0.31643862,0.6502456,0.15738392,-0.33905542,-0.023361206,1.3893585,-0.07987976
2019-07-01T19:39:56.996Z,-0.60851765,-0.35077205,0.3797841,0.6316986,-9.382263,-0.57188416,18.960571,30.545044,-10.978699,-0.39095578,-9.797982,0.13072705,0.77940106,0.035349846,-0.8999748,0.03363037,0.9161072,0.030136108
2019-07-01T19:39:57.195Z,-0.60857064,-0.32174563,0.36274195,-0.19621277,-8.970688,0.23449707,21.14563,30.305481,-8.174133,-0.36594376,-9.786419,0.51232886,0.55360305,-0.7434931,0.29249263,0.05293274,0.49235535,0.13220215
2019-07-01T19:39:57.388Z,-0.6072502,-0.29810634,0.37947324,-1.1150513,-8.260025,3.550949,22.898865,29.832458,-7.736206,-0.8292191,-9.736112,0.8312083,0.098992705,0.4305849,1.078195,0.17504883,0.13212585,0.11253357
2019-07-01T19:39:57.598Z,-0.59091145,-0.30990785,0.41026753,-0.66760254,-9.98764,0.75613403,23.809814,29.039001,-9.97467,-0.9762409,-9.698605,1.0744315,0.48198748,0.035294533,0.35916543,0.06594849,-0.09022522,0.14729309
2019-07-01T19:39:57.799Z,-0.5607956,-0.35408798,0.46341372,-1.5457611,-9.769897,1.0576324,23.99292,28.118896,-12.207031,-1.0157126,-9.682347,1.1793478,-0.040585756,-0.06420326,0.027564406,0.044204712,-0.6491089,0.12072754
2019-07-01T19:39:58.003Z,-0.5412521,-0.393543,0.49987108,-1.5266266,-9.786652,1.5266266,22.245789,27.371216,-15.460205,-1.0626394,-9.69506,1.0232276,-0.5010117,-0.017716408,0.109387636,-0.054641724,-0.8460541,0.113204956
2019-07-01T19:39:58.206Z,-0.5435228,-0.41207048,0.50429124,-0.35414124,-9.384644,1.8089752,21.495056,27.119446,-17.59491,-1.0956606,-9.721346,0.6821688,-0.06326091,0.12413216,1.0162654,-0.21987915,-0.43023682,0.07221985
2019-07-01T19:39:58.400Z,-0.5211321,-0.4187281,0.50363815,-0.6077728,-8.633301,0.43310547,18.952942,27.824402,-17.347717,-0.65372336,-9.7292795,1.0412332,0.055895686,0.47744942,0.6817694,-0.16531372,-0.14337158,-0.08103943
2019-07-01T19:39:58.622Z,-0.45562544,-0.444974,0.5341656,-0.021530151,-8.575882,1.9501495,19.39392,28.727722,-17.407227,0.0784529,-9.62995,1.851566,0.67890984,-0.989707,-1.1407455,0.5493927,-0.2218628,-0.26435852
2019-07-01T19:39:58.803Z,-0.40050128,-0.4889049,0.5763872,0.81355286,-9.272186,2.646469,15.083313,28.173828,-20.36438,0.4397396,-9.596154,1.972524,-0.62613714,0.594882,0.22857523,0.028747559,-0.87153625,-0.19148254
2019-07-01T19:39:59.017Z,-0.35382807,-0.51148295,0.61904985,1.0791626,-9.571289,2.5962067,12.371826,27.204895,-21.885681,0.51473945,-9.538178,2.2200472,0.58134544,0.47764206,0.5846071,0.25923157,-0.8296814,0.0716095
2019-07-01T19:39:59.217Z,-0.3335499,-0.54702,0.64579767,-2.108078,-10.774887,1.8831482,10.144043,26.269531,-23.945618,0.23068526,-9.645457,1.7556572,0.8961272,-0.8121557,0.67430747,-0.0209198,-0.8509979,0.31430054
2019-07-01T19:39:59.412Z,-0.258187,-0.61290526,0.6767717,-3.6849518,-9.348755,2.342575,7.8964233,27.700806,-20.921326,0.367961,-9.734211,1.1314255,-1.087266,0.09381771,-0.19912243,-0.30099487,-0.53359985,0.081451416
2019-07-01T19:39:59.625Z,-0.2689603,-0.5992416,0.6929742,-0.100494385,-9.406189,0.4857483,3.9901733,29.519653,-16.238403,-0.16198565,-9.712644,1.344881,-1.0682377,0.23154068,-0.16768706,-0.09257507,-0.3340912,0.12023926
2019-07-01T19:39:59.822Z,-0.2650093,-0.6270293,0.68788904,-0.76330566,-9.066406,1.8352966,5.5496216,30.35736,-16.963196,-0.4785419,-9.7686205,0.71793145,-0.058357,0.19309425,0.44274795,-0.09385681,-0.18008423,0.2907257