timestamp,rotationVector_x,rotationVector_y,rotationVector_z,accelerometer_x,accelerometer_y,accelerometer_z,magneticField_x,magneticField_y,magneticField_z,gravity_x,gravity_y,gravity_z,linearAcceleration_x,linearAcceleration_y,linearAcceleration_z,gyroscope_x,gyroscope_y,gyroscope_z
2019-07-01T19:41:41.542Z,-0.0071901097,-0.010208316,0.41075778,0.1268158,-0.21534729,9.805786,33.839417,-8.944702,-36.47003,0.12460546,-0.21080521,9.803593,7.1927905e-05,0.0002117604,0.0013160706,6.1035156e-05,-0.00035095215,-0.00015258789
2019-07-01T19:41:41.748Z,-0.007225865,-0.010208182,0.41076863,0.117248535,-0.21057129,9.800995,33.039856,-8.9279175,-36.131287,0.12431242,-0.21144488,9.803582,-0.00035383552,-0.0010532141,0.0002374649,-0.00018310547,6.1035156e-05,-1.5258789e-05
2019-07-01T19:41:41.948Z,-0.007273126,-0.010187822,0.41076976,0.119644165,-0.20817566,9.7986145,34.33838,-8.47168,-37.149048,0.12356733,-0.21212603,9.803576,-0.000796102,-0.0018266886,-0.0004892349,0.00012207031,0.00018310547,-1.5258789e-05
2019-07-01T19:41:42.153Z,-0.0072545856,-0.010195148,0.4107689,0.1268158,-0.2033844,9.8033905,32.850647,-10.73761,-39.663696,0.12384792,-0.21185346,9.80358,0.00083479285,0.0010218024,-0.00063991547,-6.1035156e-05,0.0,-7.6293945e-05
2019-07-01T19:41:42.354Z,-0.0072139995,-0.010241252,0.41078663,0.124420166,-0.21774292,9.8033905,32.920837,-9.429932,-38.267517,0.1249951,-0.21150158,9.803573,0.0018317103,0.00043864548,0.0011701584,-6.1035156e-05,1.5258789e-05,-0.00021362305
2019-07-01T19:41:42.558Z,-0.0072013666,-0.010212193,0.41076377,0.114852905,-0.20578003,9.808182,33.21228,-10.218811,-37.608337,0.12458268,-0.21103851,9.803588,9.4883144e-05,0.0006889105,-0.00034427643,6.1035156e-05,0.00012207031,-0.0001373291
2019-07-01T19:41:42.756Z,-0.0071902685,-0.010166169,0.41073024,0.12921143,-0.20578003,9.805786,33.407593,-9.397888,-37.979126,0.12385701,-0.2104648,9.803609,-0.0018193796,0.0011026412,0.0024785995,0.00018310547,6.1035156e-05,-1.5258789e-05
2019-07-01T19:41:42.955Z,-0.007198023,-0.010221811,0.41076902,0.119644165,-0.21774292,9.7986145,33.29315,-10.136414,-37.89673,0.12478036,-0.21105693,9.803585,0.0022828355,-0.00071005523,-0.0008993149,-6.1035156e-05,0.0,-3.0517578e-05
2019-07-01T19:41:43.162Z,-0.0072176084,-0.010197341,0.410759,0.117248535,-0.21296692,9.796219,33.073425,-9.793091,-37.290955,0.12418738,-0.21120863,9.803589,-0.00048342347,-8.144975e-05,0.00036525726,-0.00024414062,0.00012207031,-7.6293945e-05
2019-07-01T19:41:43.365Z,-0.0072338115,-0.01020592,0.41076958,0.124420166,-0.21774292,9.812973,33.470154,-9.608459,-38.70392,0.12420773,-0.21156888,9.803581,-3.963709e-06,-0.0004579872,-0.001830101,0.0,0.00018310547,-0.00038146973
2019-07-01T19:41:43.566Z,-0.0072466885,-0.010184407,0.41075945,0.12921143,-0.20100403,9.800995,32.637024,-10.397339,-38.075256,0.12372171,-0.21162444,9.803586,-0.0012037307,0.0003271699,0.0011749268,-0.00012207031,-6.1035156e-05,-7.6293945e-05
2019-07-01T19:41:43.773Z,-0.0072468393,-0.010229009,0.41078869,0.13160706,-0.21057129,9.800995,33.831787,-9.091187,-36.801147,0.1245111,-0.21199039,9.803568,0.0015905946,-0.00026459992,0.0003080368,0.0,0.0,-1.5258789e-05
2019-07-01T19:41:43.974Z,-0.007272441,-0.010204223,0.41078028,0.124420166,-0.2033844,9.808182,34.39026,-9.046936,-37.57019,0.12386361,-0.21224733,9.803571,-0.0008516982,-0.0004939884,-0.0012311935,-0.00024414062,6.1035156e-05,-7.6293945e-05
2019-07-01T19:41:44.179Z,-0.0072358064,-0.010184788,0.41075638,0.12921143,-0.21774292,9.805786,34.506226,-9.907532,-38.50403,0.123816915,-0.21143253,9.803589,0.0006063804,0.0020613372,0.0012550354,6.1035156e-05,6.1035156e-05,-0.0001373291
2019-07-01T19:41:44.380Z,-0.0072610304,-0.010180952,0.41076156,0.119644165,-0.21296692,9.7986145,32.681274,-9.373474,-38.171387,0.123543866,-0.21185333,9.803583,-7.092953e-05,-0.00062328577,0.00067424774,-0.00018310547,0.00018310547,-0.0002593994
2019-07-01T19:41:44.580Z,-0.0072375247,-0.010218455,0.4107789,0.13160706,-0.20817566,9.8033905,32.951355,-8.9279175,-36.80725,0.12439975,-0.2117375,9.803575,0.0012258366,0.0006932318,-0.00018596649,-6.1035156e-05,0.0,-7.6293945e-05
2019-07-01T19:41:44.780Z,-0.00723911,-0.010265437,0.41081014,0.1268158,-0.21057129,9.805786,33.555603,-9.527588,-38.91754,0.12521966,-0.21214858,9.8035555,0.00087726116,-0.00081543624,-0.00029945374,6.1035156e-05,0.00012207031,-0.00019836426
2019-07-01T19:41:44.989Z,-0.007226897,-0.010236299,0.41078734,0.12921143,-0.22253418,9.8033905,32.92389,-9.281921,-38.615417,0.12480245,-0.21169238,9.803571,-0.00061552227,0.0006554574,0.0004386902,-6.1035156e-05,0.0,-0.00019836426
2019-07-01T19:41:45.225Z,-0.007201997,-0.010254585,0.4107917,0.122039795,-0.2033844,9.800995,32.452393,-9.173584,-37.817383,0.125329,-0.21139507,9.80357,0.0014877021,0.0010663867,-0.0008249283,0.0,0.00012207031,-0.00038146973
2019-07-01T19:41:45.390Z,-0.00725539,-0.010240178,0.4107986,0.124420166,-0.21296692,9.810577,32.154846,-10.35614,-38.275146,0.124639556,-0.21223459,9.803561,-0.00091794133,-0.000493899,-0.00038051605,-0.00018310547,6.1035156e-05,-7.6293945e-05
2019-07-01T19:41:45.591Z,-0.0072509777,-0.010247492,0.41080204,0.13160706,-0.21057129,9.800995,32.792664,-10.531616,-38.18512,0.12480509,-0.21221511,9.80356,0.00081022084,-1.7136335e-05,0.0021352768,-0.00012207031,0.00012207031,-0.00019836426
2019-07-01T19:41:45.799Z,-0.007259011,-0.01026615,0.4108167,0.12921143,-0.21057129,9.8033905,32.157898,-10.282898,-38.25836,0.12507048,-0.21251102,9.803549,0.00053463876,6.720424e-05,0.0015916824,-0.00018310547,6.1035156e-05,-7.6293945e-05
2019-07-01T19:41:46.001Z,-0.0072329775,-0.01029139,0.41082525,0.124420166,-0.21534729,9.8033905,32.12738,-9.27124,-37.44812,0.12572955,-0.2122501,9.803547,0.0008382201,0.000993967,-0.00021457672,-6.1035156e-05,-0.00016784668,-0.00019836426
2019-07-01T19:41:46.205Z,-0.0072443387,-0.0102627035,0.41080996,0.1268158,-0.21534729,9.805786,32.92694,-9.512329,-37.07428,0.1251287,-0.21222003,9.8035555,-0.00096459687,0.0002604872,0.0012922287,-6.1035156e-05,6.1035156e-05,-7.6293945e-05
2019-07-01T19:41:46.403Z,-0.0072369142,-0.010268437,0.41081142,0.13400269,-0.21774292,9.808182,32.91626,-9.654236,-37.40692,0.12529068,-0.21213368,9.8035555,0.00078234076,0.0006444305,-0.00024604797,-0.00012207031,0.00012207031,-0.0001373291
2019-07-01T19:41:46.605Z,-0.008647834,-0.003920065,0.4128295,-0.38046265,-0.40678406,14.529221,33.772278,-10.0997925,-38.589478,2.9954754e-06,-0.1862167,9.804882,0.12730108,-0.027449325,-0.0021982193,-0.00018310547,6.1035156e-05,-0.0002593994
2019-07-01T19:41:46.809Z,-0.035995312,-0.021201089,0.3270205,-11.200806,-7.3244324,12.966705,35.180664,-7.7651978,-36.283875,0.16170391,-0.8025004,9.772423,-1.1769967,-0.7692388,0.24742794,0.0028839111,0.0284729,0.002166748
2019-07-01T19:41:47.009Z,0.014237582,0.30598113,0.16675597,-1.6342926,1.0839539,-3.426529,44.836426,6.5582275,-23.796082,-5.577921,1.2624651,7.96639,0.55716944,-3.0674453,6.244135,-0.72839355,2.5449524,-1.7730103
2019-07-01T19:41:47.215Z,-0.10919986,-0.016914932,-0.12328,-3.7543335,-3.5868378,14.012375,29.634094,16.52069,-38.433838,0.5912169,-2.071315,9.567158,-5.135165,2.9283042,-4.7099915,1.957428,-1.5265503,-2.2350159
2019-07-01T19:41:47.418Z,0.071150154,-0.1690968,0.80081815,0.22013855,1.0528412,4.7234344,12.948608,23.52295,-40.629578,3.0083547,-1.860357,9.146543,0.78475595,-1.1360173,-0.4006281,-0.6379242,-1.6909943,-1.2878723
2019-07-01T19:41:47.610Z,0.13706657,-0.17354298,0.7583739,3.144165,0.6149597,5.027313,7.572937,16.990662,-43.173218,4.1257997,-0.9329418,8.847473,-0.13652086,-0.36301947,0.43837738,0.64385986,-0.84524536,0.5646515
2019-07-01T19:41:47.815Z,0.1577118,-0.16069011,0.7505213,5.0536346,1.6151581,5.9365997,1.7959595,13.839722,-43.881226,4.2797027,-0.4435308,8.812367,-1.2918282,-0.005698651,0.54991055,0.4080658,-0.67707825,-0.63331604
2019-07-01T19:41:47.913Z,0.17798752,-0.11716696,0.76132536,4.4889374,-0.23928833,11.40419,0.2975464,9.0789795,-44.110107,4.064934,0.3881273,8.916057,0.18180275,0.69074535,-1.4418812,0.63153076,-0.29315186,-0.12513733
2019-07-01T19:41:48.113Z,0.16986787,-0.10127194,0.7797745,3.144165,1.6127625,9.346359,2.6763916,9.732056,-42.10968,3.7778075,0.4301767,9.039553,0.209692,0.031727374,0.9391985,-0.18606567,0.25279236,0.40937805
2019-07-01T19:41:48.357Z,0.16990915,-0.058717396,0.7960941,3.603592,1.5457611,9.346359,4.647827,4.9697876,-41.049194,3.3184502,1.0088772,9.172811,0.1757381,0.59811795,0.042655945,0.44075012,0.3479004,0.16716003
2019-07-01T19:41:48.534Z,0.15341985,-0.05430855,0.82409286,2.555542,1.6869354,8.638092,9.144592,1.9485474,-45.547485,3.0576837,0.75483656,9.287151,-0.085561514,0.87197536,-0.7487259,0.19909668,0.1981659,0.26838684
2019-07-01T19:41:48.740Z,0.1219418,-0.1008302,0.83832437,3.9649048,0.9260254,7.4967194,10.040283,3.6697388,-43.571472,3.0367343,-0.41013014,9.315601,0.4603212,1.3103555,-0.6114025,-0.19168091,0.1394043,0.5325928
2019-07-01T19:41:49.064Z,0.10422746,-0.11030922,0.8422224,3.5820618,-0.5264282,10.1527405,12.341309,6.668091,-43.88733,2.8409655,-0.7646232,9.354926,0.7499449,0.22950137,0.7383604,-0.5306549,0.06463623,0.2718048
2019-07-01T19:41:49.125Z,0.08901563,-0.103111416,0.8446658,3.2638092,-0.88534546,9.78186,13.795471,8.358765,-42.54303,2.5216095,-0.8044164,9.44271,0.27717805,0.13498086,-0.20434189,-0.10102844,0.19554138,0.0209198
2019-07-01T19:41:49.475Z,0.10789988,-0.10378372,0.8444524,2.7541351,-0.3014984,9.877579,12.510681,6.6726685,-42.98706,2.8339355,-0.63055515,9.367049,0.16799569,-0.21305895,0.32725716,0.05505371,-0.061447144,-0.091659546
2019-07-01T19:41:49.679Z,0.11497203,-0.09782166,0.8390999,2.802002,-0.26081848,9.324829,11.949158,6.5567017,-42.08069,2.8948412,-0.43142062,9.359709,0.21951938,0.046522528,0.3326521,0.13043213,0.103302,0.023986816
2019-07-01T19:41:49.734Z,0.10079745,-0.08474063,0.85264534,2.8330994,-0.22970581,9.537796,13.067627,4.5913696,-42.300415,2.5260222,-0.4175314,9.466533,0.09542489,0.16749462,-0.11708164,0.08406067,0.09725952,0.23094177
2019-07-01T19:41:49.939Z,0.10002244,-0.07388395,0.8598894,3.0269165,-0.30389404,10.310669,14.564514,3.7384033,-41.705322,2.4043632,-0.27479452,9.503364,0.35614896,0.068000495,0.017093658,0.021514893,0.1134491,0.048416138
2019-07-01T19:41:50.141Z,0.09966443,-0.0630259,0.8579714,1.3997955,-0.5001068,9.765106,14.144897,3.3462524,-41.615295,2.2951663,-0.083242916,9.533922,0.5916889,-0.0510419,0.18354797,0.030853271,0.03831482,-0.13618469
2019-07-01T19:41:50.345Z,0.08352835,-0.06941174,0.8597912,2.3114624,0.37327576,9.434906,15.686035,3.668213,-41.841125,2.087852,-0.3530797,9.575312,-0.4236145,0.11400077,-0.14206314,-0.026565552,0.1065979,0.19697571
2019-07-01T19:41:50.552Z,0.07746586,-0.065296836,0.86632097,1.9501495,-0.07417297,8.240875,15.927124,3.5308838,-41.04767,1.9426442,-0.36635888,9.605327,0.4602102,0.41896594,-0.016444206,0.041305542,0.06060791,-0.0013122559
2019-07-01T19:41:50.754Z,0.07641236,-0.061330903,0.86272687,2.4669952,-1.0839539,10.523636,15.525818,3.578186,-41.323853,1.8897108,-0.29429096,9.618356,0.05410874,0.107183635,-0.32462215,-0.18006897,-0.04788208,0.055984497
2019-07-01T19:41:50.956Z,0.08168613,-0.07656423,0.8662851,1.902298,-0.5359955,11.193619,16.151428,3.1082153,-40.992737,2.1189854,-0.52089375,9.560803,0.019953966,-0.10489339,0.44519043,-0.13621521,0.044174194,0.0460968
2019-07-01T19:41:51.161Z,0.070889324,-0.08058224,0.86415136,0.9020996,-0.2368927,8.7960205,16.964722,5.130005,-41.06598,1.9785444,-0.6821944,9.580729,0.21632767,0.37936795,0.5919714,0.112594604,-0.010437012,-0.103012085
2019-07-01T19:41:51.357Z,0.071346976,-0.09080217,0.86763644,2.5746765,-0.16270447,7.9537354,16.023254,5.4229736,-39.759827,2.0753894,-0.86847067,9.545098,-0.6545336,0.39253688,-0.39186382,0.07685852,-0.28855896,0.20523071
2019-07-01T19:41:51.563Z,0.084959894,-0.10675217,0.737444,2.9527435,-0.8446655,10.27478,14.875793,3.465271,-41.54663,2.6138272,-0.44177112,9.441564,0.19825673,-0.3750245,-0.15865135,0.030670166,-0.020751953,0.0640564
2019-07-01T19:41:51.768Z,0.08753274,-0.10145596,0.73794574,3.213562,-0.3254242,9.159729,14.7994995,3.6834717,-42.17987,2.5830667,-0.33289275,9.454488,0.1067152,-0.31710115,0.5187807,0.10948181,-0.0178833,-0.11248779
2019-07-01T19:41:51.985Z,0.08522623,-0.09476945,0.73360664,1.8281097,-0.42114258,9.724426,15.409851,2.999878,-42.56897,2.4670112,-0.24778843,9.488036,0.57935977,0.057687238,-0.4111662,-0.12918091,0.036239624,-0.10447693
2019-07-01T19:41:52.170Z,0.072322674,-0.09809255,0.72727585,2.4885406,0.0047912598,9.537796,15.562439,4.534912,-42.112732,2.3311193,-0.44111937,9.515339,-0.0769608,0.030712575,0.39061928,0.00630188,0.09866333,-0.1716156
2019-07-01T19:41:52.390Z,0.08232743,-0.090121016,0.70648205,3.797409,1.524231,12.612564,14.36615,4.7470093,-41.71753,2.3729835,-0.12310003,9.51442,0.26196718,-0.028961517,0.01543808,0.13970947,0.01210022,-0.37748718
2019-07-01T19:41:52.586Z,0.20112428,0.009739444,0.63788074,0.24885559,-0.5168457,9.841675,14.7872925,3.3920288,-42.010498,2.3742595,3.0541322,9.011413,-2.3073637,-2.790396,-0.33402634,0.88375854,0.27368164,-0.9269562
2019-07-01T19:41:52.778Z,0.17477216,0.025864195,0.6739256,2.4191437,3.4121704,13.25145,14.903259,-2.7053833,-44.6167,1.9462163,2.8008907,9.194436,-0.5024644,0.03854823,1.1480827,0.0796051,0.3327484,0.18670654
2019-07-01T19:41:52.984Z,0.109672144,0.06481306,0.6849713,-1.964508,2.0841522,12.988235,16.397095,-3.8619995,-42.42096,0.5615065,2.4137695,9.488352,0.8286681,0.18907332,-1.5945959,0.17520142,0.24124146,0.051467896
2019-07-01T19:41:53.198Z,0.10785147,0.103406034,0.6803265,0.72024536,2.8043823,10.29631,21.684265,-2.8671265,-40.85083,-0.016110556,2.897574,9.368788,0.8829525,-0.60435176,0.7101116,0.10910034,0.19921875,0.14169312
2019-07-01T19:41:53.398Z,0.108650856,0.10943449,0.6880253,-0.0382843,2.9192505,10.719849,23.182678,-5.545044,-39.79492,-0.055835307,2.9878774,9.340227,-0.2309164,0.20379901,-0.1726017,0.2062378,0.27630615,0.024642944
2019-07-01T19:41:53.599Z,0.094435394,0.10793355,0.6894771,0.41874695,2.4358978,8.903687,24.520874,-6.567383,-37.64038,-0.22591102,2.7745712,9.40325,0.38271856,-0.1870017,-0.581336,0.03147888,0.050460815,0.08200073
2019-07-01T19:41:53.842Z,0.066518724,0.106273256,0.6835753,-0.83270264,2.8713837,9.717255,25.636292,-6.777954,-38.41095,-0.6068992,2.3629086,9.498353,-0.14146149,0.4273181,0.025544167,-0.18763733,0.11167908,-0.13343811
2019-07-01T19:41:53.996Z,0.055263635,0.088317506,0.6790166,-0.43070984,2.3784637,9.334396,25.920105,-4.220581,-36.845398,-0.5227881,1.9638551,9.593767,0.06806886,0.51660717,0.00046157837,-0.16601562,0.09890747,-0.06123352
2019-07-01T19:41:54.196Z,0.04991283,0.07194327,0.6789374,-0.4857483,1.9884338,10.112076,25.367737,-2.06604,-37.21466,-0.36394048,1.6716266,9.656273,0.0031329095,0.3575697,0.21461487,-0.29766846,-0.1063385,-0.03967285
2019-07-01T19:41:54.416Z,0.036032923,0.07172423,0.6781628,-0.14356995,1.3782654,10.1766815,26.312256,0.8987427,-35.742188,-0.54837716,1.4702779,9.680287,0.08819157,0.17097497,0.28194714,-0.14323425,-0.050689697,0.017990112
2019-07-01T19:41:54.602Z,0.036087867,0.07069871,0.68151116,-0.14596558,1.1724854,10.660019,25.750732,0.93688965,-35.787964,-0.5263882,1.4599264,9.683074,0.1692971,0.052104473,0.21121883,-0.07029724,0.10043335,0.019088745
2019-07-01T19:41:54.807Z,0.037455592,0.07498436,0.68079257,-0.13160706,1.4763641,9.506683,25.982666,0.8087158,-36.201477,-0.5700405,1.5357981,9.668856,0.3691306,0.14490211,-0.049907684,0.06072998,-0.01991272,0.006149292
2019-07-01T19:41:55.027Z,0.05685052,0.07693443,0.6762021,-0.04547119,1.1605225,10.655243,26.678467,0.2029419,-36.654663,-0.34826466,1.8348507,9.6271715,0.14511004,-0.35815096,0.70793724,0.07722473,-0.0068969727,0.011947632
2019-07-01T19:41:55.211Z,0.061362144,0.06627315,0.66344315,-0.33259583,1.2681885,7.578064,26.361084,-1.1901855,-38.35907,-0.16699667,1.7562836,9.646656,-0.53246886,-0.37742782,-1.2121916,0.2202301,-0.115982056,-0.1287384
2019-07-01T19:41:55.427Z,0.051653534,0.021175893,0.6277068,1.655838,1.7658997,9.908676,22.738647,0.6866455,-38.885498,0.31344697,1.0473189,9.745524,-0.037767887,0.915136,0.42018223,-0.54530334,-0.5152588,-0.01449585
2019-07-01T19:41:55.621Z,0.05226001,0.038261585,0.6344533,-1.730011,1.9046936,8.992233,23.448181,2.11792,-38.850403,0.07229126,1.2656087,9.724371,-1.0398666,0.3678347,0.008195877,0.206604,0.39309692,0.048110962
2019-07-01T19:41:55.820Z,0.039424144,0.05811109,0.6863319,-0.2632141,2.2085724,7.6737823,25.02594,0.8880615,-35.768127,-0.29435667,1.3419863,9.709934,-0.053027034,-0.23262203,0.5897827,0.19212341,0.03855896,0.40771484
2019-07-01T19:41:56.025Z,0.053102262,0.066075236,0.6998714,0.21774292,1.9094696,8.975479,25.146484,-3.5430908,-36.749268,-0.19019373,1.6456617,9.665712,0.6447015,-0.25291276,-0.50730324,-0.08319092,-0.07450867,0.11164856
2019-07-01T19:41:56.230Z,0.048109684,0.056804232,0.701087,-0.33021545,2.0219421,10.159927,25.317383,-5.213928,-36.265564,-0.12857173,1.4502685,9.697968,0.17166407,0.12947011,-0.2061739,-0.11904907,0.009048462,-0.015670776
2019-07-01T19:41:56.439Z,0.04691034,0.048930854,0.6977659,0.5479584,1.2514496,9.040085,25.512695,-2.8015137,-35.10437,-0.04237874,1.3257529,9.716531,0.06688142,0.15261877,0.3815155,-0.0018157959,-0.023025513,0.029846191
2019-07-01T19:41:56.641Z,0.04362549,0.04748573,0.6995208,-0.7657013,2.2468567,9.205185,23.788452,-3.4973145,-35.702515,-0.06430242,1.2604563,9.725097,0.309771,0.0281986,-0.18076801,-0.054977417,0.03378296,-0.105407715
2019-07-01T19:41:56.843Z,0.03767886,0.05310545,0.69059217,-0.2679901,1.2251282,9.511475,24.920654,-3.1188965,-37.10785,-0.23990043,1.2516143,9.723493,-0.026088744,0.1831038,0.09761143,-0.022781372,0.06817627,-0.052627563
2019-07-01T19:41:57.038Z,0.032896098,0.056127988,0.68782747,-0.3014984,1.2155609,9.731613,27.545166,-2.2247314,-35.74829,-0.3520794,1.2236483,9.723637,0.012898445,0.07492602,-0.026081085,-0.034988403,0.025177002,-0.0129852295
2019-07-01T19:41:57.257Z,0.029561564,0.05723954,0.68702674,-0.5240326,1.1413727,9.853638,26.6922,-1.4816284,-35.71472,-0.4142077,1.190937,9.72525,-0.039411098,0.123345375,0.05452919,-0.021240234,0.023345947,-0.00869751
2019-07-01T19:41:57.449Z,0.03436851,0.05734822,0.6852203,-0.27278137,0.8111725,10.102493,26.306152,-1.1428833,-35.476685,-0.35387126,1.2596112,9.718979,-0.0047895014,-0.019044876,0.0023956299,0.008865356,0.024932861,-0.044799805
2019-07-01T19:41:57.657Z,0.021106888,0.048958447,0.6821726,-1.3399811,1.6630096,9.875183,26.599121,-1.6265869,-36.494446,-0.41784483,0.9569369,9.750901,0.36673304,-0.005112469,0.040400505,-0.019546509,-0.01361084,-0.15556335
2019-07-01T19:41:57.849Z,0.03397249,0.06359184,0.6698685,-0.23928833,1.146164,9.040085,26.838684,0.21209717,-36.584473,-0.47533658,1.3278764,9.7046995,-0.3888497,0.1030364,0.2296524,0.09689331,-0.0037841797,-0.030807495
2019-07-01T19:41:58.061Z,0.02885704,0.061224326,0.6676191,-2.3569336,2.5411835,10.277176,27.223206,-2.0965576,-36.390686,-0.51244503,1.2213145,9.716798,0.04898137,-0.022696972,-0.43606377,-0.08000183,-0.0700531,-0.0231781
2019-07-01T19:41:58.263Z,0.040780842,0.054254536,0.6848509,5.4628143,-2.651245,12.9021,26.644897,-0.75531006,-35.639954,-0.22425273,1.3090583,9.716299,-2.0060587,1.0918281,0.23479939,-0.045684814,0.010879517,0.94003296
2019-07-01T19:41:58.461Z,0.049885496,0.030629613,0.7221544,-5.860016,5.374283,9.114258,26.38855,-4.5547485,-36.70349,0.292504,1.1082087,9.739441,3.349012,-2.7126384,1.1603489,0.30628967,-0.4330902,-1.307724
2019-07-01T19:41:58.655Z,0.1162681,0.030419296,0.6248149,-1.6366882,1.6247253,7.290924,21.940613,-2.7145386,-39.62097,0.96455324,2.132035,9.523363,-3.5172853,0.62233424,0.051587105,0.25675964,-0.23669434,0.22795105
2019-07-01T19:41:58.861Z,0.06329971,0.11343513,0.6925385,1.2993011,1.5984039,11.291733,27.404785,-5.673218,-34.25598,-0.7189215,2.4217513,9.475688,1.8968426,-0.9473603,2.1560783,-0.08880615,1.0054932,0.6277008
2019-07-01T19:41:59.066Z,0.06606235,0.098957784,0.71721923,1.454834,1.5696869,8.714661,25.543213,-9.587097,-34.373474,-0.40334114,2.28169,9.528987,1.3446692,-0.3531475,-0.7303629,0.1789856,-0.123565674,0.19618225
2019-07-01T19:41:59.272Z,0.08562841,0.08625011,0.674309,0.37806702,2.8115692,11.708084,25.012207,-6.465149,-37.190247,-0.099689744,2.3639748,9.516936,0.8779413,-0.114011765,1.5013065,-0.18972778,-0.17848206,-0.39379883
2019-07-01T19:41:59.474Z,0.14248818,0.05555624,0.599218,-0.65563965,2.526825,9.128616,21.03424,-5.1101685,-39.16626,0.8183263,2.849098,9.347907,-1.5429902,-0.39517975,-0.6133003,0.21253967,-0.61543274,-0.5847473
2019-07-01T19:41:59.682Z,0.14755788,0.04955586,0.5784173,2.1391907,2.7684937,8.855835,18.656921,-5.6900024,-41.375732,0.8957015,2.8796504,9.331438,-0.5788047,0.40470338,-0.56294537,0.32669067,-0.12980652,-0.10437012
2019-07-01T19:41:59.885Z,0.17040354,0.18093608,0.58359295,-1.2012024,3.591629,10.308273,22.612,-9.832764,-37.39624,-0.7929805,4.654778,8.595034,1.004726,-1.336987,1.0671368,0.29737854,0.3948822,-0.23075867
2019-07-01T19:42:00.085Z,0.1669638,0.097954296,0.5836831,0.3397827,3.5605164,8.958725,22.514343,-9.896851,-39.068604,0.39638793,3.7037137,9.071701,-0.86485624,-0.07450318,-0.9216509,0.29200745,-0.07267761,0.04170227
2019-07-01T19:42:00.282Z,0.13686693,0.080893986,0.6018991,-1.0145569,3.3690948,8.090134,21.88263,-7.4432373,-41.26129,0.3740955,3.0557559,9.310897,-1.894501,0.799119,0.3936987,-0.40711975,-0.2921753,0.11506653
2019-07-01T19:42:00.502Z,0.16032644,0.1545736,0.68252426,3.6705933,1.6510468,8.470596,21.847534,-14.553833,-36.51581,0.035836086,4.2581334,8.8338785,1.2261262,-1.1813636,0.18182087,0.19450378,0.18955994,0.9668579
2019-07-01T19:42:00.695Z,0.14999972,0.1519403,0.6888779,0.55513,4.237686,11.002197,25.476074,-14.614868,-35.243225,-0.037670262,4.090867,8.912562,1.2826355,-0.16865015,1.2314796,0.12762451,0.7552185,0.18861389
2019-07-01T19:42:00.894Z,0.15955964,0.16008797,0.68455863,-0.3756714,3.797409,8.927628,25.650024,-15.982056,-35.905457,-0.033695884,4.3182483,8.804657,0.107973516,-0.5469847,-0.42491627,0.27874756,-0.08831787,-0.00088500977
2019-07-01T19:42:01.101Z,0.14444035,0.14211129,0.6730705,-0.112457275,3.653839,9.1453705,25.65918,-15.760803,-36.161804,-0.0757505,3.891049,9.001355,-0.034963816,-0.2655108,-0.1398058,-0.11343384,0.007827759,-0.10614014
2019-07-01T19:42:01.292Z,0.13702068,0.13148476,0.6643043,-0.19381714,3.7591248,9.152542,25.17395,-11.994934,-37.03766,-0.0790744,3.6559803,9.099338,-0.13639109,0.11105847,0.15584278,-0.23718262,-0.12045288,-0.1796875
2019-07-01T19:42:01.515Z,0.13735186,0.12542349,0.6612568,-0.035888672,3.694519,9.506683,25.346375,-11.91864,-35.97107,-0.0063688215,3.5844376,9.128097,0.060175676,-0.034562588,0.07030487,-0.056503296,-0.04324341,-0.08804321
2019-07-01T19:42:01.695Z,0.13674825,0.12449689,0.6513659,-0.033493042,3.3666992,9.291336,25.00763,-12.1536255,-36.987305,-0.04985549,3.5642006,9.135883,-0.024429243,-0.10264325,0.4130535,-0.0015258789,-0.02949524,-0.08493042
2019-07-01T19:42:01.897Z,0.14411089,0.14821722,0.6459839,-0.6652069,4.503296,8.458633,25.01831,-10.343933,-35.108948,-0.31029198,3.954871,8.968451,-0.057597518,-0.0007510185,-0.4065628,0.21717834,0.080825806,-0.1532898
2019-07-01T19:42:02.098Z,0.14487907,0.14744236,0.6424029,0.5264282,3.2111664,9.281754,25.933838,-11.445618,-35.59723,-0.30864006,3.9546845,8.96859,0.22315803,-0.31351662,0.342021,-0.050079346,-0.06578064,0.040893555
2019-07-01T19:42:02.302Z,0.14908196,0.14970022,0.6330352,-0.44267273,3.9649048,9.159729,26.411438,-11.332703,-36.802673,-0.33564097,4.036263,8.931199,-0.15874603,-0.05329466,-0.058127403,-0.018554688,-0.038360596,-0.0796814
2019-07-01T19:42:02.509Z,0.14546917,0.15507106,0.6271079,-0.5024872,3.9194489,8.810379,26.05133,-10.636902,-35.51178,-0.48989767,4.0453176,8.919966,0.118487686,-0.051270008,-0.045122147,-0.016662598,-0.009094238,-0.07901001
2019-07-01T19:42:02.713Z,0.14342427,0.14594962,0.62146175,-0.71784973,4.0366974,8.6979065,26.797485,-11.820984,-36.161804,-0.4166185,3.906315,8.985405,-0.16435099,0.09421706,0.07106304,0.015838623,0.012527466,-0.089401245
2019-07-01T19:42:02.912Z,0.14296165,0.15725285,0.61656207,-0.7513428,3.8979034,9.214767,27.65503,-10.520935,-36.763,-0.6092962,4.0272474,8.920787,-0.016299844,-0.12069988,0.0717392,0.008743286,0.058288574,-0.031539917
2019-07-01T19:42:03.116Z,0.1425659,0.15245602,0.61814356,-0.3397827,3.9170532,9.001801,26.812744,-11.302185,-37.039185,-0.53763974,3.9674313,8.95214,-0.19388682,-0.023143053,0.028195381,0.0029449463,-0.050872803,0.033935547
2019-07-01T19:42:03.319Z,0.14285266,0.1593139,0.6162582,-0.7680969,4.0821533,8.688339,27.42157,-10.314941,-36.862183,-0.64160144,4.049145,8.9086,0.18168223,-0.08154249,0.010167122,0.030670166,0.023345947,-0.0423584
2019-07-01T19:42:03.521Z,0.14262746,0.15891428,0.6122155,-0.5934143,3.929016,8.944366,26.441956,-10.752869,-36.080933,-0.66027343,4.037864,8.912355,-0.045713007,-0.053825855,0.052060127,-0.010253906,0.014923096,-0.026290894
2019-07-01T19:42:03.723Z,0.13935229,0.15785444,0.61045194,-1.0576324,4.153946,8.922836,28.077698,-10.20813,-35.810852,-0.69553006,3.9768956,8.937054,0.09796363,-0.024721622,-0.0009622574,-0.02619934,-0.015625,-0.051208496
2019-07-01T19:42:03.926Z,0.13914795,0.15431485,0.61068803,-0.55274963,3.780655,9.061615,27.137756,-9.458923,-36.904907,-0.6460549,3.933731,8.959842,-0.19934028,0.111735106,-0.0056324005,-0.042800903,-0.026138306,0.022018433
2019-07-01T19:42:04.129Z,0.1365107,0.15427,0.60979354,-0.95474243,4.1156616,9.109482,26.654053,-9.5703125,-36.453247,-0.68299085,3.8941712,8.974372,0.1069414,-0.09886384,0.05164337,0.022979736,0.040145874,-0.028121948
2019-07-01T19:42:04.330Z,0.13612232,0.15527858,0.6089872,-0.6316986,4.010376,9.207581,25.45166,-9.503174,-36.239624,-0.70647246,3.8993022,8.970325,-0.2066133,0.088422775,-0.0062770844,0.02267456,0.015533447,0.013839722
2019-07-01T19:42:04.533Z,0.13939306,0.15648887,0.60940415,-0.87098694,4.031906,9.030518,26.159668,-8.381653,-34.075928,-0.6808624,3.9609747,8.9452505,0.1634677,-0.12639523,0.1008358,0.015151978,-0.03907776,-0.021591187
2019-07-01T19:42:04.736Z,0.14265253,0.15725456,0.60729367,-0.825531,4.1683044,8.889343,26.493835,-9.811401,-34.83429,-0.6621309,4.015076,8.922508,-0.14762008,-0.022397995,-0.0034179688,0.054122925,0.013809204,-0.018173218
2019-07-01T19:42:04.938Z,0.1436412,0.16162504,0.60482866,-0.83509827,4.063019,9.018555,26.91803,-9.27124,-34.968567,-0.72563773,4.0765758,8.889622,0.12632209,-0.0870471,-0.013308525,0.0060577393,-0.0079956055,-0.038146973
2019-07-01T19:42:05.141Z,0.14333887,0.16191603,0.6011739,-0.59580994,4.003189,8.961121,28.631592,-8.872986,-34.277344,-0.75297225,4.0719314,8.889477,-0.042378306,-0.0077672005,0.0006761551,0.01826477,0.0037384033,-0.038269043
2019-07-01T19:42:05.343Z,0.14601447,0.16727099,0.5986274,-1.0193481,4.0797577,8.685944,26.707458,-10.375977,-35.183716,-0.81062055,4.1680527,8.839718,-0.0036822557,-0.05419922,0.11261463,0.03794861,0.039901733,-0.0027770996
2019-07-01T19:42:05.547Z,0.14436795,0.15928735,0.6004154,-0.62213135,3.9457703,8.824738,26.512146,-9.370422,-35.12268,-0.7062852,4.0567784,8.900229,-0.05345297,0.032055378,0.1220274,-0.06626892,-0.07910156,0.019943237
2019-07-01T19:42:05.750Z,0.14430259,0.1637219,0.5990715,-0.5742798,3.9218292,8.757736,26.88446,-9.846497,-36.141968,-0.77826554,4.1040626,8.872506,0.18126231,-0.1405735,-0.000872612,0.025360107,0.019866943,-0.006134033
2019-07-01T19:42:05.953Z,0.14403693,0.16490062,0.60127276,-1.4045868,4.37648,8.688339,27.502441,-10.391235,-36.203003,-0.7867717,4.1155963,8.866411,-0.3418303,0.15361214,-0.07121849,0.007827759,-0.0029907227,-0.040649414
2019-07-01T19:42:06.156Z,0.14305402,0.1576187,0.6011134,-0.16270447,3.830902,8.915665,27.024841,-10.2005005,-36.59668,-0.69472724,4.0195603,8.918009,0.3104242,-0.13104153,-0.013433456,-0.020095825,0.01008606,0.06741333
2019-07-01T19:42:06.359Z,0.1420426,0.15803352,0.601501,-0.79441833,4.1204376,8.908478,25.621033,-9.272766,-36.502075,-0.7112179,4.0098133,8.921096,-0.15279943,0.052763462,0.12875366,-0.04043579,-0.028152466,-0.032714844
2019-07-01T19:42:06.562Z,0.1434329,0.16005905,0.59998846,-0.5479584,3.9242249,8.997009,26.235962,-9.886169,-36.576843,-0.73124593,4.0513773,8.900675,0.11510098,-0.07870054,0.11890888,0.016738892,0.016311646,0.008895874
2019-07-01T19:42:06.769Z,0.14338955,0.15648752,0.59913594,-0.83987427,4.0917206,8.542374,27.20337,-9.896851,-36.390686,-0.68448174,4.0100245,8.923093,-0.093211114,0.086812496,-0.2932701,0.02444458,-0.03553772,-0.032943726
2019-07-01T19:42:06.965Z,0.1374424,0.14075649,0.59752893,-0.7346039,3.9194489,9.04248,26.695251,-8.694458,-36.19995,-0.535242,3.7450705,9.047561,-0.014648378,0.06849909,0.083646774,-0.09883118,-0.020401001,-0.006866455
2019-07-01T19:42:07.168Z,0.13348378,0.13203096,0.5940236,-0.78723145,3.694519,8.846268,26.574707,-7.449341,-37.75482,-0.47044954,3.586188,9.115279,-0.27513885,0.1126647,-0.20709705,-0.101882935,-0.0847168,-0.043518066
2019-07-01T19:42:07.380Z,0.11275957,0.120843425,0.6232811,-0.28953552,3.2279205,8.499313,25.891113,-6.5460205,-37.77008,-0.43313104,3.1676486,9.270857,-0.059367806,0.19709897,-0.589715,-0.16798401,-0.07946777,0.03161621
2019-07-01T19:42:07.583Z,0.07994894,0.11827493,0.6181324,-0.20578003,2.5938263,8.544769,26.3031,-5.99823,-39.4104,-0.82390934,2.6460347,9.406916,0.6786489,-0.09661937,-0.22756863,-0.28746033,0.09561157,-0.012619019
2019-07-01T19:42:07.784Z,-0.005681904,0.08032609,0.577034,2.399994,2.823532,7.652252,27.780151,-2.1255493,-37.171936,-1.3447453,0.8185213,9.679467,2.3188717,2.6344714,-1.7857018,-0.4881897,0.17520142,-0.33654785
2019-07-01T19:42:07.981Z,-0.07739645,0.060347423,0.6274086,-3.5270233,-0.6029968,15.644272,31.900024,10.209656,-32.110596,-1.8667237,-0.43001717,9.617734,-1.4430866,1.4129794,1.5172806,-1.4593506,0.7175293,-0.18463135
2019-07-01T19:42:08.201Z,-0.14356822,0.08672893,0.6450337,-3.9649048,-2.2612152,7.491928,38.06305,11.196899,-31.25763,-3.084473,-1.002037,9.254854,-1.3439476,-2.0385869,0.22943306,0.37960815,0.024993896,1.0101013
2019-07-01T19:42:08.394Z,-0.15950325,0.1682429,0.65867966,-6.623337,-0.6077728,9.114258,42.82837,12.265015,-24.7406,-4.4226565,-0.06584148,8.752496,0.009817123,-0.4743232,0.46401978,-0.36279297,1.0494232,-0.00021362305
2019-07-01T19:42:08.597Z,-0.0069671087,-0.004822816,0.72793424,-2.148758,-0.35414124,9.834503,43.476868,8.508301,-23.719788,-0.034619447,-0.16254139,9.805242,-2.49186,0.044134215,-0.42801094,-0.021057129,-0.8950348,0.3255005
2019-07-01T19:42:08.792Z,-0.0076135457,-0.004599298,0.72853184,0.093322754,-0.20100403,9.796219,31.391907,4.811096,-35.90851,-0.047001347,-0.16800097,9.805099,-0.029524423,0.022804707,0.031123161,0.00018310547,0.002090454,-0.00064086914
2019-07-01T19:42:08.999Z,-0.0073691136,-0.0048989886,0.728567,0.095718384,-0.1986084,9.8033905,31.025696,5.5877686,-35.736084,-0.03949119,-0.16899753,9.805115,0.13792935,-0.028325379,0.035241127,0.00012207031,6.1035156e-05,-1.5258789e-05
2019-07-01T19:42:09.203Z,-0.0071608406,-0.0051655034,0.72861713,0.093322754,-0.19381714,9.810577,31.869507,4.924011,-37.039185,-0.03294725,-0.17000572,9.805122,0.13045464,-0.026344642,0.033242226,0.00018310547,0.0,-1.5258789e-05
2019-07-01T19:42:09.407Z,-0.0069606993,-0.0054561934,0.72865635,0.102890015,-0.18185425,9.815353,31.513977,5.5404663,-34.93347,-0.026192278,-0.17146991,9.805116,0.12325549,-0.026045904,0.032494545,-6.1035156e-05,-0.00012207031,-1.5258789e-05
2019-07-01T19:42:09.603Z,-0.005711235,-0.0071699265,0.7289172,0.098098755,-0.17706299,9.8033905,31.581116,5.479431,-35.931396,0.014613625,-0.17918426,9.805002,0.08136738,-0.016007885,0.02149868,0.00012207031,0.00012207031,-0.0001373291
2019-07-01T19:42:09.809Z,-0.0048560756,-0.008303128,0.7290644,0.098098755,-0.19142151,9.8033905,32.11212,4.866028,-36.83319,0.042013306,-0.18391204,9.804835,0.054960825,-0.009474948,0.014344215,-0.00018310547,-6.1035156e-05,3.0517578e-05
2019-07-01T19:42:10.016Z,-0.004262841,-0.009079619,0.72915834,0.100494385,-0.21057129,9.800995,31.594849,4.0283203,-36.453247,0.06089222,-0.1870603,9.804677,0.03775916,-0.0067103505,0.009561539,0.00012207031,0.0,-1.5258789e-05
2019-07-01T19:42:10.218Z,-0.0038710535,-0.009616701,0.7292367,0.098098755,-0.19381714,9.805786,30.63507,4.10614,-36.172485,0.07368067,-0.18949115,9.804542,0.024719939,-0.0051915646,0.0050935745,0.00012207031,-0.00016784668,9.1552734e-05
2019-07-01T19:42:10.425Z,-0.0036697318,-0.009945187,0.7293135,0.095718384,-0.18185425,9.7986145,31.632996,4.904175,-36.354065,0.080945924,-0.19149669,9.804446,0.014812432,-0.005054787,0.005464554,0.00012207031,0.00012207031,9.1552734e-05
2019-07-01T19:42:10.628Z,-0.0034947593,-0.01012076,0.72930324,0.095718384,-0.20578003,9.796219,30.369568,5.3253174,-35.836792,0.08580703,-0.19165903,9.804401,0.010425054,-9.7468495e-05,0.00029563904,0.0,0.00012207031,-1.5258789e-05
2019-07-01T19:42:10.846Z,-0.0033892193,-0.010243993,0.72930914,0.086135864,-0.18664551,9.796219,31.704712,4.612732,-35.961914,0.08896827,-0.19200638,9.804367,0.0067910925,-0.00046485662,0.00019741058,-0.00018310547,0.00018310547,3.0517578e-05
2019-07-01T19:42:11.025Z,-0.0033286468,-0.010371961,0.7293525,0.098098755,-0.18902588,9.800995,30.491638,4.685974,-37.18109,0.09153915,-0.1930298,9.804323,0.0051619336,-0.0022989511,0.001086235,0.00012207031,0.0,4.5776367e-05
2019-07-01T19:42:11.235Z,-0.0032666358,-0.01047566,0.72937775,0.095718384,-0.19142151,9.8033905,32.35016,4.8065186,-36.92932,0.09381009,-0.19368464,9.804289,0.0050273687,-0.0013824254,0.0032758713,0.00018310547,0.0,-7.6293945e-05
2019-07-01T19:42:11.439Z,-0.0032440089,-0.010529495,0.7293981,0.098098755,-0.18902588,9.8033905,31.0318,4.2160034,-37.298584,0.0948501,-0.194154,9.80427,0.0018384531,-0.0016351491,-0.00053596497,0.00012207031,-0.00012207031,-1.5258789e-05
2019-07-01T19:42:11.629Z,-0.0041584773,-0.010233487,0.6635885,0.088531494,-0.20100403,9.7986145,31.793213,4.916382,-36.660767,0.09601292,-0.19419977,9.804256,0.0018720552,-0.00036506355,0.0018806458,-6.1035156e-05,-6.1035156e-05,-7.6293945e-05
2019-07-01T19:42:11.830Z,-0.0041645346,-0.0102597065,0.6636074,0.095718384,-0.19142151,9.808182,30.404663,4.232788,-35.533142,0.096313745,-0.1946323,9.804246,0.00013306737,-0.0004130453,0.0007801056,-0.00012207031,-6.1035156e-05,-7.6293945e-05
2019-07-01T19:42:12.049Z,-0.004159132,-0.010292794,0.6636242,0.100494385,-0.19381714,9.808182,31.724548,5.128479,-36.38611,0.09686502,-0.19498584,9.804234,0.0005274862,-0.001248911,-0.0009279251,0.0,0.0,-1.5258789e-05
2019-07-01T19:42:12.244Z,-0.00413221,-0.010306356,0.66361773,0.102890015,-0.19381714,9.8033905,30.621338,5.7891846,-37.03766,0.097416095,-0.19476655,9.804233,0.0004638657,-3.20673e-05,0.00017356873,-6.1035156e-05,-0.00012207031,-7.6293945e-05
2019-07-01T19:42:12.451Z,-0.0040965094,-0.010328165,0.66361135,0.093322754,-0.1986084,9.808182,31.704712,4.6875,-36.250305,0.09820234,-0.19452581,9.804229,0.0015804246,0.00069770217,0.0009202957,-6.1035156e-05,0.0,9.1552734e-05
2019-07-01T19:42:12.650Z,-0.0041324203,-0.010270629,0.6635965,0.098098755,-0.19142151,9.805786,32.09381,4.3518066,-36.408997,0.09689482,-0.19430192,9.804247,-0.0026178882,0.00022433698,-0.00050640106,6.1035156e-05,-6.1035156e-05,-1.5258789e-05
2019-07-01T19:42:12.856Z,-0.004112129,-0.010306385,0.6636068,0.095718384,-0.22013855,9.791428,31.492615,3.5095215,-36.32965,0.09768074,-0.19447093,9.804235,0.0011618063,-8.60095e-05,-0.0006494522,6.1035156e-05,0.0,0.00010681152
2019-07-01T19:42:13.056Z,-0.0041327905,-0.010334054,0.66363454,0.093322754,-0.18664551,9.793823,31.57959,5.479431,-36.08246,0.09781041,-0.19513775,9.804221,7.290393e-05,-0.00085769594,-0.00042915344,-6.1035156e-05,-0.00022888184,0.00010681152
2019-07-01T19:42:13.267Z,-0.0041265907,-0.010302255,0.6636122,0.098098755,-0.18664551,9.7986145,32.070923,5.432129,-34.977722,0.0974305,-0.19463,9.804234,-0.0012248755,0.0012574792,-0.00013065338,-0.00012207031,0.00012207031,-0.0001373291
2019-07-01T19:42:13.469Z,-0.0041317404,-0.010325628,0.66362894,0.100494385,-0.18902588,9.7986145,31.211853,4.360962,-35.842896,0.09770196,-0.19501196,9.804225,0.00041538477,-0.00027661026,-0.0008764267,-6.1035156e-05,-0.00019836426,0.00015258789
2019-07-01T19:42:13.669Z,-0.0040878598,-0.010314565,0.66359854,0.090927124,-0.18664551,9.805786,31.941223,4.5578003,-36.13434,0.09811878,-0.19422026,9.804236,0.0009566024,0.0013340861,0.00068569183,0.0,3.0517578e-05,-0.0001373291
2019-07-01T19:42:13.867Z,-0.004129859,-0.010300141,0.6636127,0.095718384,-0.19621277,9.800995,31.645203,5.1986694,-36.595154,0.097356826,-0.19465053,9.804235,-0.0013974756,-0.0013422519,0.0006160736,6.1035156e-05,9.1552734e-05,3.0517578e-05
2019-07-01T19:42:14.070Z,-0.004139141,-0.010317079,0.66362786,0.105285645,-0.1986084,9.805786,31.373596,4.522705,-36.647034,0.097480506,-0.19500911,9.804227,0.00015044957,-0.00074107945,0.001367569,0.0,-9.1552734e-05,9.1552734e-05
2019-07-01T19:42:14.275Z,-0.0041038143,-0.010279516,0.6635863,0.100494385,-0.18902588,9.8033905,31.394958,5.0338745,-36.618042,0.09740017,-0.19399658,9.804248,0.00023985654,0.0018294156,-0.0017976761,0.00012207031,-3.0517578e-05,3.0517578e-05
2019-07-01T19:42:14.474Z,-0.004070191,-0.0102394875,0.6635442,0.093322754,-0.21774292,9.7986145,31.16455,5.2383423,-36.49292,0.09726153,-0.19297689,9.804269,-0.00081658363,0.0020097494,0.0010309219,6.1035156e-05,0.00015258789,3.0517578e-05
2019-07-01T19:42:14.683Z,-0.004069154,-0.010299308,0.6635793,0.093322754,-0.21774292,9.808182,31.25763,5.6137085,-37.10022,0.09814346,-0.19374475,9.804245,0.0014154911,-0.0015276521,-0.00026798248,-0.00012207031,-0.0002593994,-0.00019836426
2019-07-01T19:42:14.883Z,-0.004094887,-0.010285628,0.66358507,0.093322754,-0.19381714,9.810577,30.345154,4.8171997,-36.242676,0.097606346,-0.193945,9.804247,-0.000929676,-0.0006136298,-0.00034332275,0.00012207031,3.0517578e-05,0.0002746582
2019-07-01T19:42:15.082Z,-0.0040789978,-0.010296288,0.6635828,0.102890015,-0.19621277,9.8033905,32.598877,4.8187256,-36.032104,0.09797011,-0.19385032,9.804245,0.00110811,-2.7567148e-06,-0.0011873245,6.1035156e-05,9.1552734e-05,0.00045776367
2019-07-01T19:42:15.313Z,-0.004106825,-0.0102841,0.66359067,0.098098755,-0.19381714,9.8033905,31.796265,4.91333,-36.131287,0.09742708,-0.19410096,9.804245,-0.0004956722,-5.811453e-06,-0.00095272064,-0.00012207031,-3.0517578e-05,0.00033569336
2019-07-01T19:42:15.489Z,-0.0041149505,-0.010287754,0.6635972,0.102890015,-0.18185425,9.817749,31.541443,4.6783447,-36.471558,0.09737322,-0.19426858,9.804242,-0.00044108182,-0.0005568862,-0.00015735626,0.00012207031,9.1552734e-05,0.00015258789
2019-07-01T19:42:15.691Z,-0.004093292,-0.01031348,0.66360086,0.100494385,-0.17468262,9.812973,30.59082,4.978943,-36.369324,0.09803154,-0.19428611,9.8042345,0.0012904182,-0.00028339028,0.0011758804,6.1035156e-05,-3.0517578e-05,0.00015258789
2019-07-01T19:42:15.887Z,-0.00403523,-0.010277267,0.6635477,0.090927124,-0.1986084,9.8033905,31.767273,6.07605,-36.120605,0.09826983,-0.19295603,9.804258,0.0008147508,0.002920702,-0.0012903214,-0.00012207031,3.0517578e-05,0.00010681152
2019-07-01T19:42:16.108Z,-0.0040830043,-0.0102643715,0.66356593,0.100494385,-0.1986084,9.808182,31.752014,5.709839,-35.96649,0.09745415,-0.19349153,9.804256,-0.0014870316,-0.00060917437,0.0009021759,-0.00012207031,3.0517578e-05,0.00021362305
2019-07-01T19:42:16.299Z,-0.0040735668,-0.010284323,0.6635727,0.093322754,-0.19621277,9.8033905,31.259155,5.6106567,-36.798096,0.09786791,-0.19361362,9.804251,0.00096569955,-9.641051e-06,0.00043964386,-6.1035156e-05,3.0517578e-05,0.00010681152
2019-07-01T19:42:16.504Z,-0.0040737446,-0.010265355,0.6635615,0.102890015,-0.19381714,9.808182,30.859375,5.580139,-36.184692,0.09759025,-0.1933679,9.804257,-0.0006662011,0.0009544194,0.00045871735,-6.1035156e-05,-3.0517578e-05,9.1552734e-05
2019-07-01T19:42:16.709Z,-0.004074513,-0.010269318,0.6635643,0.093322754,-0.18424988,9.796219,30.412292,4.7576904,-37.46338,0.09763767,-0.19343112,9.804256,0.00023826212,7.4997544e-05,0.0018939972,-6.1035156e-05,9.1552734e-05,9.1552734e-05
2019-07-01T19:42:16.907Z,-0.004119201,-0.010235277,0.66356826,0.100494385,-0.1986084,9.796219,30.95398,5.9524536,-36.564636,0.09655565,-0.19364426,9.804263,-0.0022670403,-0.0004261583,0.00030708313,6.1035156e-05,-0.0001373291,0.00021362305
2019-07-01T19:42:17.110Z,-0.00414135,-0.010222138,0.66357243,0.093322754,-0.18902588,9.7986145,31.463623,4.5959473,-35.879517,0.09607354,-0.19379872,9.804263,-0.0008344799,-0.00028063357,-0.0009050369,-6.1035156e-05,3.0517578e-05,0.00033569336
2019-07-01T19:42:17.314Z,-0.004124163,-0.010206028,0.6635535,0.098098755,-0.18902588,9.805786,31.222534,4.5776367,-35.646057,0.09606584,-0.19333452,9.804274,-0.00011044741,0.0009353459,0.00019073486,-0.00018310547,-3.0517578e-05,0.00015258789
2019-07-01T19:42:17.514Z,-0.004082092,-0.010222961,0.6635408,0.090927124,-0.19381714,9.7986145,31.495667,5.406189,-36.395264,0.09686508,-0.19293597,9.804273,0.0014838576,0.0012582988,0.0004453659,0.0,9.1552734e-05,-7.6293945e-05
2019-07-01T19:42:17.718Z,-0.0040823137,-0.010227009,0.6635433,0.093322754,-0.18902588,9.800995,30.587769,4.7561646,-35.65979,0.09692093,-0.19299224,9.804272,0.00046677887,0.00012421608,-1.8119812e-05,-0.00018310547,9.1552734e-05,3.0517578e-05
2019-07-01T19:42:17.924Z,-0.0040618093,-0.010222819,0.6635297,0.095718384,-0.18902588,9.805786,31.40564,3.4347534,-36.793518,0.09712985,-0.19263513,9.804277,0.0009935945,0.0011949092,-0.00065135956,0.00012207031,-3.0517578e-05,-1.5258789e-05
2019-07-01T19:42:18.127Z,-0.0040273448,-0.010249975,0.66352713,0.098098755,-0.18424988,9.8033905,30.905151,4.6310425,-35.472107,0.09797742,-0.19248253,9.804272,0.001581721,7.849932e-05,-0.00027275085,-0.00012207031,9.1552734e-05,-7.6293945e-05
2019-07-01T19:42:18.328Z,-0.003997743,-0.010202185,0.6634826,0.098098755,-0.17945862,9.808182,31.233215,5.104065,-37.27722,0.09767304,-0.19142051,9.804296,-0.00050840527,0.0023559928,-0.00018024445,0.0,-9.1552734e-05,-0.0001373291
2019-07-01T19:42:18.526Z,-0.0039918437,-0.010189976,0.6634721,0.090927124,-0.18664551,9.8033905,32.45392,5.1742554,-35.95276,0.097573385,-0.19117372,9.804301,-0.0008965358,0.00091806054,-0.0006084442,0.0,-0.00019836426,3.0517578e-05
2019-07-01T19:42:18.735Z,-0.0040243147,-0.010190199,0.6634899,0.095718384,-0.21296692,9.800995,31.658936,5.5648804,-36.898804,0.09714954,-0.19165538,9.8042965,-0.000476256,-0.0005007535,0.0007047653,6.1035156e-05,-9.1552734e-05,0.00010681152
2019-07-01T19:42:18.937Z,-0.004049348,-0.010204837,0.6635122,0.095718384,-0.18902588,9.8033905,31.549072,4.977417,-37.242126,0.09703274,-0.19221602,9.804286,0.000126414,-0.00042369962,0.00047302246,-0.00012207031,0.00015258789,9.1552734e-05
2019-07-01T19:42:19.142Z,-0.0040612333,-0.01022669,0.66353166,0.100494385,-0.19142151,9.808182,31.672668,4.185486,-37.557983,0.09719362,-0.1926773,9.8042755,0.00043845177,-0.00092352927,-9.536743e-07,-6.1035156e-05,-3.0517578e-05,-0.0001373291
2019-07-01T19:42:19.339Z,-0.0040495256,-0.010245302,0.6635364,0.098098755,-0.18902588,9.7986145,30.581665,4.760742,-36.338806,0.0976178,-0.19274835,9.80427,0.0004896447,-0.00036877394,-0.00047969818,6.1035156e-05,-3.0517578e-05,3.0517578e-05
2019-07-01T19:42:19.554Z,-0.003958314,-0.010248579,0.66348886,0.102890015,-0.19381714,9.793823,32.164,4.2877197,-36.95221,0.098865174,-0.19144648,9.804282,0.0021337196,0.0031063408,-0.0014343262,-0.00012207031,-9.1552734e-05,9.1552734e-05
2019-07-01T19:42:19.749Z,-0.0039977147,-0.010259099,0.6635165,0.093322754,-0.19381714,9.7986145,31.332397,5.6243896,-37.704468,0.098499626,-0.19216512,9.804272,-0.0010891333,-0.0019227713,0.00047588348,0.0,3.0517578e-05,9.1552734e-05
2019-07-01T19:42:19.951Z,-0.004001918,-0.010277492,0.66352975,0.098098755,-0.19381714,9.805786,31.39038,4.812622,-36.05957,0.09871134,-0.1924679,9.804265,0.000107727945,-0.00063821673,0.0020780563,0.00012207031,-0.00015258789,-9.1552734e-05
2019-07-01T19:42:20.156Z,-0.003991435,-0.010262253,0.663515,0.093322754,-0.19381714,9.808182,30.931091,5.366516,-36.23047,0.098628014,-0.19211382,9.804272,0.0002034828,0.0014088601,0.00058460236,-0.00012207031,-3.0517578e-05,0.00021362305
2019-07-01T19:42:20.359Z,-0.004015226,-0.010285081,0.6635415,0.100494385,-0.17468262,9.808182,31.73523,5.117798,-34.954834,0.09864643,-0.19276345,9.804259,-0.00030367076,-0.00082454085,7.915497e-05,-0.00012207031,3.0517578e-05,0.00015258789
2019-07-01T19:42:20.560Z,-0.004079284,-0.010296054,0.66358286,0.093322754,-0.2033844,9.7986145,32.52716,5.105591,-36.120605,0.09796295,-0.19385149,9.804245,-0.0015151501,-0.0014242381,-0.0024957657,-0.00018310547,-9.1552734e-05,-1.5258789e-05
2019-07-01T19:42:20.760Z,-0.0040488183,-0.010268935,0.66355014,0.086135864,-0.18185425,9.800995,31.144714,4.876709,-37.01935,0.09797014,-0.1930473,9.80426,-9.2320144e-05,0.0011218488,0.0008869171,-0.00012207031,9.1552734e-05,-1.5258789e-05
2019-07-01T19:42:20.962Z,-0.0040307776,-0.01023691,0.66352123,0.08375549,-0.18424988,9.8033905,31.193542,5.819702,-35.923767,0.0977426,-0.1923621,9.804276,-0.0003470853,0.001630351,-0.0011672974,0.00012207031,-0.0001373291,9.1552734e-05
2019-07-01T19:42:21.165Z,-0.004034539,-0.010191493,0.6634962,0.093322754,-0.19621277,9.800995,30.374146,5.4733276,-36.109924,0.09703383,-0.19182304,9.804294,-0.0015440807,0.0013169199,-0.00029850006,-6.1035156e-05,0.00015258789,-7.6293945e-05
2019-07-01T19:42:21.372Z,-0.0040522832,-0.01023555,0.6635321,0.102890015,-0.20100403,9.8033905,31.333923,5.316162,-35.728455,0.09743995,-0.19266133,9.804273,0.0011641979,-0.0014337897,-0.00035095215,-0.00018310547,-3.0517578e-05,-1.5258789e-05
2019-07-01T19:42:21.568Z,-0.004042481,-0.010282546,0.6635548,0.098098755,-0.18185425,9.810577,30.49469,4.6844482,-36.8042,0.09825109,-0.19313209,9.804256,0.0012930557,-0.0011950731,0.0011997223,0.00018310547,-9.1552734e-05,9.1552734e-05
2019-07-01T19:42:21.775Z,-0.0042050453,-0.010085042,0.6635252,0.098098755,-0.22492981,9.7986145,31.733704,5.4229736,-36.628723,0.093245655,-0.19294319,9.804308,-0.0018375888,0.0036567748,0.0006313324,-0.00024414062,0.00022888184,0.00010681152
2019-07-01T19:42:21.978Z,-0.0040724524,-0.0102844415,0.6635722,0.06939697,-0.18664551,9.7986145,31.858826,4.6279907,-36.7218,0.097884275,-0.19359872,9.80425,0.0016704649,-0.0029010326,-0.002749443,-0.00012207031,-7.6293945e-05,9.1552734e-05
2019-07-01T19:42:22.177Z,-0.0063336054,-0.03475099,0.6125101,0.035888672,-1.696518,8.626129,31.858826,4.5532227,-36.358643,0.46213892,-0.5155711,9.782178,-0.27806848,-0.51973164,0.48904133,-0.29437256,-0.48394775,-1.4039307
2019-07-01T19:42:22.389Z,-0.017210038,-0.023592265,0.5399171,-0.48812866,0.7393799,8.327026,24.423218,13.487244,-39.671326,0.20700054,-0.53377885,9.789924,-1.1087312,1.1733727,1.8884735,0.3196106,0.9035797,0.05305481
2019-07-01T19:42:22.581Z,-0.0022515506,0.06918218,0.5484455,-0.16989136,2.2061768,7.759918,29.168701,11.538696,-38.978577,-1.154939,0.7073812,9.712678,0.36996233,-0.35004348,2.9563904e-05,0.8973694,-0.13233948,-0.0105896
2019-07-01T19:42:22.783Z,0.114149414,0.045799226,0.5316212,1.2729797,2.876175,8.248062,29.525757,1.6601562,-40.550232,0.43746105,2.3537047,9.509947,-0.67680633,-0.29321957,-1.6962976,0.24998474,-0.13398743,-0.5128479
2019-07-01T19:42:22.980Z,0.0996355,0.06352961,0.5066998,1.2610168,1.7491608,8.642868,25.871277,-1.9699097,-45.29419,-0.07390507,2.3002038,9.532784,1.4385937,0.28526115,-1.5957146,-0.101760864,-0.029830933,-0.03540039
2019-07-01T19:42:23.185Z,0.08115728,0.07283358,0.4704697,-1.5553284,3.8979034,10.564316,27.859497,-0.7507324,-44.825745,-0.5019995,2.0658994,9.573423,1.9964976,-0.26166415,-0.39658737,0.046066284,0.21714783,-0.8335571
2019-07-01T19:42:23.389Z,0.08168854,0.1226333,0.40048218,-2.411972,1.9381866,13.280167,32.88269,-1.4953613,-46.540833,-1.5336076,2.4122374,9.380807,-0.0074908733,1.2634113,0.17412376,0.0818634,0.5947876,-0.6144409
2019-07-01T19:42:23.591Z,0.036207326,0.15980296,0.42972332,-1.8735809,1.8376923,6.1136627,37.719727,-0.87280273,-38.383484,-2.4779644,1.9774532,9.280072,0.06347823,0.3506956,3.8112164,0.39083862,-0.117370605,-0.5559082
2019-07-01T19:42:23.794Z,0.06943323,0.14488913,0.34022203,-0.9403839,6.0179443,9.047256,32.42035,-0.869751,-37.182617,-2.1696162,2.2285728,9.300356,1.2647016,-1.0565529,-2.3507738,0.097076416,-0.46543884,-0.88316345
2019-07-01T19:42:23.997Z,0.13664693,0.10835351,0.27710655,-0.9451599,2.3569336,10.37767,27.784729,0.14648438,-38.900757,-1.265359,3.12127,9.210154,-0.26520312,2.1928616,0.07392597,0.35894775,-0.95388794,-0.33906555
2019-07-01T19:42:24.202Z,0.11069204,0.044352245,0.2319448,0.03111267,1.0935211,5.522629,16.738892,-0.36773682,-39.004517,-0.33622807,2.2976685,9.527752,-1.0254564,0.45228624,0.4217739,-0.25546265,-0.25675964,0.031188965
2019-07-01T19:42:24.402Z,0.07191881,0.04628207,0.2623216,0.20817566,1.6630096,9.9039,12.835693,3.956604,-37.738037,-0.50248665,1.5939323,9.663191,-1.0065635,-0.14050198,-2.361887,-0.66534424,0.36924744,0.64993286
2019-07-01T19:42:24.605Z,0.055523228,0.03337149,0.36341128,0.114852905,0.8901367,8.169098,15.307617,8.395386,-34.443665,-0.21254586,1.2499441,9.724343,-0.36249036,0.431314,-0.14903545,0.10942078,0.056915283,0.8481598
2019-07-01T19:42:24.808Z,0.04528864,0.058846492,0.39199403,-0.7728882,-0.095718384,10.674377,18.452454,8.763123,-35.858154,-0.71014583,1.2669333,9.6985035,0.01218015,-0.23923862,1.3434229,-0.31080627,0.16589355,0.24072266
2019-07-01T19:42:25.010Z,0.023362372,0.055340398,0.43025526,0.2632141,0.112457275,8.934799,22.225952,10.246277,-35.029602,-0.78048515,0.879718,9.735878,-1.4559844,-0.3549773,0.1726942,0.26689148,0.11054993,0.38946533
2019-07-01T19:42:25.213Z,0.07222739,0.065027304,0.44823536,-1.5337982,0.45703125,9.671783,23.51532,6.993103,-36.802673,-0.49836376,1.8305094,9.621396,0.66959625,-1.7439625,-0.3730011,0.019378662,-0.031967163,-0.5584259
2019-07-01T19:42:25.417Z,0.00943857,0.05707303,0.37277338,-1.3830566,1.6701965,8.516052,23.49701,12.094116,-36.972046,-0.9676788,0.58872324,9.741016,-0.08975136,-0.55416834,0.17516613,-0.63912964,0.05116272,-0.5223236
2019-07-01T19:42:25.622Z,-0.009824872,0.047741063,0.3464158,-1.6438751,1.8927155,11.676971,22.380066,15.95459,-36.668396,-0.9439486,0.14384748,9.760055,0.040964723,0.8002072,-1.034936,-0.077941895,0.25160217,-0.3549347
2019-07-01T19:42:25.826Z,-0.01515012,0.108079195,0.31635168,-3.270996,-1.208374,19.02533,24.80011,15.431213,-33.174133,-2.0915718,0.3905875,9.573044,0.1784277,1.8221143,0.63415337,0.29182434,0.78097534,-0.17253113
2019-07-01T19:42:26.039Z,0.053283855,0.17022434,0.29676473,-0.38046265,0.055038452,0.5742798,28.900146,11.390686,-31.370544,-2.822006,1.9712256,9.182643,0.70289993,-1.8926909,6.470584,1.7670135,0.0020599365,-0.63056946
2019-07-01T19:42:26.245Z,0.099761434,0.07772349,0.15193251,-4.4195404,-3.4169464,7.664215,19.729614,8.862305,-37.77771,-1.1970538,2.1496482,9.492969,0.11015546,-3.2743118,-3.6938295,-0.7930145,-0.4643402,-1.5680084
2019-07-01T19:42:26.444Z,0.021356702,0.1931067,0.08939047,4.2927246,-2.3736877,11.432907,20.141602,15.481567,-32.2937,-3.662389,0.74774706,9.06632,-0.4759364,0.11748308,-2.4904032,-0.38513184,-0.63783264,-0.29507446
2019-07-01T19:42:26.647Z,-0.021999478,0.02918072,0.055257708,-0.3900299,0.7992096,7.451248,8.685303,20.335388,-32.79724,-0.5949156,-0.3989088,9.780457,1.0862241,0.45685294,1.6169662,-0.33865356,-0.7444916,-0.43484497
2019-07-01T19:42:26.850Z,-0.025147116,0.027472477,-0.00041732792,-0.21534729,3.5844421,12.086151,6.465149,23.036194,-33.592224,-0.5382463,-0.49310058,9.779445,0.15853566,1.2565994,-0.3748455,0.40153503,-0.097335815,-0.5561676
2019-07-01T19:42:27.051Z,0.072331235,-0.046044078,-0.060353685,0.5383911,0.25125122,5.601593,-1.5457153,15.699768,-39.437866,0.8124772,1.465338,9.662456,-1.657813,0.16626108,1.4432993,0.8543091,-0.57380676,0.12812805
2019-07-01T19:42:27.250Z,0.059318315,-0.042161167,0.034894954,0.8494568,1.4883423,7.199997,-0.9918213,13.465881,-38.182068,0.86481977,1.1307772,9.702774,-0.63635254,-0.7162428,-0.44798374,-0.16418457,-0.055236816,0.9082794
2019-07-01T19:42:27.453Z,0.057342574,0.02163404,0.36619005,0.15553284,0.055038452,9.126221,2.822876,14.152527,-37.74414,0.01786083,1.1996648,9.73298,0.31690904,-0.03338778,-0.13641071,0.060302734,0.5624695,0.2168274
2019-07-01T19:42:27.659Z,0.064530894,0.017823642,0.37273073,0.24645996,-0.90448,11.162521,3.6849976,15.376282,-37.454224,0.14820762,1.3016983,9.718745,-0.058835223,-0.88250136,-0.5593729,-0.27249146,-0.1897583,0.29776
2019-07-01T19:42:27.882Z,0.03186721,-0.027539024,0.397096,-0.098098755,-0.38523865,9.578476,2.708435,18.200684,-34.04541,0.7433911,0.35854176,9.771857,-0.7572282,-0.60284287,0.7043114,-0.34085083,0.19648743,0.17456055
2019-07-01T19:42:28.061Z,0.0113737555,-0.029497722,0.40077695,0.44984436,-0.71784973,7.865204,3.8665771,20.832825,-34.613037,0.6191397,-0.027612686,9.787046,0.051225126,-0.16820806,-0.42033958,0.003616333,-0.21302795,-0.0008239746
2019-07-01T19:42:28.254Z,0.021335933,-0.024157263,0.38095087,1.1652985,-3.0197449,10.107285,1.6189575,22.795105,-34.498596,0.59722614,0.20618254,9.786276,0.783059,-0.6219964,-0.1920042,-0.111968994,0.35714722,-0.4233551
2019-07-01T19:42:28.455Z,0.0010447965,-0.043060906,0.37006822,0.9690857,-1.2059784,11.011765,-1.03302,24.507141,-33.589172,0.79134583,-0.29353064,9.770262,1.3090053,-3.2307334,0.15759373,-0.35594177,-0.4461975,-0.20063782
2019-07-01T19:42:28.666Z,-0.034248862,-0.016654689,0.35904008,-3.6394806,1.1006927,11.406586,3.0899048,24.775696,-32.647705,0.0634398,-0.743703,9.778204,1.2653807,-1.3574853,0.027319908,0.15730286,1.0798645,-0.0018005371
2019-07-01T19:42:28.917Z,0.012734141,0.1185784,0.4166382,0.37088013,7.1904297,-5.5082703,12.310791,14.134216,-38.589478,-1.9919107,1.1940675,9.527691,-0.43663096,-1.0180571,1.5834703,2.7470856,0.18360901,1.7005615
2019-07-01T19:42:29.113Z,0.58492833,0.56868273,0.37643027,-0.1986084,9.623932,-2.2612152,22.32666,-42.32483,-4.737854,-0.57842785,9.2354765,-3.2468097,2.236652,-2.0480843,0.98068094,1.8495331,2.9083862,-0.99476624
2019-07-01T19:42:29.318Z,0.4923389,0.71224916,0.43354738,-1.0791626,8.726624,-4.400406,25.738525,-39.24408,12.664795,0.6985811,8.467474,-4.897372,-0.94207954,1.3395987,0.7129321,1.0868073,1.2268524,-0.5867615
2019-07-01T19:42:29.484Z,0.3961283,0.8015148,0.4039142,-1.9333954,8.346161,-5.3694916,31.15387,-32.598877,19.760132,0.09353683,7.8544025,-5.871115,-0.95177054,1.2749443,0.55197954,0.640625,-0.3087616,-0.870697
2019-07-01T19:42:29.685Z,0.41053268,0.828692,0.27952445,-1.7850494,6.582657,-7.3220367,37.895203,-27.409363,19.558716,-1.9437594,6.6211486,-6.967969,-0.55035496,2.0533519,1.156353,0.7047119,-0.5444336,-0.04046631
2019-07-01T19:42:29.887Z,0.41088757,0.8209156,0.2953033,-1.1820526,6.9750824,-6.386444,34.747314,-29.51355,19.636536,-1.882058,6.8878026,-6.722085,-0.1484747,-0.07798338,-1.1409626,-0.43914795,0.2648468,0.14859009
2019-07-01T19:42:30.088Z,0.40939313,0.8119001,0.34021032,-0.59580994,7.4488525,-6.422333,33.166504,-30.941772,20.996094,-1.085801,7.3424807,-6.409322,-0.10291791,-0.24811363,-0.06918621,-0.18948364,0.2071228,0.1613617
2019-07-01T19:42:30.291Z,0.41278762,0.80947995,0.34939408,-1.421341,7.680954,-7.755142,26.368713,-32.51648,24.655151,-0.8011453,7.3982105,-6.3870993,0.113970995,0.103196144,0.019911766,-0.15734863,1.6921539,0.028442383
2019-07-01T19:42:30.534Z,-0.1178113,-0.75069845,-0.60744804,4.0175476,9.245865,6.920044,-18.377686,-41.893005,13.934326,4.811727,8.409012,-1.5186117,-4.423605,-0.62701416,-5.7457767,-2.0528717,9.606216,-0.049575806
2019-07-01T19:42:30.728Z,0.11578093,-0.4844891,-0.6318991,0.22013855,4.1730804,9.221939,-30.26123,-31.866455,-8.380127,4.2073584,7.3529487,4.939905,-1.3094246,1.2203703,0.21578407,-0.11911011,2.4243317,2.196045
2019-07-01T19:42:30.931Z,0.23290496,-0.1338343,-0.50830334,1.9669037,2.7493591,7.5469666,-22.532654,-26.0849,-29.795837,-0.17419538,5.071884,8.391426,1.0966752,0.20535612,-0.8532152,-0.6111603,2.311264,0.3493805
2019-07-01T19:42:31.132Z,0.29284388,-0.21001767,-0.48833743,-0.89730835,5.2043915,9.303299,-23.472595,-29.516602,-27.662659,0.4689424,6.5764065,7.259569,-0.7547978,-1.4621181,1.3284163,0.23074341,-0.0309906,-0.21798706
2019-07-01T19:42:31.336Z,0.33305365,-0.1932013,-0.49350458,-0.48095703,7.1401825,6.644867,-22.692871,-32.411194,-24.404907,-0.2685265,6.9643936,6.898949,-0.5221057,-0.52614975,1.812263,0.95596313,-0.1546936,-0.018966675
2019-07-01T19:42:31.531Z,0.13732086,-0.41543955,-0.8583023,-0.6077728,7.7862396,5.0488586,-22.41211,-34.025574,-20.443726,-0.12727557,7.715608,6.051742,-0.33223772,-0.28102064,1.0953274,0.50819397,-0.023971558,-0.06562805
2019-07-01T19:42:31.741Z,0.15866439,-0.43214208,-0.8462176,-0.933197,7.3651123,6.3098755,-20.553589,-33.447266,-22.7417,-0.35917822,8.007301,5.6501765,-0.20345387,0.039530277,0.34580803,-0.2267456,0.31414795,0.011703491
2019-07-01T19:42:31.943Z,0.19325516,-0.369466,-0.8578829,-3.7782745,6.4295197,7.697708,-12.359619,-30.13153,-32.51953,-1.0755366,7.3548784,6.3968253,-0.19546103,0.5028343,-0.055799007,-0.7810974,1.2960052,-0.08633423
2019-07-01T19:42:32.146Z,0.3948384,-0.23858261,-0.78407574,-4.967499,5.1972046,8.752945,1.0803223,-26.771545,-40.46631,-4.1289787,6.8844833,5.632567,0.022341251,0.5713606,0.42496014,-0.41893005,2.6074219,0.97283936
2019-07-01T19:42:32.385Z,0.39723295,-0.2540121,-0.73291254,-3.3954163,7.4560394,6.6927185,-6.9625854,-24.899292,-40.512085,-3.2668204,7.4723573,5.4462967,-1.8920686,-1.7808542,3.4486341,-0.18063354,-0.40252686,0.7612915
2019-07-01T19:42:32.554Z,0.3493719,-0.2575769,-0.7367344,-4.9340057,8.6237335,3.7782745,-5.378723,-21.574402,-41.864014,-2.429053,7.274695,6.1113753,-0.69772553,0.35082054,-1.3731508,0.011184692,-0.036605835,-0.012008667
2019-07-01T19:42:32.757Z,0.35386497,-0.18882973,-0.7002128,-1.5888367,-0.028717041,7.298111,-10.4599,1.0910034,-47.157288,-2.672416,6.6924233,6.6513195,-1.4590075,2.1198773,-2.0620189,-2.3579407,0.029724121,-0.036376953
2019-07-01T19:42:32.959Z,0.057696797,0.07521368,-0.78944606,-0.34934998,-2.7756805,8.874985,-20.480347,20.86029,-40.60669,-1.7879937,-0.4783013,9.630405,-0.6447625,2.135508,-1.7636862,-2.9236755,-0.9812622,-0.940094
2019-07-01T19:42:33.157Z,-0.03180491,0.11830431,-0.7902559,-0.49531555,-2.675171,9.298508,-24.255371,24.079895,-36.92627,-0.90018535,-2.208194,9.512304,-0.12991899,-0.7343445,1.7082644,-0.36688232,-0.24223328,-0.058792114
2019-07-01T19:42:33.364Z,-0.07923343,0.1167439,-0.78877443,0.99302673,-3.7184448,9.336792,-30.149841,24.447632,-31.552124,-0.14410174,-2.735813,9.416206,-0.8974362,0.24477744,0.53858757,-0.31556702,-0.6620178,-0.29953003
2019-07-01T19:42:33.561Z,-0.1423545,0.10512711,-0.8000741,1.0959167,-3.4719849,9.281754,-32.051086,23.072815,-30.392456,1.0519528,-3.2500792,9.1924305,-0.60528195,-0.32872605,0.5123215,-0.17939758,-0.26708984,-0.25842285
2019-07-01T19:42:33.764Z,-0.16429155,0.10512246,-0.80267864,1.3304138,-3.5844421,8.748154,-31.034851,24.235535,-30.577087,1.4244053,-3.4711056,9.060513,-0.43629384,-0.096488714,0.46160126,-0.043304443,-0.08694458,0.0012512207
2019-07-01T19:42:33.971Z,-0.14923726,0.10334909,-0.78957856,0.19381714,-2.9120636,9.317657,-26.22528,26.182556,-33.5495,1.1229173,-3.3162732,9.160337,-0.20705163,-0.26488876,0.3546028,0.35650635,0.13729858,0.5804138
2019-07-01T19:42:34.171Z,-0.11369444,0.0839503,-0.7542932,0.8518524,-2.3593292,9.1453705,-24.603271,26.81427,-35.298157,0.6263423,-2.6716814,9.414893,0.003624916,-0.6810105,0.3272686,0.41796875,-0.068984985,0.733078
2019-07-01T19:42:34.371Z,-0.09638873,0.062037833,-0.72262967,0.07896423,-2.1918182,10.064209,-24.223328,27.848816,-33.821106,0.5367051,-2.1679597,9.548942,0.15720576,-0.4907725,0.12848568,0.08918762,-0.0435791,0.25909424
2019-07-01T19:42:34.589Z,-0.08725338,0.05536299,-0.7082919,0.0382843,-1.557724,9.633499,-20.669556,26.867676,-36.80725,0.45385244,-1.9641452,9.597216,-0.2445831,-0.31536496,0.4617138,0.32585144,0.005783081,0.3939209
2019-07-01T19:42:34.824Z,0.052008007,-0.039212342,-0.5689286,2.5914307,2.3377838,7.692932,-12.794495,20.741272,-44.343567,0.05016249,1.2737931,9.723442,-1.347921,-2.1941137,1.7419815,2.5694427,-0.6890869,2.52182
2019-07-01T19:42:34.994Z,0.1705046,-0.35870406,-0.41540653,9.623932,7.133011,0.23928833,-20.594788,-1.28479,-43.676758,4.3682117,5.659231,6.71284,-2.353476,-3.933053,2.1311154,2.9174042,-2.4221191,0.9205475
2019-07-01T19:42:35.189Z,0.24352725,-0.58553886,-0.40709314,4.5966187,9.233902,-3.4552307,-35.794067,-19.132996,-25.242615,5.604851,7.814966,1.9189397,0.04815674,-1.5809441,1.0969511,1.3409271,-1.6358643,-1.1244507
2019-07-01T19:42:35.392Z,0.5777982,-0.4128579,-0.069943346,3.8955078,8.640488,1.3375854,-36.9812,-26.072693,-14.675903,4.8802757,8.505654,-0.08438381,-0.75771046,1.164506,-1.9155877,-0.8137207,-0.3076477,-0.24113464
2019-07-01T19:42:35.594Z,0.5193632,-0.38712826,-0.14648812,3.2662048,9.274582,2.251648,-35.96344,-26.124573,-18.203735,4.184381,8.727835,1.5767826,0.19470167,0.16954899,-0.8662088,-0.52349854,-0.018829346,-0.38597107
2019-07-01T19:42:35.849Z,0.5238135,-0.38026,-0.17878078,2.7182465,8.441879,4.7736816,-35.51941,-26.663208,-19.992065,3.6896398,8.946043,1.5891047,-0.2341981,0.652236,0.732759,0.13110352,-0.57307434,0.36668396
2019-07-01T19:42:36.051Z,0.41369808,-0.6887175,-0.15344413,2.3162537,-0.2033844,-18.611374,-39.492798,-23.498535,-11.029053,6.526204,6.7407513,-2.853301,-3.7402158,2.3921642,5.228157,3.2457428,-5.9322357,3.0450287
2019-07-01T19:42:36.192Z,0.29071146,-0.94023573,0.036138948,0.447464,5.36232,-3.1058807,-28.62091,12.593079,34.310913,3.4074714,0.32340226,-9.189937,0.31654763,-0.16667289,-3.3939056,-0.97132874,-0.16244507,1.7937317
2019-07-01T19:42:36.353Z,0.11783029,-0.9864737,-0.08837787,-0.83509827,-0.8111725,-9.609573,-16.281128,17.433167,42.263794,1.1876061,1.8761865,-9.551958,0.52859986,1.1148869,3.8834887,1.4908447,-2.9249878,1.8305054
2019-07-01T19:42:36.696Z,0.0015880818,0.99322826,-0.074020274,-2.4358978,-3.1298065,-14.938385,12.071228,29.693604,39.144897,-1.7464496,-1.439162,-9.5419655,1.4415379,1.9813223,-0.9703684,0.7610321,-0.49757385,-0.056900024
2019-07-01T19:42:36.861Z,0.11333813,-0.9888352,0.030503733,6.65683,1.8759766,5.2139587,11.636353,33.721924,32.96051,1.8483872,-0.3875131,-9.623081,-3.7593744,-2.3605042,-3.579729,-2.0076141,6.887726,-3.0261536
2019-07-01T19:42:37.066Z,0.23615724,-0.61778563,-0.19239782,8.410767,3.8931274,6.1902313,-43.48755,11.714172,10.879517,7.892943,5.6890926,1.227218,-6.1355214,-3.4123077,-4.7394705,-2.30896,3.1320343,-0.5740051
2019-07-01T19:42:37.194Z,0.16675396,-0.5237443,-0.22105555,6.726227,4.778473,4.216156,-46.847534,7.9849243,-13.648987,7.5526047,4.90561,3.8811784,2.7670789,0.009009838,2.8779907,0.04258728,0.5261841,-0.37950134
2019-07-01T19:42:37.403Z,0.30819282,-0.46061558,-0.26119033,5.860016,7.195221,4.515259,-44.129944,3.0303955,-18.997192,5.5612297,7.136966,3.7824342,1.3668933,0.69830465,1.3610013,0.66804504,0.36827087,-0.8374634
2019-07-01T19:42:37.604Z,0.30525035,-0.4018568,-0.32046732,3.4145508,7.6713867,5.6111755,-43.229675,-6.790161,-23.452759,4.3997254,7.3252587,4.811796,1.2160497,0.7515693,0.45562267,-0.035598755,0.30064392,-0.29995728
2019-07-01T19:42:37.809Z,0.26720282,-0.35623473,-0.39005935,6.24527,8.535202,6.0681915,-41.651917,-9.155273,-24.450684,3.5869186,6.9490795,5.9173226,1.7791348,0.43497467,0.21977091,-0.9249115,-0.7188873,-0.77388
2019-07-01T19:42:38.015Z,0.31500527,-0.36430705,-0.3827626,2.3234253,6.7286224,5.36232,-42.060852,-9.786987,-21.920776,3.2683716,7.6057897,5.2573857,0.68029594,0.19488716,1.9625654,0.09158325,0.7539673,-0.38102722
2019-07-01T19:42:38.220Z,0.33116543,-0.39265004,-0.39833644,3.7375946,8.243271,5.0536346,-38.095093,-14.241028,-24.423218,3.2649999,8.003544,4.631787,0.3934877,0.76979446,1.3703241,0.38008118,0.1151886,-0.21664429
2019-07-01T19:42:38.425Z,0.35397485,-0.36233544,-0.38992745,3.2662048,7.771881,4.8717804,-38.893127,-18.174744,-22.323608,2.7579026,8.109974,4.774168,0.8247075,0.55938435,0.6116705,0.15168762,-0.110839844,-0.11364746
2019-07-01T19:42:38.630Z,0.36280447,-0.3419075,-0.390257,2.388031,7.984848,5.0488586,-37.56256,-18.728638,-24.00055,2.41382,8.125102,4.9322,0.4259584,0.7494993,0.74925613,0.086257935,0.43437195,-0.138443
2019-07-01T19:42:38.835Z,0.38247612,-0.29167968,-0.39671436,1.6486511,8.027924,6.317047,-35.42328,-18.925476,-27.07367,1.496674,8.134488,5.2688184,0.7655529,0.47643852,0.7683382,-0.17860413,0.3018036,-0.14334106
2019-07-01T19:42:39.041Z,0.37392518,-0.27192634,-0.40564406,2.2253265,8.874985,6.8697968,-31.886292,-21.940613,-31.079102,1.2302622,7.946035,5.614033,0.7906604,0.8301487,0.86206436,-0.0712738,0.3815918,-0.10131836
2019-07-01T19:42:39.245Z,0.32833743,-0.28789532,-0.44787383,1.4165497,7.602005,5.75235,-30.1651,-20.864868,-32.89337,1.5212784,7.5533032,6.0666056,-0.30568743,0.95628786,0.46171427,-0.11721802,-0.30178833,-0.33093262
2019-07-01T19:42:39.450Z,0.2291984,-0.29924148,-0.5800909,1.0648041,7.211975,8.877365,-31.671143,-21.089172,-31.832886,1.6303368,6.650667,7.0200443,-0.53077567,0.4622059,0.9180565,-0.8308258,-0.3655548,-0.2524414
2019-07-01T19:42:39.654Z,0.23753892,-0.34469777,-0.58320004,1.7850494,6.611374,7.0372925,-33.60443,-17.5766,-31.115723,1.9894065,7.1861653,6.3695903,0.10643911,0.09362459,1.3883967,-0.1574707,-0.5428314,-0.13819885
2019-07-01T19:42:39.860Z,0.16152324,-0.4624061,-0.6036894,3.4791565,7.0947266,5.242676,-36.18927,-20.480347,-26.615906,3.7921703,7.467743,5.1012397,-0.8350582,0.2917385,1.8089695,0.41233826,-0.8170471,-0.044006348
2019-07-01T19:42:40.065Z,0.14290965,-0.5053733,-0.61871266,4.340576,7.578064,3.8548431,-40.812683,-21.913147,-13.201904,4.0570807,7.7703667,4.3968053,0.6804192,0.06356287,-0.0017328262,0.291214,-1.3391113,-0.08818054
2019-07-01T19:42:40.270Z,0.13378459,-0.50419205,-0.6284353,4.1036835,7.800598,4.347763,-41.53595,-23.10791,-6.2423706,4.0571656,7.7286115,4.4697156,0.38851786,0.6363206,0.20151854,-0.084228516,-0.31352234,-0.14199829
2019-07-01T19:42:40.442Z,0.105467804,-0.47961104,-0.63770264,2.4406738,8.786438,4.5702972,-41.307068,-23.61145,-5.2963257,4.263323,7.2263103,5.0768986,0.21642947,0.77974653,-0.14137983,-0.44561768,0.3040619,0.3534851
2019-07-01T19:42:40.653Z,0.18091507,-0.42760268,-0.64421415,7.4392853,5.1349945,7.154541,-43.406677,-21.24176,-9.333801,2.8114953,7.559492,5.578526,2.7871633,-0.9271903,0.24654198,0.65437317,1.2625885,-1.1242676
2019-07-01T19:42:40.885Z,0.27034456,-0.38970864,-0.6441307,1.2227325,9.43251,4.450653,-37.483215,-26.419067,-14.710999,1.1715481,8.105409,5.3944616,-0.7503513,1.0769215,0.107923985,-0.20988464,0.35635376,0.17572021
2019-07-01T19:42:41.063Z,0.27540767,-0.36943027,-0.6252776,1.4285126,7.733597,5.900696,-30.757141,-29.792786,-20.27893,1.186137,7.932786,5.642195,0.19583535,0.43309498,0.8452339,-0.046905518,0.20584106,0.16044617
2019-07-01T19:42:41.253Z,0.2777979,-0.3596212,-0.6186179,1.2801666,7.5302124,5.745163,-32.156372,-28.189087,-22.988892,1.1502671,7.855554,5.7565217,0.25140727,0.24195623,0.3553772,-0.048675537,0.19728088,0.04425049
2019-07-01T19:42:41.472Z,0.28395754,-0.34744826,-0.61356795,1.0480499,7.628311,6.295517,-31.376648,-26.817322,-23.724365,1.0106568,7.799937,5.8574696,0.17680293,0.3406067,0.5970731,-0.07322693,0.12660217,0.030822754
2019-07-01T19:42:41.669Z,0.25608692,-0.33448943,-0.617361,1.0935211,7.010971,7.463211,-31.938171,-26.55487,-24.931335,1.2578062,7.387152,6.3260016,-0.3127637,0.70164585,0.102770805,-0.18692017,0.07536316,0.16337585
2019-07-01T19:42:41.858Z,0.27567124,-0.3185752,-0.6036612,0.74417114,7.228714,6.632904,-31.243896,-25.11139,-26.553345,0.96519935,7.4314013,6.3255877,0.4221567,-0.023330688,0.6532717,0.0019073486,0.1108551,-0.07040405
2019-07-01T19:42:42.064Z,0.28366208,-0.32270175,-0.6129584,0.38046265,7.7144623,5.991623,-30.326843,-26.139832,-27.026367,0.78660303,7.56867,6.1860237,0.2843061,0.079102516,0.80517006,0.10977173,0.050567627,-0.06893921
2019-07-01T19:42:42.266Z,0.3033838,-0.31800017,-0.6061891,0.55513,7.479965,6.386444,-30.201721,-27.008057,-26.83258,0.52717024,7.7250104,6.01803,0.071637034,0.29023838,0.27337694,0.07319641,0.079696655,-0.052017212
2019-07-01T19:42:42.471Z,0.30373144,-0.31680307,-0.6090879,0.36849976,7.726425,6.06102,-28.639221,-26.325989,-26.078796,0.4762423,7.719923,6.0287957,0.1560967,0.1394906,0.5538726,0.036224365,0.034118652,-0.030441284
2019-07-01T19:42:42.676Z,0.30848432,-0.31492668,-0.6076197,1.4452667,6.037094,1.0648041,-28.775024,-25.828552,-25.819397,0.4043246,7.7503023,5.9949737,0.057390332,0.22771072,0.37037182,0.03616333,0.09301758,-0.021774292
2019-07-01T19:42:42.881Z,0.3582585,-0.26838124,-0.58427393,-6.0107727,6.072983,7.171295,-14.151001,-26.004028,-37.3291,-0.54217774,7.8321257,5.8765836,1.287952,-0.4190569,-1.4163451,-0.24220276,2.8487701,-0.48408508
2019-07-01T19:42:43.086Z,0.471331,0.023904238,-0.5459056,-8.956329,3.172882,4.113266,4.5654297,-19.093323,-42.64984,-5.371119,6.1438146,5.438291,1.2547145,-0.14259815,0.060693264,-0.5759125,1.168747,-1.3054504
2019-07-01T19:42:43.283Z,0.50576115,0.18884186,-0.56935817,-11.124237,4.967499,5.4293213,18.217468,-14.326477,-41.93573,-7.944122,4.04119,4.090244,0.53982115,0.5900359,1.6004035,-0.5216675,1.0730896,-0.79385376
2019-07-01T19:42:43.486Z,0.53619605,0.1466199,-0.66812587,-9.63829,3.9649048,4.2927246,19.05365,-11.793518,-41.757202,-8.448645,3.279903,3.7460704,-2.3596487,1.9382095,1.1647818,-0.14476013,0.2069397,-0.12812805
2019-07-01T19:42:43.710Z,0.5391609,0.14224365,-0.66418195,-8.264816,3.0771637,3.4097748,17.993164,-12.234497,-41.122437,-8.412702,3.412496,3.708331,-0.16126633,-0.4771421,0.24971962,0.013198853,0.034973145,-0.03692627
2019-07-01T19:42:43.900Z,0.5516023,0.15152065,-0.648939,-9.202789,5.1302185,3.550949,20.285034,-11.659241,-39.361572,-8.511522,3.4987113,3.3887153,-0.069898605,-0.28524375,0.1938343,0.061767578,0.26893616,0.06967163
2019-07-01T19:42:44.109Z,0.59453624,0.15892942,-0.62014127,-14.330612,0.550354,-3.7519531,36.1557,-13.928223,-24.08905,-8.747872,3.7400546,2.378467,-0.36755753,0.5902686,1.3024404,0.41992188,2.163437,-0.18878174
2019-07-01T19:42:44.330Z,0.8262244,0.33574393,-0.3583191,2.2301178,-2.009964,-10.1479645,33.79059,-16.300964,26.193237,-7.624753,2.1148117,-5.7931933,-4.331782,1.9991035,5.4566474,0.98802185,6.484665,-0.054641724
2019-07-01T19:42:44.507Z,0.8657052,0.42433316,0.01860107,-1.935791,7.475174,-1.9932251,32.922363,-29.80194,11.39679,-1.8884689,4.6519265,-8.423993,-0.03861177,-5.840918,-1.1200724,-3.8187256,-0.17442322,-0.38139343
2019-07-01T19:42:44.709Z,0.78334135,0.40921432,0.10997156,-1.1581268,7.9657135,-6.2404785,33.02002,-31.106567,10.975647,-1.9605026,7.8698573,-5.5129075,0.67642045,-1.6376767,2.210876,-0.33895874,0.50968933,0.034301758
2019-07-01T19:42:44.912Z,0.7786319,0.42464927,0.14021733,-1.3974152,8.250458,-4.199402,32.577515,-32.081604,11.097717,-1.5246927,7.889823,-5.621067,0.21467471,0.4375267,0.09474182,-0.2434845,0.22953796,-0.03942871
2019-07-01T19:42:45.115Z,0.76572126,0.42622235,0.14572386,-1.174881,8.128418,-5.8504486,32.49054,-32.99408,9.681702,-1.6493516,8.113063,-5.256258,0.5504894,0.5525532,0.18892431,0.05192566,-0.20417786,-0.018478394
2019-07-01T19:42:45.325Z,0.7758736,0.4180178,0.13676727,-0.83270264,7.9585266,-4.8957214,33.187866,-32.162476,11.938477,-1.6270342,8.004175,-5.4273677,0.15041482,0.60948324,-0.19638109,0.044540405,-0.09060669,0.05909729
2019-07-01T19:42:45.571Z,0.78818583,0.41312245,0.12609556,-3.4815521,4.6779633,-9.276978,33.280945,-25.871277,19.181824,-1.6029035,7.798876,-5.7252607,0.22153234,0.8095546,0.5206332,1.1214447,-0.2619629,-0.23277283
2019-07-01T19:42:45.730Z,0.85362166,0.44053417,-0.013577561,-2.3856506,1.9501495,-9.872787,34.454346,-15.135193,26.678467,-2.6260862,4.530767,-8.291333,0.79091835,1.830822,1.9242496,2.3791656,-0.19055176,-0.12672424
2019-07-01T19:42:45.935Z,0.886302,0.4292997,-0.08073649,-2.3377838,1.2035828,-9.547363,36.904907,-11.053467,29.071045,-2.6983984,1.9936236,-9.214907,0.0009448528,0.8900142,-1.0957794,0.8475342,-0.023117065,0.012863159
2019-07-01T19:42:46.131Z,0.8910621,0.43227997,-0.10546183,-1.3399811,-1.8113708,-10.17189,34.599304,-3.6483765,32.032776,-2.602413,0.67098206,-9.431205,0.18697548,0.817331,-0.35200882,0.8913269,0.10784912,-0.12310791
2019-07-01T19:42:46.335Z,-0.8911163,-0.4329975,0.1328103,-0.8829498,-3.3882294,-10.334595,33.520508,2.684021,33.442688,-2.0830843,-1.6179856,-9.445277,0.07702017,1.0189846,-0.5014467,1.071106,0.32606506,-0.2339325
2019-07-01T19:42:46.538Z,-0.88646096,-0.42899293,0.1462022,-1.1581268,-2.691925,-8.171494,32.348633,5.227661,33.781433,-1.7536658,-2.8589983,-9.215268,-0.07049811,0.11726284,-1.0670815,0.4419098,0.08207703,-0.010650635
2019-07-01T19:42:46.751Z,-0.879165,-0.43173924,0.15751275,-2.4023895,-3.9457703,-9.614365,34.431458,5.6869507,30.014038,-1.6496394,-3.505347,-9.008975,0.22776413,0.6039374,0.023475647,0.4356842,-0.30252075,-0.012802124
2019-07-01T19:42:46.972Z,-0.8739126,-0.4245265,0.20202188,-2.8713837,-3.012558,-8.396408,35.879517,5.786133,29.672241,-2.4347827,-3.798171,-8.707244,0.5462642,0.1299491,-0.90385246,-0.08227539,-0.20783997,0.17303467
2019-07-01T19:42:47.145Z,-0.8773874,-0.4173136,0.20715114,-3.0149536,-3.4624176,-9.142975,36.25946,3.5568237,28.97644,-2.626909,-3.6672945,-8.707507,0.41270804,-0.3096497,-0.33415318,0.03567505,-0.07148743,0.13528442
2019-07-01T19:42:47.351Z,-0.8883827,-0.39274943,0.21604668,-2.9431763,-3.0867462,-8.690735,36.654663,1.6921997,28.355408,-2.9999914,-3.393343,-8.698027,0.1151247,-0.40705538,-0.5597315,-0.21928406,-0.09806824,0.34779358
2019-07-01T19:42:47.545Z,-0.8697397,-0.43670985,0.21844496,-3.3762665,-2.7708893,-8.554337,37.486267,0.6637573,27.204895,-3.1135058,-3.0915475,-8.770336,0.3631556,-0.35559654,-0.19746304,-0.20732117,-0.1510315,-0.012374878
2019-07-01T19:42:47.773Z,-0.86450535,-0.4493755,0.2236464,-3.5102692,-2.3066864,-9.119049,37.23755,0.4989624,27.256775,-3.5632117,-2.4115021,-8.812409,0.20723271,-0.5638957,-0.42181492,-0.18624878,-0.049865723,-0.04815674
2019-07-01T19:42:47.948Z,-0.8626505,-0.45935515,0.20854695,-3.151352,-2.273178,-8.5902405,36.75537,0.38909912,28.009033,-3.1992984,-2.4971147,-8.927446,-0.16878295,-0.02300644,-0.27661228,-0.14624023,0.17419434,-0.11859131
2019-07-01T19:42:48.157Z,-0.8633038,-0.46380186,0.19306101,-2.7517395,-3.036499,-9.631119,37.034607,-2.6626587,29.266357,-2.8306186,-2.572118,-9.030072,-0.20093632,0.13812017,-0.086351395,0.2950592,0.17272949,0.20663452
2019-07-01T19:42:48.362Z,-0.8862215,-0.41809717,0.19476381,-4.4315033,0.8805542,-8.841476,37.121582,-23.228455,12.159729,-3.0304186,-2.3494077,-9.02592,-0.06567764,-0.5935867,-0.6649847,-1.0825806,-0.55651855,0.92097473
2019-07-01T19:42:48.570Z,0.8922461,0.31237903,-0.21031718,-3.677765,6.5348053,-3.625122,6.1035156,-31.303406,-30.119324,-5.2071037,3.0717814,-7.7214384,0.7570715,-3.8917537,-2.4538164,-3.2493286,-2.3513184,2.587738
2019-07-01T19:42:48.764Z,0.38349038,-0.15602855,-0.32555732,-0.66760254,7.934601,6.455841,-17.196655,-12.135315,-40.968323,0.15270089,7.390021,6.444738,1.9460301,-1.0629144,-0.6372652,-0.19729614,-0.00869751,-0.7341156
2019-07-01T19:42:48.971Z,0.4063266,-0.22437474,-0.4380668,0.40438843,5.6661987,8.216949,-20.062256,-19.348145,-38.01422,-0.10327901,8.062973,5.5810566,-0.30490047,0.4859891,2.0025434,-0.099746704,-1.5379486,-1.0628815
2019-07-01T19:42:49.237Z,0.22779803,-0.21955267,-0.6136366,1.9381866,3.8022003,8.894119,-28.044128,-14.880371,-34.283447,0.37356198,5.8746166,7.8434505,-0.15368593,1.2477698,-1.5609565,-2.2948456,-1.8062439,-1.3139496
2019-07-01T19:42:49.404Z,0.06849511,-0.23911425,-0.7367533,3.8955078,4.055832,7.613968,-35.51941,-14.494324,-25.66986,1.9589618,4.2999134,8.59323,-0.6915045,0.14398241,1.3520164,-0.22851562,-1.4191895,-0.9411316
2019-07-01T19:42:49.599Z,-0.03776633,-0.30477887,-0.7840558,5.0775757,4.197006,6.9750824,-40.200806,-18.5318,-15.049744,3.805081,4.2873287,7.9567933,-0.28685236,0.08147812,0.89713526,-0.18850708,-1.3086853,-0.22898865
2019-07-01T19:42:49.852Z,-0.092195734,-0.3312959,-0.7820495,4.2927246,4.3956146,7.097107,-41.452026,-17.23938,-10.949707,4.791395,4.141759,7.4872394,0.28479242,0.31781602,0.092923164,0.020599365,0.13186646,-0.07009888
2019-07-01T19:42:50.055Z,0.0146409385,-0.32481423,-0.78199947,2.0362854,5.659027,8.236099,-38.069153,-21.714783,-16.001892,3.1630528,5.1345634,7.7331586,2.0266378,-0.91672134,0.33830166,0.721817,1.1704712,-0.3630066
2019-07-01T19:42:50.284Z,0.09787036,-0.3171922,-0.7798212,2.3665009,6.34816,7.0372925,-34.405518,-25.523376,-19.796753,1.804944,5.870209,7.645471,0.81086266,-0.06652212,0.5094638,0.19920349,0.11689758,-0.2147522
2019-07-01T19:42:50.460Z,0.06971215,-0.35103616,-0.7870552,3.3427734,5.974884,6.9272156,-34.243774,-26.501465,-14.491272,2.3832414,6.105852,7.2944574,-0.10538626,0.0069465637,0.85311365,0.04637146,-0.7072754,-0.018661499
2019-07-01T19:42:50.658Z,0.01859903,-0.36863637,-0.79080075,3.3403778,6.1782684,6.891327,-36.894226,-26.768494,-12.39624,3.2417135,5.895739,7.13456,0.081884146,0.26009035,0.050206184,-0.105911255,-0.19720459,0.025878906
2019-07-01T19:42:50.863Z,0.024358323,-0.37504342,-0.79075676,3.2566376,6.118454,6.953537,-36.320496,-26.4328,-13.032532,3.1763363,6.0475125,7.0362544,0.5952506,-0.027228355,0.6047621,0.21742249,0.112197876,-0.053359985
2019-07-01T19:42:51.067Z,0.047944613,-0.3789651,-0.7895166,2.2755737,6.6305084,8.291138,-35.195923,-28.48053,-12.060547,2.8280103,6.3199964,6.94481,0.71380925,-0.1033473,0.21880579,0.12890625,0.068573,-0.1273346
2019-07-01T19:42:51.330Z,0.023264093,-0.3798739,-0.80687743,3.6681976,5.905487,5.9365997,-32.91626,-31.811523,-10.023499,2.9978423,6.217845,6.9657536,0.34308362,0.14735413,0.41019487,-0.29266357,-0.56684875,-0.39115906
2019-07-01T19:42:51.635Z,0.017652726,-0.39623645,-0.8088243,3.3140564,6.36969,6.924835,-33.462524,-33.688354,-7.662964,3.0939791,6.436097,6.7211847,0.37466693,0.066431046,0.5539317,0.10684204,0.15000916,-0.07766724
2019-07-01T19:42:51.737Z,0.044335507,-0.40294036,-0.7999857,3.2518463,6.5898285,6.3720856,-31.672668,-32.746887,-10.263062,2.800451,6.706954,6.583664,0.39904714,0.0068216324,0.43466234,0.276062,0.22428894,-0.043029785
2019-07-01T19:42:51.966Z,0.059018187,-0.40167353,-0.8085754,1.902298,7.0181427,5.2091827,-30.355835,-36.024475,-8.569336,2.4192517,6.8630567,6.573892,1.038224,-0.17264557,-0.102509975,-0.35301208,-0.3946991,-0.582428
2019-07-01T19:42:52.167Z,0.0067640827,-0.40152383,-0.8438226,3.1178436,7.051651,5.9365997,-28.97644,-36.320496,-5.6655884,2.6911879,6.6924996,6.643669,-0.32346702,0.34536314,0.37320805,0.084487915,-0.64149475,-0.038879395
2019-07-01T19:42:52.377Z,0.0009549578,-0.4233976,-0.83454686,2.897705,7.051651,6.857834,-28.656006,-36.450195,-5.024719,2.911712,6.936867,6.2906437,0.35254645,0.07119036,0.39222908,0.1315918,0.30259705,-0.08476257
2019-07-01T19:42:52.584Z,0.035892777,-0.4169062,-0.8324961,1.9956207,7.3698883,6.1591187,-26.623535,-37.8479,-4.71344,2.3830855,7.0628653,6.3723793,0.65752244,0.110881805,0.23243141,0.20355225,0.3776703,-0.13294983
2019-07-01T19:42:52.778Z,0.06985807,-0.422751,-0.8297096,0.30389404,8.810379,4.6492615,-24.79248,-39.753723,-6.5353394,1.8294563,7.369739,6.2056766,0.61156523,-0.03965044,0.120103836,0.25332642,0.23191833,-0.24351501
2019-07-01T19:42:52.991Z,0.125694,-0.4639933,-0.80125,1.6199341,7.5637054,4.051056,-24.102783,-40.963745,-4.3945312,1.2666757,8.169966,5.2742367,0.23120844,-0.023031712,1.1741204,0.4837036,0.5068817,-0.12464905
2019-07-01T19:42:53.189Z,0.1361791,-0.44085914,-0.8137612,1.0671997,7.771881,6.652054,-22.149658,-40.319824,-4.9468994,0.88224876,7.9802537,5.630949,0.57638144,-0.04656744,-0.9062538,-0.4945526,-0.333313,-0.051330566
2019-07-01T19:42:53.395Z,0.0995931,-0.41902554,-0.83679056,2.4358978,6.6640167,5.271393,-22.27478,-41.04309,-6.7489624,1.1437423,7.5374784,6.1683593,0.029202938,0.4172473,0.3215313,-0.08441162,-0.2561493,0.014511108
2019-07-01T19:42:53.596Z,0.071831845,-0.41207343,-0.84820956,1.7204437,7.2311096,6.24527,-21.83075,-40.213013,-6.298828,1.4310747,7.3131056,6.3750224,0.27984726,0.16009426,-0.49292326,-0.25534058,-0.29629517,-0.121902466
2019-07-01T19:42:53.796Z,0.060402706,-0.41274107,-0.84924275,1.7874451,7.075577,6.2069855,-23.32611,-39.361572,-6.817627,1.614344,7.258291,6.393864,-0.26769447,0.44107485,0.48232412,-0.04006958,0.052139282,0.1613617
2019-07-01T19:42:54.000Z,0.05108965,-0.39875123,-0.8486122,0.40438843,9.080765,3.1657104,-24.459839,-39.20746,-8.326721,1.8389853,6.981417,6.6368914,-0.11475587,0.375237,-0.2691946,-0.13218689,0.5490875,0.59880066
2019-07-01T19:42:54.204Z,0.25394455,-0.17861184,-0.71856856,4.800003,-5.5417786,6.8530426,-23.831177,-18.55774,-33.36792,-1.3989129,5.6167974,7.9161234,0.85504496,2.8667145,-4.675603,-1.960083,3.6666718,2.4145508
2019-07-01T19:42:54.406Z,0.17014502,-0.08220062,-0.8980719,-6.180664,-5.38385,10.518845,-5.1345825,-24.205017,-28.715515,-2.356599,2.7733624,9.106333,12.451649,-3.6180356,1.9790068,0.076675415,-2.3457031,-7.7603455
2019-07-01T19:42:54.608Z,0.15211353,0.0022489557,0.98803985,6.8195496,-8.630905,15.524628,-15.075684,-9.968567,-32.27997,2.946655,0.11868641,9.352727,-6.1374917,-8.59992,1.7640009,-1.282196,-3.2346954,0.1638031
2019-07-01T19:42:54.815Z,-0.23042281,0.0751331,-0.9683355,2.7924194,-0.114852905,1.5553284,-21.673584,-8.071899,-32.37915,4.2879963,-1.6976056,8.654572,1.6230989,-4.579267,4.4271383,0.37379456,0.5218506,0.033935547
2019-07-01T19:42:55.018Z,-0.09442723,0.0024429678,-0.9949425,0.8949127,-0.48335266,9.927826,-10.827637,-13.226318,-36.289978,1.8410262,-0.1109404,9.631652,2.00787,-2.374477,-1.6655073,0.46757507,1.4425507,-0.17993164
2019-07-01T19:42:55.220Z,-0.06256344,-0.0036597145,-0.9974489,0.94277954,-0.47138977,9.772293,-10.279846,-13.6276245,-36.09314,1.2263983,0.029657222,9.729617,-0.55024385,-0.2724963,2.0080967,-0.0018157959,-0.00894165,-0.0014953613
2019-07-01T19:42:55.420Z,-0.062102705,-0.0024796617,-0.99745715,0.928421,-0.43070984,9.784256,-10.0112915,-14.544678,-37.8006,1.216638,0.0060302005,9.730886,-0.20347464,-0.4422411,0.4276476,-6.1035156e-05,0.00022888184,-0.0002746582
2019-07-01T19:42:55.621Z,-0.060016498,-0.013759042,-0.9694784,0.9714813,-0.447464,9.753143,-9.490967,-14.013672,-36.05194,1.205237,-0.017729567,9.732291,-0.1819284,-0.41722637,0.38569164,-0.00024414062,-0.00033569336,-0.00033569336
2019-07-01T19:42:55.822Z,-0.059736364,-0.01237326,-0.9700734,0.9667053,-0.44267273,9.755539,-8.216858,-14.294434,-36.16028,1.1936,-0.039942224,9.733659,-0.17027152,-0.40223747,0.36367512,-0.00024414062,3.0517578e-05,9.1552734e-05
2019-07-01T19:42:56.021Z,-0.059427638,-0.01119056,-0.9700804,0.9882355,-0.447464,9.748352,-10.134888,-13.980103,-36.395264,1.1823064,-0.061146792,9.734927,-0.16216981,-0.37688518,0.34727383,-0.00036621094,-7.6293945e-05,3.0517578e-05
2019-07-01T19:42:56.232Z,-0.05756463,-0.0039858115,-0.9701222,0.97387695,-0.43788147,9.755539,-8.612061,-13.796997,-37.705994,1.1137217,-0.19022301,9.741346,-0.109137416,-0.252882,0.23174667,-0.00024414062,-0.00033569336,3.0517578e-05
2019-07-01T19:42:56.434Z,-0.056370698,0.0007250169,-0.970124,0.98583984,-0.44506836,9.765106,-8.903503,-13.388062,-36.553955,1.0692285,-0.2746859,9.744315,-0.071015,-0.16819417,0.15612221,-0.00018310547,-0.0001373291,9.1552734e-05
2019-07-01T19:42:56.632Z,-0.055035908,0.0058824425,-0.97009647,0.9762726,-0.43310547,9.755539,-9.576416,-13.938904,-36.938477,1.019891,-0.36702117,9.746563,-0.033908844,-0.07410771,0.068250656,-0.00012207031,-0.0001373291,-0.0001373291
2019-07-01T19:42:56.854Z,-0.054719776,0.0072224233,-0.9700887,0.9786682,-0.44506836,9.757935,-9.234619,-13.327026,-37.809753,1.0076473,-0.39112344,9.746901,-0.020468593,-0.048540562,0.045541763,-0.00030517578,-0.0001373291,0.00015258789
2019-07-01T19:42:57.069Z,-0.054512493,0.008109839,-0.9700828,0.9834442,-0.44506836,9.753143,-9.4696045,-13.349915,-36.824036,0.9995757,-0.4070922,9.747077,-0.013491511,-0.032253265,0.030388832,-0.00012207031,-0.00038146973,0.00015258789
2019-07-01T19:42:57.270Z,-0.054390654,0.008711094,-0.9700807,0.98583984,-0.4355011,9.753143,-10.063171,-14.120483,-36.57837,0.9944644,-0.41798308,9.747139,-0.009405911,-0.02167973,0.020151138,-6.1035156e-05,-0.00019836426,-0.00019836426
2019-07-01T19:42:57.478Z,-0.05432496,0.009070847,-0.97008014,0.97387695,-0.4402771,9.750748,-9.236145,-13.6276245,-36.514282,0.9915448,-0.42452723,9.747153,-0.0057265162,-0.0141403675,0.0133161545,-0.00024414062,-0.00019836426,3.0517578e-05
2019-07-01T19:42:57.706Z,-0.05422148,0.009367637,-0.97007346,0.9882355,-0.4355011,9.753143,-9.429932,-12.548828,-36.361694,0.98818505,-0.42973515,9.747266,-0.0049675107,-0.009214759,0.00902462,-0.00024414062,0.00015258789,-0.0001373291
2019-07-01T19:42:57.894Z,-0.054177962,0.009536831,-0.9700715,0.9882355,-0.4402771,9.757935,-10.731506,-13.157654,-34.768677,0.9865682,-0.43276393,9.747296,-0.0028768778,-0.0053629577,0.0049152374,-0.00018310547,-3.0517578e-05,-7.6293945e-05
2019-07-01T19:42:58.100Z,-0.054144204,0.009665209,-0.97006994,0.98583984,-0.43788147,9.753143,-9.954834,-13.456726,-36.676025,0.98532706,-0.43505916,9.74732,-0.002406478,-0.004141748,0.006020546,-0.00024414062,-0.00019836426,-7.6293945e-05
2019-07-01T19:42:58.309Z,-0.05419198,0.009764769,-0.97007793,0.9834442,-0.43070984,9.765106,-10.014343,-13.101196,-35.91919,0.9857919,-0.43712577,9.747181,0.0009810925,-0.0034174025,0.003876686,-0.00024414062,-9.1552734e-05,-7.6293945e-05
2019-07-01T19:42:58.507Z,-0.054181714,0.009813454,-0.97007763,0.98583984,-0.43788147,9.753143,-9.422302,-14.151001,-36.610413,0.9853701,-0.43800598,9.747183,-0.0014636517,-0.0011032522,6.198883e-05,-0.00012207031,-0.0001373291,-7.6293945e-05
2019-07-01T19:42:58.715Z,-0.054182734,0.009839471,-0.9700783,0.98106384,-0.44267273,9.753143,-9.521484,-14.517212,-37.13379,0.9852704,-0.43850166,9.747171,-0.00014072657,-0.00074219704,0.004210472,-0.00018310547,-3.0517578e-05,-7.6293945e-05
2019-07-01T19:42:58.914Z,-0.05416954,0.009889146,-0.97007763,0.9786682,-0.4402771,9.76033,-9.378052,-13.12561,-36.85608,0.9847875,-0.43938926,9.74718,-0.0015417933,-0.00082558393,-0.0003452301,-0.00036621094,-9.1552734e-05,3.0517578e-05
2019-07-01T19:42:59.117Z,-0.054180797,0.00988743,-0.970079,0.9834442,-0.4355011,9.743576,-8.6502075,-12.927246,-37.30011,0.98501277,-0.43940046,9.747157,0.00037902594,0.0006223023,9.8228455e-05,-0.00018310547,-7.6293945e-05,-0.00019836426
2019-07-01T19:42:59.317Z,-0.05418503,0.009894129,-0.97007966,0.9882355,-0.44506836,9.755539,-9.025574,-14.419556,-36.15265,0.9850636,-0.43954343,9.747145,-5.7816505e-06,0.0010495782,0.0018463135,-0.00024414062,-0.0001373291,9.1552734e-05
2019-07-01T19:42:59.519Z,-0.053760197,0.012202215,-0.9792704,0.98106384,-0.4402771,9.750748,-10.232544,-14.276123,-36.83014,0.98590994,-0.4398819,9.747044,0.0012540817,0.00044691563,0.00078868866,-0.00024414062,-3.0517578e-05,-0.00015258789
2019-07-01T19:42:59.713Z,-0.05373544,0.012186674,-0.97926205,0.9834442,-0.43788147,9.757935,-10.105896,-13.322449,-36.413574,0.98547333,-0.4395392,9.747105,-0.0004900694,0.0008343458,0.0006799698,-0.00018310547,-3.0517578e-05,-1.5258789e-05
2019-07-01T19:42:59.924Z,-0.053729255,0.012183814,-0.97926,0.9906311,-0.4402771,9.743576,-9.532166,-13.066101,-36.384583,0.9853603,-0.43947282,9.747118,-0.0012347102,0.0011947155,-0.0018959045,-0.00018310547,-0.00015258789,9.1552734e-05
2019-07-01T19:43:00.141Z,-0.053728648,0.0121523915,-0.97925836,0.9762726,-0.44984436,9.784256,-8.711243,-14.315796,-37.579346,0.9854645,-0.43887788,9.747134,-0.00014680624,0.0015665889,0.00035190582,-0.00018310547,-3.0517578e-05,-0.0002593994
2019-07-01T19:43:00.335Z,-0.053732272,0.0121942125,-0.97926146,0.9882355,-0.43788147,9.736389,-9.913635,-14.328003,-36.854553,0.9853822,-0.43967533,9.7471075,-7.021427e-05,-0.00097447634,7.8201294e-05,-0.00018310547,-0.00021362305,-9.1552734e-05
2019-07-01T19:43:00.537Z,-0.053755615,0.012192377,-0.97926855,0.98106384,-0.43310547,9.767502,-9.391785,-13.493347,-36.553955,0.985855,-0.43968695,9.747059,9.7334385e-05,3.260374e-05,0.0015220642,3.0517578e-05,-7.6293945e-05,-4.5776367e-05
2019-07-01T19:43:00.737Z,-0.053722586,0.012171855,-0.9792574,0.9834442,-0.43310547,9.745972,-9.831238,-14.323425,-36.706543,0.9852715,-0.43923363,9.747138,-0.00077342987,0.00077816844,0.0005235672,3.0517578e-05,9.1552734e-05,-4.5776367e-05
2019-07-01T19:43:00.942Z,-0.053738844,0.012132164,-0.97926044,0.98583984,-0.43788147,9.753143,-9.088135,-13.835144,-36.78894,0.9857429,-0.43851593,9.747123,0.0007958412,0.0016787648,-0.0026845932,3.0517578e-05,-3.0517578e-05,6.1035156e-05
2019-07-01T19:43:01.146Z,-0.05371856,0.012139697,-0.9792546,0.9882355,-0.4905243,9.779465,-9.100342,-14.128113,-36.846924,0.98531014,-0.438618,9.747162,-0.0007055998,-0.00060260296,0.00059223175,-3.0517578e-05,-1.5258789e-05,-6.1035156e-05
2019-07-01T19:43:01.348Z,-0.053754304,0.012251436,-0.979271,1.0480499,-0.52163696,9.734009,-9.382629,-13.121033,-37.460327,0.9856103,-0.44080028,9.747033,0.0023294091,-0.009417385,-0.0005311966,0.0002746582,-1.5258789e-05,-0.0040283203
2019-07-01T19:43:01.574Z,-0.05368959,0.012633636,-0.9810038,0.9260254,-0.37806702,9.769897,-9.335327,-13.920593,-37.246704,0.9869424,-0.4389251,9.746983,-0.014936507,0.0150895715,0.006269455,-0.013153076,0.004928589,-0.1133728
2019-07-01T19:43:01.773Z,-0.05340541,0.012836584,-0.98255163,1.031311,-0.47616577,9.748352,-8.357239,-13.790894,-36.43036,0.9844422,-0.43350226,9.7474785,-0.004984021,0.010491937,-0.004301071,-0.0077209473,0.0013122559,-0.01979065
2019-07-01T19:43:02.078Z,-0.052735884,0.011973178,-0.98111475,0.84706116,-0.25842285,9.800995,-8.454895,-14.0060425,-37.452698,0.9711796,-0.42248636,9.749292,-0.03047508,0.03273517,0.004606247,0.013656616,-0.0058288574,0.116119385
2019-07-01T19:43:02.203Z,-0.051898666,0.010774417,-0.978665,0.72024536,-0.25842285,9.793823,-9.059143,-13.098145,-37.469482,0.95423824,-0.408875,9.751546,-0.029218733,0.023620486,0.0018901825,0.010910034,-0.0032653809,0.07293701
2019-07-01T19:43:02.413Z,-0.04781296,0.008707523,-0.97726166,1.0983124,-0.65802,9.729218,-9.158325,-13.774109,-35.94055,0.88119817,-0.3604484,9.7603245,-0.14781797,0.086060494,0.022727966,-0.0101623535,0.0024108887,-0.068099976
2019-07-01T19:43:02.618Z,-0.04880337,0.009704935,-0.9789224,1.1844482,-0.68673706,9.731613,-9.077454,-13.68866,-36.60736,0.8993165,-0.37593305,9.758088,0.03552586,-0.00085902214,-0.0032749176,-0.005706787,0.0010223389,-0.043548584
2019-07-01T19:43:02.818Z,-0.04965615,0.010139982,-0.97944874,1.0480499,-0.4402771,9.74118,-8.848572,-13.664246,-37.96997,0.91508025,-0.38492197,9.756272,0.26839513,-0.19359842,-0.03961563,0.002105713,-0.0014343262,0.01600647
2019-07-01T19:43:03.010Z,-0.050360218,0.010363068,-0.97886515,1.0791626,-0.6053772,9.777069,-8.02002,-13.327026,-36.878967,0.9266228,-0.3944675,9.754801,0.23962724,-0.16825709,-0.031558037,0.008712769,-0.0038146973,0.11251831
2019-07-01T19:43:03.221Z,-0.05090341,0.009113651,-0.97446823,1.0121613,-0.45463562,9.71965,-10.214233,-13.916016,-36.228943,0.9338387,-0.3923208,9.7542,-0.015528262,-0.0143677,0.008822441,0.029541016,-0.007904053,0.23402405
2019-07-01T19:43:03.480Z,-0.050670013,0.010325615,-0.98045087,0.95474243,-0.5647125,9.772293,-10.279846,-13.705444,-35.731506,0.93593025,-0.3872319,9.754202,0.20300299,-0.21975309,-0.03052044,0.000579834,-0.0008239746,-0.00024414062
2019-07-01T19:43:03.687Z,-0.050844524,0.0110951755,-0.9815162,0.99780273,-0.34934998,9.748352,-9.584045,-14.083862,-37.345886,0.9387191,-0.39724794,9.753532,0.067418694,-0.053480595,-0.009467125,-0.010101318,0.003768921,-0.08685303
2019-07-01T19:43:03.891Z,-0.050918452,0.011408779,-0.9826637,1.0121613,-0.47616577,9.734009,-8.757019,-14.958191,-39.671326,0.94155735,-0.39755192,9.753246,0.04353851,-0.003165394,-0.0078105927,-0.002532959,0.0012512207,-0.035125732
2019-07-01T19:43:04.034Z,-0.051770847,0.012057405,-0.9831635,1.0001984,-0.4283142,9.76033,-10.336304,-13.2751465,-35.188293,0.95695776,-0.4100213,9.751231,0.029708803,-0.025343746,-0.0019750595,-0.00045776367,-0.00019836426,0.00018310547
2019-07-01T19:43:04.245Z,-0.052385926,0.012436056,-0.9833938,0.99780273,-0.43070984,9.762711,-10.064697,-14.042664,-37.16736,0.9681253,-0.41793495,9.749792,0.022810817,-0.015978575,-0.002450943,0.00033569336,0.00010681152,0.0
2019-07-01T19:43:04.541Z,-0.052853215,0.01276687,-0.98356795,1.0049896,-0.45224,9.743576,-9.159851,-14.984131,-39.51111,0.9764842,-0.42474696,9.748664,0.016846716,-0.014427602,-0.0024433136,0.00015258789,-3.0517578e-05,7.6293945e-05
2019-07-01T19:43:04.746Z,-0.0532229,0.013018086,-0.9836989,1.002594,-0.4139557,9.750748,-9.573364,-13.55896,-38.975525,0.98312986,-0.42995286,9.747768,0.013112068,-0.010443568,-0.0027456284,3.0517578e-05,3.0517578e-05,0.00036621094
2019-07-01T19:43:04.860Z,-0.053394668,0.013109227,-0.9837597,1.0001984,-0.43310547,9.743576,-8.836365,-15.040588,-39.00757,0.9863067,-0.4318745,9.747362,0.00618577,-0.0042384863,-0.0024776459,0.0002746582,-0.0001373291,6.1035156e-05
2019-07-01T19:43:05.183Z,-0.0535565,0.013220522,-0.9838179,0.9954071,-0.44506836,9.755539,-9.658813,-15.383911,-39.49585,0.9892196,-0.43416473,9.746964,0.0052369833,-0.0055514574,-0.0016498566,0.00021362305,-7.6293945e-05,0.00012207031
2019-07-01T19:43:05.388Z,-0.05360994,0.0132769225,-0.9838379,0.9954071,-0.43788147,9.753143,-10.25238,-14.335632,-38.879395,0.9901191,-0.4352932,9.746824,0.0017223954,-0.0022818744,-0.00078487396,9.1552734e-05,0.00015258789,0.0001373291
2019-07-01T19:43:05.593Z,-0.05367527,0.013334524,-0.98386186,0.9882355,-0.43310547,9.762711,-10.195923,-13.244629,-37.904358,0.99125516,-0.4364571,9.746655,0.0023129582,-0.002588302,-0.0013256073,3.0517578e-05,-7.6293945e-05,0.00012207031
2019-07-01T19:43:05.797Z,-0.053701602,0.013294678,-0.9838688,1.0001984,-0.4402771,9.745972,-10.774231,-13.7283325,-36.99951,0.9919154,-0.43573034,9.746622,0.0015946031,0.00053974986,0.0010099411,9.1552734e-05,3.0517578e-05,-0.00016784668
2019-07-01T19:43:06.003Z,-0.05375239,0.013337673,-0.98388726,0.9954071,-0.43310547,9.750748,-9.14917,-13.40332,-36.772156,0.9928045,-0.43660095,9.746492,0.0023014545,-0.0021388233,0.0012969971,0.00015258789,0.00021362305,0.00024414062
2019-07-01T19:43:06.058Z,-0.053761136,0.013342537,-0.98389035,0.98583984,-0.43070984,9.748352,-9.738159,-14.100647,-36.361694,0.9929658,-0.4367027,9.746471,0.00055879354,-0.0008895695,-0.0020303726,0.00033569336,4.5776367e-05,0.00012207031
2019-07-01T19:43:06.257Z,-0.053716432,0.013343987,-0.98387575,0.99780273,-0.44267273,9.753143,-9.133911,-14.854431,-37.21924,0.9920572,-0.43668154,9.746565,-0.0013894439,-0.0006714761,-0.0001077652,3.0517578e-05,3.0517578e-05,0.00012207031
2019-07-01T19:43:06.473Z,-0.05376308,0.013366797,-0.983892,1.0001984,-0.4355011,9.750748,-9.573364,-13.943481,-36.486816,0.99292743,-0.43716484,9.746454,0.0022332668,7.984042e-05,-0.00027751923,0.00015258789,3.0517578e-05,0.0
2019-07-01T19:43:06.824Z,-0.053776864,0.013387152,-0.98389745,0.9906311,-0.44267273,9.762711,-8.602905,-13.7283325,-37.088013,0.993141,-0.4375658,9.746414,0.000103235245,-0.0009560287,-0.00017642975,3.0517578e-05,-1.5258789e-05,6.1035156e-05
2019-07-01T19:43:07.027Z,-0.053802095,0.013412622,-0.9839068,0.99302673,-0.4355011,9.767502,-9.526062,-14.666748,-36.63788,0.99356973,-0.43807614,9.746347,0.00085383654,-0.0016240776,0.00035381317,9.1552734e-05,-1.5258789e-05,-0.00016784668
2019-07-01T19:43:07.233Z,-0.053805627,0.013415461,-0.98390806,0.9954071,-0.44267273,9.745972,-11.289978,-14.642334,-36.180115,0.9936322,-0.43813387,9.74634,-9.3877316e-05,-0.00065380335,-0.0015306473,0.00021362305,9.1552734e-05,1.5258789e-05
2019-07-01T19:43:07.442Z,-0.053779643,0.013419969,-0.9838998,0.99302673,-0.43310547,9.750748,-10.227966,-14.205933,-36.361694,0.9930922,-0.43819115,9.746391,-0.00066530704,-0.0008752346,-0.0015306473,0.00015258789,3.0517578e-05,6.1035156e-05
2019-07-01T19:43:07.651Z,-0.053850673,0.0130673405,-0.98270386,0.9954071,-0.43788147,9.76033,-10.047913,-13.757324,-36.428833,0.99263453,-0.43848825,9.746424,-0.0006414056,-0.00035780668,-0.0010309219,-3.0517578e-05,0.00010681152,1.5258789e-05
2019-07-01T19:43:07.848Z,-0.05390364,0.01305852,-0.98272175,0.99302673,-0.43788147,9.757935,-10.800171,-14.385986,-36.83014,0.9937346,-0.43838465,9.746318,0.0018520355,7.897615e-06,-0.00035381317,9.1552734e-05,-9.1552734e-05,-0.00022888184
2019-07-01T19:43:08.054Z,-0.05388739,0.013053835,-0.9827159,0.99302673,-0.4402771,9.76033,-10.380554,-13.919067,-37.130737,0.9934217,-0.43827662,9.746354,-7.849932e-05,-3.7521124e-05,0.0021409988,3.0517578e-05,-7.6293945e-05,1.5258789e-05
2019-07-01T19:43:08.129Z,-0.0539784,0.013072424,-0.9827483,0.99302673,-0.4283142,9.753143,-10.9375,-13.812256,-36.78131,0.99519944,-0.43873647,9.746152,0.0031273365,-0.0014843941,0.00031757355,9.1552734e-05,3.0517578e-05,0.0
2019-07-01T19:43:08.333Z,-0.053948507,0.013034193,-0.9827361,0.9954071,-0.43788147,9.76033,-10.671997,-13.513184,-35.676575,0.99472225,-0.43797767,9.746235,-0.00096970797,0.00088119507,0.0006828308,9.1552734e-05,3.0517578e-05,6.1035156e-05
2019-07-01T19:43:08.548Z,-0.053976163,0.013040028,-0.982746,1.002594,-0.43310547,9.762711,-9.724426,-13.81073,-36.15265,0.9952618,-0.43812084,9.746173,0.0017831922,-0.0006325245,0.00075531006,0.00015258789,0.00010681152,0.00018310547
2019-07-01T19:43:08.754Z,-0.053992547,0.013071486,-0.98275316,0.9954071,-0.4355011,9.748352,-10.188293,-13.252258,-37.001038,0.9954886,-0.43873546,9.746122,0.00080025196,-0.0007174611,0.00065517426,-0.00018310547,6.1035156e-05,0.00019836426
2019-07-01T19:43:08.948Z,-0.053967007,0.013037728,-0.9827427,1.0001984,-0.43070984,9.748352,-8.5876465,-13.513184,-36.439514,0.99508446,-0.43806654,9.746195,-0.0002694726,0.0019875467,0.0009098053,-0.00012207031,0.00012207031,-0.00010681152
2019-07-01T19:43:09.163Z,-0.05397792,0.013037697,-0.9827465,0.99302673,-0.4402771,9.745972,-9.5199585,-12.62207,-37.12616,0.9953052,-0.43807885,9.746171,0.00029933453,4.529953e-05,-0.0014686584,-6.1035156e-05,6.1035156e-05,3.0517578e-05
2019-07-01T19:43:09.348Z,-0.053954124,0.013092952,-0.98274094,0.9954071,-0.43788147,9.745972,-8.46405,-12.634277,-35.887146,0.99464065,-0.43909612,9.746193,-0.0014027953,-0.0013448,-0.00047969818,-0.00012207031,0.0,-0.00015258789
2019-07-01T19:43:09.554Z,-0.05394402,0.013054743,-0.9827356,0.99780273,-0.44267273,9.76033,-9.953308,-13.53302,-36.08551,0.99456334,-0.4383612,9.746234,-5.8948994e-05,0.001722753,-0.0011281967,0.0,6.1035156e-05,-0.0002746582
2019-07-01T19:43:09.753Z,-0.053911187,0.01304729,-0.98272383,0.99302673,-0.43070984,9.750748,-8.683777,-13.809204,-36.79962,0.9939243,-0.4381811,9.746306,-0.0010860562,0.000102996826,-0.00012302399,6.1035156e-05,-4.5776367e-05,-3.0517578e-05
2019-07-01T19:43:09.958Z,-0.053915713,0.012985617,-0.9827224,0.9954071,-0.4402771,9.745972,-10.545349,-14.233398,-35.751343,0.99422073,-0.4370196,9.746328,0.0005386472,0.0018031895,-0.00025177002,0.00012207031,6.1035156e-05,1.5258789e-05
2019-07-01T19:43:10.161Z,-0.05396015,0.013013031,-0.9827391,0.9954071,-0.44267273,9.762711,-9.182739,-14.283752,-36.195374,0.9950278,-0.43759108,9.746221,0.001634717,-0.0012023747,0.00015735626,-0.00012207031,0.0,-0.00022888184
2019-07-01T19:43:10.408Z,-0.05393859,0.0130169885,-0.9827318,1.0001984,-0.43788147,9.76033,-10.20813,-13.919067,-35.70099,0.9945789,-0.43764037,9.746264,-0.0010533333,4.7832727e-05,0.00059223175,-6.1035156e-05,-4.5776367e-05,-3.0517578e-05
2019-07-01T19:43:10.572Z,-0.0539647,0.013047059,-0.98274237,0.99780273,-0.4402771,9.757935,-9.82666,-14.328003,-35.95276,0.9950068,-0.43824032,9.746194,0.0006683469,-0.0007701218,-7.05719e-05,0.0,-4.5776367e-05,-0.00015258789
2019-07-01T19:43:10.769Z,-0.05395725,0.013081995,-0.9827415,0.99302673,-0.44267273,9.753143,-10.879517,-14.395142,-36.375427,0.9947402,-0.4388925,9.746192,-0.00026899576,-0.00084373355,0.00026798248,-0.00018310547,-4.5776367e-05,1.5258789e-05
2019-07-01T19:43:10.976Z,-0.053930454,0.013057047,-0.982731,0.9882355,-0.43788147,9.743576,-10.939026,-13.961792,-36.358643,0.9942814,-0.43838865,9.746262,-0.0016671419,0.0017427206,-0.00074481964,-0.00024414062,-4.5776367e-05,-3.0517578e-05
2019-07-01T19:43:11.168Z,-0.05394317,0.0130731035,-0.9827362,1.002594,-0.43788147,9.748352,-9.869385,-13.304138,-36.94763,0.9944851,-0.43870756,9.746226,0.0005543828,-0.000826627,-0.0009860992,0.00012207031,6.1035156e-05,7.6293945e-05
2019-07-01T19:43:11.378Z,-0.053947084,0.013052527,-0.9827365,1.0001984,-0.44267273,9.745972,-10.908508,-13.30719,-36.076355,0.99463254,-0.43832287,9.746228,0.00036782026,0.0009571016,0.00078105927,-6.1035156e-05,0.0,-9.1552734e-05
2019-07-01T19:43:11.594Z,-0.053981364,0.013090728,-0.98275024,1.0001984,-0.43310547,9.755539,-11.048889,-14.624023,-36.488342,0.9951986,-0.4390863,9.746136,0.0019167066,-0.0011316538,-0.0004415512,-6.1035156e-05,6.1035156e-05,7.6293945e-05
2019-07-01T19:43:11.785Z,-0.053988922,0.013094488,-0.98275304,0.99302673,-0.4402771,9.748352,-9.989929,-12.591553,-35.591125,0.995339,-0.4391664,9.746119,0.00088220835,0.00035992265,-0.0011053085,-0.00018310547,0.0,-3.0517578e-05
2019-07-01T19:43:11.981Z,-0.053982984,0.013080556,-0.9827503,0.99780273,-0.4355011,9.743576,-11.091614,-13.752747,-36.538696,0.99526525,-0.4388958,9.746139,-0.00021725893,0.0007920861,-0.00058078766,-6.1035156e-05,0.00024414062,1.5258789e-05
2019-07-01T19:43:12.191Z,-0.053974815,0.013071469,-0.9827471,0.9882355,-0.44267273,9.779465,-11.682129,-12.554932,-36.34491,0.9951302,-0.43871415,9.74616,0.00017476082,0.00084879994,-0.00023365021,0.0,1.5258789e-05,-9.1552734e-05
2019-07-01T19:43:12.390Z,-0.053980026,0.013096327,-0.98275006,0.98583984,-0.44267273,9.74118,-9.875488,-13.525391,-36.465454,0.99515307,-0.4391907,9.746137,0.00012373924,-0.0015305877,0.00047588348,0.0,-4.5776367e-05,-9.1552734e-05
2019-07-01T19:43:12.588Z,-0.053981137,0.013122115,-0.9827517,1.0001984,-0.44267273,9.748352,-11.320496,-13.479614,-36.094666,0.9950899,-0.43967992,9.74612,-0.0006195307,-0.00039228797,-0.0030269623,0.00012207031,6.1035156e-05,-4.5776367e-05
2019-07-01T19:43:12.798Z,-0.05397651,0.013127856,-0.98275036,0.99302673,-0.447464,9.762711,-10.018921,-13.249207,-35.723877,0.99497724,-0.43978307,9.746127,0.0001412034,-0.0007468164,0.0013237,-0.00012207031,0.0,-0.00015258789
2019-07-01T19:43:13.000Z,-0.05399125,0.013112378,-0.9827547,0.99780273,-0.43788147,9.757935,-9.819031,-14.028931,-36.798096,0.9953267,-0.43950766,9.746104,0.0011458397,0.0009355545,0.0015096664,0.0,7.6293945e-05,7.6293945e-05
2019-07-01T19:43:13.205Z,-0.053991243,0.013078886,-0.9827531,0.9954071,-0.4402771,9.753143,-10.360718,-13.708496,-35.879517,0.9954377,-0.43887395,9.746121,6.496906e-05,0.0012665689,0.00021839142,-6.1035156e-05,-0.00010681152,-0.00015258789
2019-07-01T19:43:13.404Z,-0.05397013,0.013099219,-0.9827468,0.99302673,-0.43788147,9.762711,-10.621643,-14.086914,-36.09619,0.9949434,-0.43923366,9.746156,-0.00089520216,-0.0005159974,0.0004720688,6.1035156e-05,0.00019836426,7.6293945e-05
2019-07-01T19:43:13.609Z,-0.05395541,0.013067865,-0.98274016,0.9954071,-0.43788147,9.750748,-10.328674,-12.979126,-35.65674,0.99474996,-0.43862298,9.746203,0.0002786517,0.0012449026,-0.00034999847,-0.00012207031,6.1035156e-05,7.6293945e-05
2019-07-01T19:43:13.816Z,-0.053948488,0.013080172,-0.9827384,1.0001984,-0.4355011,9.743576,-10.240173,-12.828064,-35.554504,0.9945691,-0.4388476,9.746211,-0.00028449297,4.723668e-05,0.0005674362,-0.00018310547,6.1035156e-05,0.0002593994
2019-07-01T19:43:14.016Z,-0.05396764,0.013073515,-0.9827447,0.99780273,-0.44267273,9.76033,-10.510254,-13.504028,-35.37903,0.9949784,-0.4387444,9.746175,0.00093722343,0.0004530549,0.00086021423,-6.1035156e-05,0.0,-9.1552734e-05
2019-07-01T19:43:14.217Z,-0.053979803,0.013090419,-0.9827497,0.99780273,-0.4355011,9.76033,-10.021973,-13.322449,-35.73761,0.9951681,-0.4390786,9.74614,0.00079506636,-0.00019478798,-0.0010347366,-6.1035156e-05,1.5258789e-05,-4.5776367e-05
2019-07-01T19:43:14.420Z,-0.0539726,0.013043485,-0.98274493,0.99780273,-0.43070984,9.757935,-9.373474,-13.130188,-36.17859,0.99517834,-0.43818206,9.74618,-0.00041234493,0.0020172,-3.1471252e-05,0.0,0.0,-4.5776367e-05
2019-07-01T19:43:14.622Z,-0.05399091,0.013018745,-0.98275006,0.9906311,-0.43788147,9.755539,-10.307312,-14.135742,-36.723328,0.9956306,-0.43773562,9.746153,0.0014780164,0.00038820505,0.0009126663,6.1035156e-05,0.00019836426,-4.5776367e-05
2019-07-01T19:43:14.827Z,-0.05396825,0.013041079,-0.98274326,1.002594,-0.4355011,9.753143,-9.634399,-13.5849,-36.335754,0.9950984,-0.43813136,9.746189,-0.0009100437,-0.0008560717,0.0010843277,0.0,-0.00010681152,0.00019836426
2019-07-01T19:43:15.027Z,-0.053992163,0.013076359,-0.9827533,0.99780273,-0.4402771,9.750748,-8.61969,-14.167786,-36.647034,0.9954647,-0.43882725,9.746121,0.0007737279,-0.00095513463,-0.0029554367,0.00012207031,7.6293945e-05,7.6293945e-05
2019-07-01T19:43:15.225Z,-0.054009344,0.0130972285,-0.98276025,1.0001984,-0.4355011,9.750748,-9.185791,-14.282227,-36.49597,0.9957427,-0.4392424,9.746074,0.00046867132,-0.0012450516,0.00042915344,-0.00012207031,-4.5776367e-05,7.6293945e-05
2019-07-01T19:43:15.436Z,-0.053980693,0.013131654,-0.982752,1.0001984,-0.43788147,9.750748,-10.791016,-14.395142,-35.5484,0.99504924,-0.4398599,9.746117,-0.001276195,-0.0008302629,0.0012493134,-6.1035156e-05,0.00012207031,0.0001373291
2019-07-01T19:43:15.637Z,-0.054018937,0.013089732,-0.98276323,0.99780273,-0.44506836,9.750748,-10.417175,-13.127136,-35.984802,0.9959614,-0.43911186,9.746057,0.0018629432,0.0020100772,3.6239624e-05,-6.1035156e-05,0.0,-9.1552734e-05
2019-07-01T19:43:15.833Z,-0.05405765,0.013118508,-0.982778,0.9906311,-0.43788147,9.750748,-9.169006,-13.839722,-37.010193,0.99664855,-0.43970194,9.745959,0.0016437173,-0.0009764433,0.0001821518,-0.00018310547,0.0,0.00019836426
2019-07-01T19:43:16.049Z,-0.054044485,0.013091503,-0.9827721,0.9954071,-0.447464,9.755539,-11.459351,-13.282776,-34.613037,0.9964721,-0.43917552,9.746002,-3.1471252e-05,0.001807183,-0.0013179779,-0.00018310547,6.1035156e-05,-0.00021362305
2019-07-01T19:43:16.246Z,-0.054049544,0.013136177,-0.98277605,0.9954071,-0.44267273,9.757935,-9.602356,-12.854004,-36.265564,0.99642617,-0.44002676,9.745968,0.0002991557,-0.001188904,-0.0008878708,-6.1035156e-05,7.6293945e-05,-3.0517578e-05
2019-07-01T19:43:16.449Z,-0.054050002,0.013160445,-0.98277736,0.99780273,-0.44506836,9.753143,-9.257507,-12.39624,-35.8078,0.99635494,-0.4404865,9.7459545,-0.0005842447,-0.0004876554,-9.250641e-05,-0.00018310547,-0.00016784668,0.0001373291
2019-07-01T19:43:16.652Z,-0.05403871,0.013142821,-0.98277265,0.99780273,-0.4402771,9.757935,-10.266113,-13.3377075,-35.88257,0.9961851,-0.44013974,9.745988,-0.0002284646,0.001098454,0.0012273788,0.0,0.00018310547,-0.00015258789
2019-07-01T19:43:16.855Z,-0.0540211,0.013144354,-0.9827666,0.99302673,-0.4402771,9.745972,-9.410095,-13.705444,-37.576294,0.99582404,-0.44014797,9.746024,-0.00015836954,0.00018149614,0.0009584427,-6.1035156e-05,0.00012207031,1.5258789e-05
2019-07-01T19:43:17.050Z,-0.054030403,0.013167069,-0.9827709,1.002594,-0.44506836,9.750748,-9.715271,-13.441467,-36.756897,0.99593675,-0.44058874,9.745993,0.00052273273,-0.00061678886,-0.0016012192,-0.00012207031,6.1035156e-05,-3.0517578e-05
2019-07-01T19:43:17.261Z,-0.054024104,0.013139499,-0.9827674,1.002594,-0.4355011,9.748352,-10.638428,-14.376831,-36.60736,0.9959008,-0.44005963,9.74602,-0.00018996,0.00101915,0.0006875992,0.0,6.1035156e-05,-3.0517578e-05
2019-07-01T19:43:17.460Z,-0.05404142,0.013152821,-0.982774,0.9954071,-0.447464,9.750748,-8.926392,-13.822937,-37.01935,0.9962067,-0.4403321,9.745976,0.0011452436,-0.00012609363,0.0006122589,-0.00012207031,0.0,1.5258789e-05
2019-07-01T19:43:17.669Z,-0.054032862,0.013123027,-0.9827696,1.0001984,-0.4355011,9.755539,-10.2005005,-13.774109,-35.51941,0.9961325,-0.43975827,9.74601,0.0002887845,-0.0004697442,0.00016117096,0.00018310547,6.1035156e-05,-3.0517578e-05
2019-07-01T19:43:17.866Z,-0.054043636,0.013093098,-0.98277193,0.99302673,-0.44267273,9.750748,-10.305786,-14.137268,-36.497498,0.9964496,-0.4392047,9.746003,0.0004633069,0.0016145408,-4.196167e-05,0.0,6.1035156e-05,7.6293945e-05
2019-07-01T19:43:18.072Z,-0.05402763,0.013064342,-0.98276496,0.99780273,-0.44267273,9.755539,-10.585022,-13.058472,-36.871338,0.9962213,-0.43864167,9.746051,-0.0006530881,0.0017221868,-0.0019330978,0.0,-0.00010681152,0.0001373291
2019-07-01T19:43:18.413Z,-0.05403305,0.01301017,-0.9827642,0.99302673,-0.44267273,9.755539,-9.584045,-14.312744,-36.03363,0.9965107,-0.4376231,9.746068,7.098913e-05,0.0016261339,-0.0009660721,6.1035156e-05,6.1035156e-05,1.5258789e-05
2019-07-01T19:43:18.618Z,-0.053992208,0.013046691,-0.98275185,0.99780273,-0.4402771,9.745972,-9.327698,-13.548279,-38.30414,0.99556404,-0.43826592,9.746136,-0.0011527538,-0.0010638833,0.00045490265,-0.00018310547,0.0,7.6293945e-05
2019-07-01T19:43:18.734Z,-0.053988002,0.013055339,-0.98275083,1.002594,-0.447464,9.745972,-10.003662,-12.806702,-36.2381,0.9954503,-0.4384246,9.7461405,-0.00027900934,0.00026622415,-0.0008087158,0.0,0.00018310547,-4.5776367e-05
2019-07-01T19:43:18.984Z,-0.05400802,0.0131098805,-0.9827604,1.0001984,-0.4355011,9.755539,-9.422302,-14.076233,-37.12616,0.9956739,-0.43948022,9.74607,0.00091034174,-0.001536876,0.00025844574,-0.00012207031,6.1035156e-05,-0.00010681152
2019-07-01T19:43:19.132Z,-0.05403157,0.013097627,-0.98276794,0.9954071,-0.43788147,9.748352,-10.229492,-14.204407,-36.81488,0.99619067,-0.43927616,9.746026,0.0010893941,0.0004197061,0.00032520294,-0.00018310547,0.0,1.5258789e-05
2019-07-01T19:43:19.326Z,-0.054011557,0.013073248,-0.98275983,0.99780273,-0.4402771,9.753143,-9.999084,-14.405823,-36.94153,0.995867,-0.43879128,9.746081,0.00016707182,0.0013935864,0.001156807,-0.00012207031,0.00018310547,0.0001373291
2019-07-01T19:43:19.532Z,-0.054046147,0.0131153185,-0.98277384,0.99302673,-0.44506836,9.753143,-10.171509,-13.040161,-35.749817,0.99642676,-0.43962812,9.745987,0.0015458465,-0.0008957684,-0.0008211136,-0.00024414062,0.00012207031,-3.0517578e-05
2019-07-01T19:43:19.745Z,-0.054061197,0.013141483,-0.98278034,0.9954071,-0.44267273,9.757935,-9.971619,-14.048767,-35.586548,0.9966442,-0.4401409,9.745941,0.0012680292,-0.001073271,0.0010156631,0.00012207031,0.00018310547,0.0001373291
2019-07-01T19:43:19.939Z,-0.054054596,0.013151242,-0.9827785,0.9882355,-0.447464,9.753143,-9.588623,-14.234924,-36.772156,0.9964783,-0.44031778,9.74595,0.00043696165,-0.00016331673,0.0006570816,6.1035156e-05,0.00024414062,-9.1552734e-05
2019-07-01T19:43:20.147Z,-0.054037195,0.013180033,-0.9827739,0.99780273,-0.43788147,9.748352,-9.609985,-12.922668,-36.730957,0.99603117,-0.4408421,9.745973,-0.00050753355,-0.0010850132,-0.0005340576,-0.00024414062,6.1035156e-05,3.0517578e-05
2019-07-01T19:43:20.349Z,-0.054025274,0.013122669,-0.982767,0.9954071,-0.43310547,9.755539,-9.422302,-13.998413,-37.486267,0.9959804,-0.4397426,9.746027,-0.00017076731,0.0030538738,-0.0009756088,-0.00012207031,6.1035156e-05,0.0001373291
2019-07-01T19:43:20.555Z,-0.054010417,0.013162597,-0.9827638,1.0001984,-0.4402771,9.743576,-9.941101,-13.243103,-36.10382,0.9955475,-0.44048053,9.7460375,-0.0005018115,-0.0007340908,0.00094890594,0.0,0.0,0.0002593994
2019-07-01T19:43:20.759Z,-0.053981405,0.013098194,-0.98275065,0.99302673,-0.4402771,9.753143,-10.13031,-12.011719,-36.598206,0.99517465,-0.4392276,9.746132,-0.00038844347,0.0023373663,0.00045681,0.0,0.0,0.0001373291
2019-07-01T19:43:20.951Z,-0.0539691,0.013087968,-0.9827459,1.0001984,-0.44267273,9.748352,-10.276794,-13.479614,-36.439514,0.9949599,-0.43901956,9.746163,-0.00014704466,0.00068986416,-0.00018024445,-0.00024414062,7.6293945e-05,7.6293945e-05
2019-07-01T19:43:21.156Z,-0.053998455,0.013084948,-0.9827559,1.0001984,-0.4402771,9.750748,-10.025024,-13.244629,-36.628723,0.9955633,-0.43899718,9.746103,0.0013371706,0.00092434883,0.00116539,-0.00012207031,0.00018310547,-9.1552734e-05
2019-07-01T19:43:21.359Z,-0.05400178,0.013089864,-0.9827573,0.9954071,-0.43788147,9.755539,-10.375977,-13.923645,-36.52649,0.99561423,-0.43909413,9.746094,0.0010466576,-0.00041499734,-0.00021457672,0.0,0.0,0.0001373291
2019-07-01T19:43:21.566Z,-0.053997837,0.013096196,-0.9827562,0.99302673,-0.4355011,9.757935,-9.875488,-13.5269165,-36.38916,0.9955135,-0.43920925,9.7460985,-0.00010848045,-0.0009946823,0.0009651184,0.00018310547,0.00018310547,-0.00015258789
2019-07-01T19:43:21.768Z,-0.054010164,0.013091793,-0.98276025,0.99780273,-0.4355011,9.755539,-9.341431,-14.221191,-36.25183,0.9957773,-0.43914053,9.746075,0.00081425905,0.00062322617,0.00031757355,-6.1035156e-05,6.1035156e-05,0.00019836426
2019-07-01T19:43:21.967Z,-0.054047324,0.013158093,-0.98277634,0.99780273,-0.4355011,9.755539,-9.902954,-14.031982,-37.17041,0.9963087,-0.44043887,9.745962,0.0019040704,-0.0021263957,0.0008354187,-0.00018310547,0.0,7.6293945e-05
2019-07-01T19:43:22.173Z,-0.05406514,0.01322822,-0.9827859,0.99780273,-0.44267273,9.76033,-9.979248,-14.041138,-36.566162,0.9964364,-0.44178677,9.745888,9.62615e-05,-0.0019668639,-6.771088e-05,-0.00018310547,7.6293945e-05,0.0002593994
2019-07-01T19:43:22.374Z,-0.054072443,0.013200797,-0.9827871,1.0001984,-0.43788147,9.769897,-9.178162,-14.0625,-36.753845,0.9966749,-0.44127643,9.745886,0.0005617142,0.002075255,0.00029468536,-0.00024414062,-4.5776367e-05,0.00038146973
2019-07-01T19:43:22.561Z,-0.054098267,0.013201492,-0.982796,0.9906311,-0.4402771,9.76033,-10.298157,-14.143372,-35.517883,0.9971949,-0.44131994,9.7458315,0.0014269948,0.0004618168,0.0008363724,-0.00018310547,6.1035156e-05,0.0001373291
2019-07-01T19:43:22.781Z,-0.05408955,0.013164268,-0.98279124,0.99780273,-0.4402771,9.753143,-9.619141,-13.449097,-34.87549,0.997142,-0.44060537,9.74587,-0.00022178888,0.0019084215,0.0005712509,-6.1035156e-05,6.1035156e-05,0.0001373291
2019-07-01T19:43:22.978Z,-0.05412184,0.01315773,-0.98280203,1.0049896,-0.4402771,9.745972,-9.90448,-14.260864,-36.083984,0.99781644,-0.44051948,9.745804,0.0025812387,0.00091540813,0.0018157959,-0.00012207031,0.00018310547,7.6293945e-05