timestamp,rotationVector_x,rotationVector_y,rotationVector_z,accelerometer_x,accelerometer_y,accelerometer_z,magneticField_x,magneticField_y,magneticField_z,gravity_x,gravity_y,gravity_z,linearAcceleration_x,linearAcceleration_y,linearAcceleration_z,gyroscope_x,gyroscope_y,gyroscope_z
2019-07-01T20:13:19.918Z,0.010899378,-0.012358563,0.9938527,0.23904419,-0.21846008,9.805786,4.3167114,-15.583801,-38.11035,0.2389952,-0.21749878,9.801325,-0.00074115396,-0.0006659776,0.00027751923,0.0,-9.1552734e-05,-0.00032043457
2019-07-01T20:13:20.116Z,0.010883858,-0.0123623535,0.9938568,0.23857117,-0.21798706,9.8029175,2.9754639,-15.0177,-37.71515,0.23869291,-0.21761474,9.80133,-0.00045837462,-4.386902e-05,0.0016202927,-0.00012207031,9.1552734e-05,-6.1035156e-05
2019-07-01T20:13:20.323Z,0.010886524,-0.012376574,0.9938563,0.23713684,-0.2172699,9.804596,1.6601562,-15.614319,-38.160706,0.23877583,-0.21788558,9.801321,0.00044550002,-0.00028447807,-0.0021152496,0.00012207031,0.00015258789,-0.00032043457
2019-07-01T20:13:20.527Z,0.010866712,-0.012354089,0.99386114,0.23855591,-0.21559143,9.802444,1.7669678,-15.020752,-38.27057,0.23833291,-0.21749932,9.80134,-0.0007880032,0.0002886802,-0.00013256073,6.1035156e-05,-9.1552734e-05,-0.00012207031
2019-07-01T20:13:20.729Z,0.010880214,-0.012310597,0.99385685,0.24047852,-0.21655273,9.803162,3.4439087,-15.275574,-38.24005,0.23851204,-0.21661256,9.801355,-1.3843179e-05,0.0015465617,-0.00056552887,-6.1035156e-05,-0.00019836426,-6.1035156e-05
2019-07-01T20:13:20.933Z,0.010901206,-0.012319553,0.99385154,0.23808289,-0.21774292,9.806259,3.4988403,-15.933228,-37.62207,0.23895027,-0.21673109,9.801342,0.00027139485,-3.9190054e-06,-0.00053310394,0.0,-9.1552734e-05,-0.00012207031
2019-07-01T20:13:21.154Z,0.010893118,-0.012337599,0.9938539,0.23808289,-0.21678162,9.803879,3.2333374,-16.381836,-38.30719,0.2388263,-0.21710575,9.801337,-0.00033140182,-0.0008119792,0.0020360947,0.00012207031,-9.1552734e-05,-0.0002593994
2019-07-01T20:13:21.338Z,0.010888382,-0.012318289,0.9938549,0.23880005,-0.2172699,9.800049,1.7288208,-15.748596,-38.868713,0.23869132,-0.21674094,9.801348,-0.00090268254,1.8671155e-05,-0.00087070465,0.00012207031,9.1552734e-05,-0.00032043457
2019-07-01T20:13:21.543Z,0.010896097,-0.012324123,0.993853,0.23951721,-0.21798706,9.803162,2.4536133,-15.92865,-37.802124,0.23885772,-0.21683423,9.801343,0.0006184727,-0.0006425679,-0.0020313263,0.0,-3.0517578e-05,-0.00032043457
2019-07-01T20:13:21.742Z,0.010887781,-0.012333376,0.9938553,0.23880005,-0.21870422,9.802444,2.7908325,-15.692139,-37.088013,0.23871084,-0.21703759,9.801342,-0.00042776763,-0.00043649971,0.00024414062,0.00012207031,3.0517578e-05,0.0
2019-07-01T20:13:21.945Z,0.010893432,-0.012354225,0.99385417,0.23880005,-0.21846008,9.803162,3.981018,-15.898132,-38.01117,0.2388673,-0.21743,9.80133,0.0006342828,-0.0010019839,-0.0011129379,-6.1035156e-05,9.1552734e-05,-0.00032043457
2019-07-01T20:13:22.172Z,0.010884042,-0.012373409,0.9938569,0.23664856,-0.21678162,9.803162,2.0736694,-15.441895,-37.765503,0.23871963,-0.2178304,9.801324,-0.00018794835,-0.0010819286,0.00068950653,0.00018310547,-3.0517578e-05,-6.1035156e-05
2019-07-01T20:13:22.363Z,0.010848748,-0.012354037,0.9938658,0.23760986,-0.21870422,9.804108,2.8930664,-14.944458,-38.528442,0.23797375,-0.21754669,9.801349,-0.0013695955,0.00031737983,0.00045681,-0.00018310547,3.0517578e-05,-0.00012207031
2019-07-01T20:13:22.550Z,0.010847124,-0.012360115,0.9938663,0.23951721,-0.21774292,9.8029175,1.9378662,-15.174866,-36.04126,0.23795398,-0.21766987,9.801346,7.882714e-05,0.00020164251,0.00047016144,0.00024414062,3.0517578e-05,-0.00012207031
2019-07-01T20:13:22.756Z,0.010871289,-0.012352158,0.9938599,0.23953247,-0.2172699,9.803879,1.802063,-15.965271,-38.464355,0.23842038,-0.21744925,9.801339,0.00081558526,-0.00073421,0.00014305115,6.1035156e-05,-9.1552734e-05,-0.00012207031
2019-07-01T20:13:22.991Z,0.010906985,-0.012356292,0.99385065,0.23880005,-0.22013855,9.803879,2.8274536,-16.558838,-37.947083,0.23914248,-0.21743385,9.801322,0.0012682527,-0.00073571503,0.0014410019,-6.1035156e-05,0.00015258789,-0.0002593994
2019-07-01T20:13:23.178Z,0.01090286,-0.012392858,0.9938523,0.23976135,-0.21846008,9.803635,3.755188,-15.470886,-38.59558,0.23913638,-0.21815996,9.801307,8.9511275e-05,-0.0014486015,-0.0004749298,-6.1035156e-05,-9.1552734e-05,0.00024414062
2019-07-01T20:13:23.381Z,0.010905863,-0.01239817,0.9938516,0.23976135,-0.2163086,9.802673,1.7288208,-15.901184,-37.919617,0.23920749,-0.21825573,9.801303,2.3931265e-05,-0.0006407201,-0.0004720688,0.00012207031,-9.1552734e-05,-1.5258789e-05
2019-07-01T20:13:23.625Z,0.01091867,-0.0123697445,0.9938478,0.23760986,-0.21846008,9.80722,2.9190063,-16.333008,-37.82959,0.23940416,-0.21766539,9.8013115,5.055964e-05,0.0011694729,0.00048160553,6.1035156e-05,3.0517578e-05,0.0
2019-07-01T20:13:23.822Z,0.010894944,-0.012381883,0.99385417,0.23832703,-0.21559143,9.803879,2.6367188,-15.708923,-36.405945,0.23895523,-0.21796672,9.801315,-0.0011906326,-0.0004118234,0.0022382736,-0.00012207031,-0.00015258789,-6.1035156e-05
2019-07-01T20:13:24.028Z,0.010890771,-0.012336039,0.9938545,0.23760986,-0.21655273,9.8029175,3.5171509,-15.490723,-38.21106,0.23877613,-0.21708158,9.801339,-0.0005211234,0.0015556067,-0.0013771057,0.00012207031,3.0517578e-05,-0.00032043457
2019-07-01T20:13:24.227Z,0.010867017,-0.012318035,0.9938604,0.23545837,-0.21534729,9.802444,2.7114868,-15.318298,-39.12506,0.23826383,-0.21679357,9.801358,-0.001192987,0.0005450249,-0.0004386902,6.1035156e-05,-3.0517578e-05,-0.00032043457
2019-07-01T20:13:24.433Z,0.01082221,-0.012282898,0.99387157,0.23664856,-0.21534729,9.801727,2.5543213,-15.486145,-37.490845,0.23729502,-0.21622713,9.8013935,-0.0018826872,0.0006776601,-0.0015687943,0.00012207031,3.0517578e-05,-6.1035156e-05
2019-07-01T20:13:24.631Z,0.010811584,-0.012258419,0.99387395,0.23641968,-0.2141571,9.804108,2.0080566,-15.161133,-37.402344,0.23703164,-0.21577711,9.801411,-0.0006620139,0.0006904006,-0.00089359283,-0.00012207031,-0.00015258789,0.00030517578
2019-07-01T20:13:24.837Z,0.010821546,-0.012228239,0.99387085,0.23880005,-0.21751404,9.8022,2.241516,-15.058899,-38.824463,0.2371678,-0.21516024,9.801421,-6.2167645e-05,0.0015044808,-0.00026607513,6.1035156e-05,-3.0517578e-05,6.1035156e-05
2019-07-01T20:13:25.040Z,0.010856408,-0.012276447,0.9938625,0.23736572,-0.2163086,9.805069,2.4749756,-15.415955,-37.92572,0.237965,-0.21600899,9.801382,0.001037553,-0.0019402653,0.00078201294,6.1035156e-05,-0.00015258789,6.1035156e-05
2019-07-01T20:13:25.241Z,0.010852949,-0.012296155,0.99386376,0.23712158,-0.21774292,9.8022,2.4841309,-15.270996,-37.747192,0.237937,-0.21640363,9.801374,-0.0006251186,-0.0008173138,0.001004219,0.0,-0.00019836426,-0.00012207031
2019-07-01T20:13:25.440Z,0.010850181,-0.0123099545,0.9938647,0.23928833,-0.21679688,9.805542,2.6885986,-15.905762,-38.563538,0.23791045,-0.2166809,9.801369,-0.0008352399,-0.0005467683,-0.0006055832,-6.1035156e-05,-0.00019836426,0.0
2019-07-01T20:13:25.646Z,0.0108825285,-0.012298854,0.9938561,0.23808289,-0.21702576,9.799561,2.3010254,-15.641785,-38.267517,0.23853378,-0.21637674,9.80136,0.00069341063,0.00035245717,0.0011968613,6.1035156e-05,-3.0517578e-05,6.1035156e-05
2019-07-01T20:13:25.848Z,0.010878634,-0.012326009,0.99385756,0.24047852,-0.21846008,9.802444,2.2979736,-15.716553,-38.356018,0.23851264,-0.21691819,9.80135,-0.00021778047,-0.0007954836,-0.0023937225,6.1035156e-05,-9.1552734e-05,0.00012207031
2019-07-01T20:13:26.054Z,0.010910799,-0.012340516,0.9938494,0.23832703,-0.21678162,9.803879,2.6443481,-15.184021,-38.26294,0.23918578,-0.21711512,9.801329,0.0010157824,-0.0008421689,9.536743e-07,6.1035156e-05,-0.00015258789,4.5776367e-05
2019-07-01T20:13:26.257Z,0.010899855,-0.012320186,0.9938519,0.23832703,-0.21511841,9.803879,3.262329,-15.571594,-39.19983,0.23892461,-0.21674713,9.801343,-0.00087992847,0.00047321618,0.00047969818,6.1035156e-05,9.1552734e-05,-0.0002593994
2019-07-01T20:13:26.455Z,0.010882013,-0.012292958,0.99385613,0.237854,-0.221344,9.8033905,2.140808,-15.80658,-37.38861,0.23851119,-0.21626285,9.801364,-0.00047193468,0.0007109642,0.00047779083,6.1035156e-05,-3.0517578e-05,-6.1035156e-05
2019-07-01T20:13:26.660Z,0.010872381,-0.0123691615,0.9938599,0.23951721,-0.21536255,9.803879,2.0706177,-15.440369,-37.991333,0.23847769,-0.21777877,9.8013315,-0.00043724477,-0.0032823235,-0.00015830994,0.0,3.0517578e-05,-0.00018310547
2019-07-01T20:13:26.865Z,0.010886256,-0.012340766,0.9938558,0.23568726,-0.21534729,9.803162,2.696228,-15.913391,-37.50763,0.23869574,-0.21718617,9.801338,0.000545755,0.0013932139,0.00037288666,-6.1035156e-05,-3.0517578e-05,-6.1035156e-05
2019-07-01T20:13:27.067Z,0.010845565,-0.012298945,0.9938657,0.23904419,-0.2182312,9.804825,2.3895264,-15.567017,-37.953186,0.23779525,-0.21647808,9.801376,-0.0016704202,0.0016499907,0.0004119873,6.1035156e-05,3.0517578e-05,-6.1035156e-05
2019-07-01T20:13:27.266Z,0.010864379,-0.012325835,0.99386126,0.23640442,-0.21751404,9.800522,1.8356323,-15.235901,-38.16681,0.23822734,-0.21695317,9.801354,0.0007544309,-0.0016942024,0.0009012222,6.1035156e-05,-3.0517578e-05,-0.00018310547
2019-07-01T20:13:27.473Z,0.010846553,-0.0123376325,0.9938661,0.23808289,-0.21751404,9.803162,2.3010254,-15.567017,-38.705444,0.23789568,-0.21723184,9.801357,0.0011030287,-0.0004695356,0.001364708,0.0,3.0517578e-05,-0.00038146973
2019-07-01T20:13:27.687Z,0.010845321,-0.012325499,0.9938662,0.23617554,-0.2163086,9.802429,2.0874023,-15.2282715,-37.1933,0.23784573,-0.2169979,9.801363,-0.00075124204,0.00071401894,-0.0014848709,0.00012207031,3.0517578e-05,-0.0002593994
2019-07-01T20:13:27.883Z,0.01083345,-0.012303594,0.99386895,0.237854,-0.2172699,9.800293,2.8533936,-15.821838,-38.62915,0.2375628,-0.21660157,9.801379,-0.00069639087,0.00054581463,-3.4332275e-05,-6.1035156e-05,-3.0517578e-05,-0.00019836426
2019-07-01T20:13:28.140Z,0.010825894,-0.0123346,0.99387145,0.23832703,-0.21559143,9.8033905,2.381897,-15.713501,-37.83264,0.23747644,-0.21722814,9.801368,-0.00034464896,-0.0012273192,-0.0017719269,6.1035156e-05,-3.0517578e-05,-6.1035156e-05
2019-07-01T20:13:28.336Z,0.01084925,-0.0122965565,0.9938647,0.23617554,-0.21655273,9.8022,3.1692505,-15.945435,-38.81836,0.2378639,-0.21642144,9.801375,0.0006837845,0.0015685409,0.0015354156,0.0,-3.0517578e-05,-0.00018310547
2019-07-01T20:13:28.538Z,0.010813345,-0.012277229,0.9938738,0.24072266,-0.21655273,9.80101,2.6062012,-16.134644,-37.927246,0.23710604,-0.21614014,9.8014,-0.0016635954,9.019673e-05,-0.0005760193,6.1035156e-05,-3.0517578e-05,-0.0002593994
2019-07-01T20:13:28.741Z,0.010895974,-0.012311257,0.9938528,0.23808289,-0.21655273,9.8022,3.0914307,-16.104126,-37.56256,0.2388284,-0.21658301,9.801349,0.003310129,-0.00091430545,9.441376e-05,6.1035156e-05,-0.00015258789,4.5776367e-05
2019-07-01T20:13:28.931Z,0.010877532,-0.012304081,0.99385744,0.23760986,-0.2172699,9.804352,3.5446167,-16.578674,-38.5849,0.23844485,-0.21649238,9.80136,-0.001099959,-4.1425228e-05,0.00022697449,6.1035156e-05,-3.0517578e-05,0.0
2019-07-01T20:13:29.133Z,0.01087245,-0.012307606,0.9938589,0.23880005,-0.21655273,9.802673,2.3086548,-17.16919,-38.882446,0.23835064,-0.21657503,9.801361,-0.00052694976,-0.00042316318,0.0007829666,6.1035156e-05,3.0517578e-05,6.1035156e-05
2019-07-01T20:13:29.355Z,0.010858412,-0.012300921,0.9938624,0.23568726,-0.21463013,9.803162,2.39563,-15.34729,-38.061523,0.23805614,-0.21648213,9.801371,-0.00023283064,-4.2691827e-05,3.9100647e-05,0.0,-3.0517578e-05,6.1035156e-05
2019-07-01T20:13:29.551Z,0.010859611,-0.012264875,0.9938615,0.24047852,-0.21751404,9.803879,2.9464722,-15.673828,-38.1485,0.2380049,-0.21577409,9.801387,-0.00043331087,0.0016516894,0.0006713867,-6.1035156e-05,-9.1552734e-05,0.00012207031
2019-07-01T20:13:29.753Z,0.01088595,-0.012301671,0.99385524,0.23904419,-0.21655273,9.802444,1.7654419,-15.020752,-38.420105,0.23860808,-0.21642262,9.801358,0.000868544,-0.0010546148,0.00013637543,0.0,-0.00015258789,0.00012207031
2019-07-01T20:13:29.958Z,0.010905163,-0.012313904,0.9938504,0.23760986,-0.2163086,9.8033905,2.015686,-16.529846,-39.041138,0.23901759,-0.21661,9.801344,0.0004595667,-0.00037945807,-6.866455e-05,6.1035156e-05,-3.0517578e-05,-0.0002593994
2019-07-01T20:13:30.159Z,0.010865139,-0.012294013,0.99386054,0.23712158,-0.21798706,9.8022,3.2546997,-15.867615,-38.50403,0.23817617,-0.21632895,9.801371,-0.0018030405,6.262958e-05,0.00059223175,0.00018310547,9.1552734e-05,0.0
2019-07-01T20:13:30.358Z,0.010851012,-0.012316262,0.9938646,0.2359314,-0.21559143,9.8029175,2.682495,-16.127014,-38.23242,0.23794024,-0.216802,9.801366,-0.00061045587,-0.0013964623,-0.00088977814,0.00012207031,-0.00019836426,-0.00012207031
2019-07-01T20:13:30.564Z,0.01083116,-0.01227653,0.9938691,0.237854,-0.21534729,9.8029175,3.2699585,-15.426636,-38.867188,0.23746061,-0.21607858,9.8013935,-0.0015591681,0.0009874254,-0.00042915344,0.0,-3.0517578e-05,0.00012207031
2019-07-01T20:13:30.767Z,0.0108601,-0.012263758,0.9938614,0.2400055,-0.21679688,9.8022,2.0721436,-15.441895,-37.84027,0.23801233,-0.21575095,9.801387,0.0007572472,0.00066018105,3.1471252e-05,-6.1035156e-05,-0.00019836426,6.1035156e-05
2019-07-01T20:13:30.965Z,0.010889769,-0.012305074,0.9938543,0.23664856,-0.21870422,9.805786,3.5064697,-15.483093,-39.115906,0.23869146,-0.21647885,9.801354,0.00078850985,-0.0010014176,0.00050735474,-0.00012207031,-9.1552734e-05,6.1035156e-05
2019-07-01T20:13:31.167Z,0.010872708,-0.012335288,0.99385923,0.24023438,-0.2182312,9.803162,2.5894165,-16.349792,-38.72528,0.23841354,-0.21711557,9.801347,-0.0011027902,-0.001294449,0.0014619827,6.1035156e-05,-9.1552734e-05,0.0
2019-07-01T20:13:31.373Z,0.010882444,-0.012354857,0.993857,0.23857117,-0.21655273,9.804352,3.010559,-16.035461,-37.92572,0.23864898,-0.21747197,9.801333,0.00058574975,-0.00071038306,-0.0001449585,0.0,-3.0517578e-05,0.0
2019-07-01T20:13:31.575Z,0.010898759,-0.012344369,0.99385256,0.23951721,-0.21846008,9.802673,2.786255,-15.686035,-37.843323,0.23895317,-0.21722291,9.8013315,0.00027288496,0.0004826337,0.00071048737,-6.1035156e-05,3.0517578e-05,-0.00012207031
2019-07-01T20:13:31.780Z,0.010892405,-0.01235942,0.99385446,0.23760986,-0.21774292,9.804352,2.7069092,-15.617371,-37.902832,0.23885761,-0.21753435,9.801328,-0.00034283102,-0.00040134788,-0.00047969818,-6.1035156e-05,-0.0002593994,-7.6293945e-05
2019-07-01T20:13:31.981Z,0.010901471,-0.012375687,0.9938524,0.23904419,-0.2172699,9.805069,2.3773193,-15.786743,-37.92267,0.23907278,-0.21782798,9.801316,-0.00056001544,-0.00035001338,0.00016880035,-6.1035156e-05,-9.1552734e-05,0.00012207031
2019-07-01T20:13:32.187Z,0.01088743,-0.012354822,0.9938557,0.23713684,-0.21559143,9.804108,3.1723022,-15.643311,-40.190125,0.23874855,-0.21745782,9.801331,-0.00073456764,0.0009678453,0.0009088516,-6.1035156e-05,-0.00015258789,-0.00012207031
2019-07-01T20:13:32.382Z,0.010876508,-0.012324432,0.99385804,0.23808289,-0.2172699,9.8022,2.8564453,-15.44342,-40.438843,0.23846684,-0.21689306,9.801351,-0.0011670887,0.00088861585,-0.00018405914,6.1035156e-05,-3.0517578e-05,6.1035156e-05
2019-07-01T20:13:32.692Z,0.010851622,-0.012321682,0.99386454,0.23857117,-0.21679688,9.80722,2.5161743,-15.905762,-39.99176,0.23796372,-0.21690634,9.801363,7.890165e-05,0.00039030612,-0.0013093948,6.1035156e-05,-3.0517578e-05,-0.00018310547
2019-07-01T20:13:32.896Z,0.010851584,-0.012341737,0.99386483,0.2368927,-0.21751404,9.803635,3.3859253,-16.362,-39.59198,0.2380048,-0.21729857,9.801353,0.0004917979,-0.0008645505,0.002796173,-0.00012207031,-9.1552734e-05,0.00012207031
2019-07-01T20:13:33.101Z,0.010851897,-0.012348717,0.9938649,0.23545837,-0.21368408,9.8029175,2.8533936,-15.592957,-39.86664,0.23802562,-0.2174342,9.80135,-0.0009587556,0.00022821128,-0.00035190582,0.00012207031,-0.00019836426,0.0
2019-07-01T20:13:33.307Z,0.010818267,-0.012275937,0.99387246,0.23951721,-0.2163086,9.800766,3.3233643,-16.157532,-38.48877,0.23720172,-0.21610166,9.801399,-0.0020376742,0.0022344142,-0.0015172958,0.00012207031,-3.0517578e-05,-6.1035156e-05
2019-07-01T20:13:33.404Z,0.010862615,-0.01227722,0.9938609,0.23832703,-0.21702576,9.803635,3.0853271,-15.8706665,-39.6286,0.23809066,-0.21600738,9.801379,0.0016320348,-0.00026614964,-0.0010137558,0.0,-0.00019836426,0.00012207031
2019-07-01T20:13:33.610Z,0.010872762,-0.01229121,0.9938585,0.2359314,-0.21559143,9.8033905,2.482605,-15.194702,-37.956238,0.23832266,-0.2162536,9.801369,-0.00028400123,-0.00073203444,0.00044727325,0.0,-9.1552734e-05,0.00012207031
2019-07-01T20:13:33.811Z,0.010848515,-0.012263827,0.99386436,0.23474121,-0.2172699,9.802429,1.9546509,-16.175842,-38.36212,0.23778094,-0.21578348,9.801392,-0.001179561,0.0009520203,0.00029850006,0.0,3.0517578e-05,0.0
2019-07-01T20:13:34.013Z,0.010805047,-0.012286805,0.9938761,0.23857117,-0.21463013,9.803635,2.7526855,-16.26587,-38.63983,0.23696016,-0.21634968,9.801399,-0.0017835349,-0.00088587403,-0.0007543564,-6.1035156e-05,3.0517578e-05,-0.0001373291
2019-07-01T20:13:34.214Z,0.010812649,-0.012253745,0.9938736,0.23760986,-0.2163086,9.8033905,2.055359,-15.730286,-38.575745,0.23704317,-0.21568288,9.801413,5.2914023e-05,0.0015628636,0.00029277802,-6.1035156e-05,-3.0517578e-05,0.00024414062
2019-07-01T20:13:34.422Z,0.010833029,-0.012275443,0.99386865,0.23641968,-0.21606445,9.801956,1.7745972,-14.953613,-37.501526,0.2374957,-0.21605231,9.8013935,0.00055517256,-0.00070017576,-0.0007581711,0.00018310547,-0.00015258789,0.0
2019-07-01T20:13:34.616Z,0.010809661,-0.012263661,0.99387455,0.237854,-0.21655273,9.800766,2.5909424,-16.503906,-37.623596,0.23700413,-0.21588477,9.801409,-0.00086577237,-0.0003899634,0.00044441223,6.1035156e-05,-9.1552734e-05,-6.1035156e-05
2019-07-01T20:13:34.822Z,0.010843181,-0.012280248,0.993866,0.23664856,-0.21655273,9.801239,1.9821167,-15.821838,-36.85608,0.23770863,-0.21611893,9.801387,0.0006041378,-0.0004208386,-0.0019254684,6.1035156e-05,-9.1552734e-05,0.00018310547
2019-07-01T20:13:35.027Z,0.010835665,-0.012273903,0.99386793,0.2359314,-0.21487427,9.803635,3.0151367,-15.661621,-39.282227,0.23754518,-0.21601509,9.801393,-0.00042809546,-3.1396747e-05,0.00046539307,0.0,-3.0517578e-05,0.0
2019-07-01T20:13:35.227Z,0.010792851,-0.012248369,0.99387866,0.2368927,-0.21655273,9.802444,2.4932861,-14.976501,-38.064575,0.23663631,-0.21563093,9.801422,-0.0016889721,0.00053326786,0.0003080368,0.00012207031,0.00021362305,6.1035156e-05
2019-07-01T20:13:35.431Z,0.010786381,-0.012259306,0.9938805,0.23832703,-0.2141571,9.799088,2.0507812,-16.030884,-37.35504,0.2365298,-0.21586218,9.80142,0.00059489906,-0.000908345,-0.00091362,0.0,-3.0517578e-05,6.1035156e-05
2019-07-01T20:13:35.633Z,0.010831287,-0.012248908,0.99386865,0.23640442,-0.2182312,9.801239,2.734375,-15.187073,-36.909485,0.23740557,-0.21553816,9.801407,0.0013914108,0.0009108335,-0.0007677078,-6.1035156e-05,-9.1552734e-05,0.0
2019-07-01T20:13:35.836Z,0.010817989,-0.012276976,0.9938726,0.23760986,-0.21391296,9.802673,3.8467407,-15.249634,-38.3255,0.23719831,-0.21612272,9.801398,-0.0007889718,-0.0013957918,-0.00067329407,6.1035156e-05,-0.00015258789,-6.1035156e-05
2019-07-01T20:13:36.042Z,0.010828753,-0.012252385,0.99386936,0.2359314,-0.21368408,9.801956,2.1987915,-16.160583,-38.14087,0.23736216,-0.21561295,9.801406,-0.00023593009,0.0012213588,0.0013170242,0.0,-0.00015258789,6.1035156e-05
2019-07-01T20:13:36.242Z,0.010810642,-0.012208345,0.99387336,0.23736572,-0.21679688,9.801956,1.9943237,-15.52887,-36.872864,0.2369084,-0.21480057,9.8014345,-0.001241684,0.001135096,0.0008773804,0.00024414062,9.1552734e-05,0.0
2019-07-01T20:13:36.448Z,0.010813766,-0.012234544,0.993873,0.2368927,-0.21487427,9.803879,2.696228,-15.837097,-38.02185,0.23702545,-0.21530442,9.80142,0.0005697757,-0.0017080456,-0.0005426407,0.00018310547,3.0517578e-05,-6.1035156e-05
2019-07-01T20:13:36.646Z,0.010824826,-0.012191932,0.99386936,0.23664856,-0.21176147,9.801712,3.1951904,-15.589905,-37.461853,0.23715757,-0.21444148,9.801435,-0.0002901852,0.0007802993,0.00090789795,0.00012207031,-0.00019836426,0.00030517578
2019-07-01T20:13:36.849Z,0.01083868,-0.012148873,0.9938651,0.23617554,-0.2172699,9.802673,2.307129,-15.57312,-37.950134,0.23734456,-0.21356231,9.801451,0.00025230646,0.001568377,-0.000992775,6.1035156e-05,3.0517578e-05,6.1035156e-05
2019-07-01T20:13:37.053Z,0.0107947495,-0.012201147,0.9938774,0.23617554,-0.21559143,9.803879,2.281189,-16.004944,-38.868713,0.23657584,-0.21470255,9.801445,-0.0013879836,-0.002299279,0.0010976791,-0.00018310547,-3.0517578e-05,-6.1035156e-05
2019-07-01T20:13:37.252Z,0.010781602,-0.012237894,0.9938814,0.23736572,-0.21440125,9.802444,3.742981,-15.763855,-38.427734,0.23638971,-0.21545638,9.801434,-0.00048981607,-0.0008234978,0.00042247772,-6.1035156e-05,3.0517578e-05,0.0
2019-07-01T20:13:37.459Z,0.010799558,-0.012233598,0.9938767,0.23617554,-0.21798706,9.803162,3.0654907,-16.461182,-38.920593,0.23673956,-0.2153241,9.801427,0.0008314252,0.0004851967,0.0005979538,0.00012207031,-9.1552734e-05,0.0
2019-07-01T20:13:37.660Z,0.010801908,-0.012246401,0.9938763,0.23904419,-0.21751404,9.8022,2.546692,-15.6311035,-37.747192,0.2368132,-0.21556813,9.80142,-0.00044496357,-0.0014247149,-0.00024414062,6.1035156e-05,-9.1552734e-05,0.0
2019-07-01T20:13:37.866Z,0.010820512,-0.012289709,0.9938721,0.23570251,-0.21702576,9.8029175,2.6351929,-15.403748,-38.005066,0.23727529,-0.2163649,9.801392,0.0010225624,-0.0013514161,-0.00063991547,0.00018310547,0.00015258789,0.0
2019-07-01T20:13:38.067Z,0.01079988,-0.012286,0.9938774,0.23832703,-0.21702576,9.8022,2.0751953,-16.963196,-39.131165,0.23685522,-0.21634784,9.801402,-0.0004672259,-0.0008931309,0.00020503998,-6.1035156e-05,-3.0517578e-05,0.00022888184
2019-07-01T20:13:38.271Z,0.010808447,-0.012303015,0.9938755,0.23760986,-0.21487427,9.800522,1.8936157,-15.893555,-37.47101,0.23706189,-0.21665749,9.80139,0.00028383732,-0.00012111664,-0.0009775162,0.0,3.0517578e-05,6.1035156e-05
2019-07-01T20:13:38.477Z,0.010831002,-0.012267726,0.993869,0.23617554,-0.21583557,9.803879,2.5039673,-16.349792,-39.25171,0.2374391,-0.21590684,9.801397,0.0006298721,0.0015182495,-0.00048828125,-6.1035156e-05,-3.0517578e-05,6.1035156e-05
2019-07-01T20:13:38.682Z,0.010806199,-0.012278732,0.9938757,0.23976135,-0.2172699,9.801239,3.2409668,-16.238403,-38.050842,0.23696634,-0.21618873,9.801402,-0.00081418455,-0.0005868226,0.00079250336,-6.1035156e-05,-3.0517578e-05,-0.0001373291
2019-07-01T20:13:38.879Z,0.01086906,-0.012281681,0.9938593,0.23976135,-0.21606445,9.803879,2.041626,-16.099548,-38.12256,0.23822877,-0.21607725,9.801374,0.0010304898,0.000268057,0.00034713745,6.1035156e-05,-0.00015258789,-6.1035156e-05
2019-07-01T20:13:39.129Z,0.010913562,-0.01229854,0.99384797,0.23951721,-0.21463013,9.803162,3.753662,-15.621948,-38.020325,0.23915336,-0.21628693,9.801348,0.0012790114,-0.00022406876,0.0013570786,0.00024414062,9.1552734e-05,-6.1035156e-05
2019-07-01T20:13:39.276Z,0.010893674,-0.012250944,0.9938524,0.237854,-0.21678162,9.804352,2.0629883,-15.585327,-38.320923,0.2386565,-0.21540995,9.801379,-0.00086444616,0.00082197785,9.346008e-05,6.1035156e-05,-3.0517578e-05,4.5776367e-05
2019-07-01T20:13:39.482Z,0.010887062,-0.012272406,0.99385446,0.23951721,-0.2163086,9.802444,2.3590088,-16.149902,-38.145447,0.2385692,-0.2158474,9.801372,-0.0002937764,-0.0011316687,0.00038719177,0.0,-9.1552734e-05,-0.00012207031
2019-07-01T20:13:39.688Z,0.010911881,-0.012274938,0.993848,0.23808289,-0.21534729,9.803162,1.9119263,-15.301514,-38.63678,0.23907045,-0.21582995,9.801359,0.0008857101,-0.00018996,-0.00022029877,6.1035156e-05,-3.0517578e-05,0.00012207031
2019-07-01T20:13:39.887Z,0.010901113,-0.012273062,0.99385077,0.23880005,-0.21749878,9.8033905,2.4490356,-15.847778,-38.8443,0.23885135,-0.21582232,9.801365,-0.00056768954,2.5942922e-05,-0.0004711151,0.0,9.1552734e-05,-0.00032043457
2019-07-01T20:13:40.087Z,0.010898161,-0.012280291,0.99385166,0.237854,-0.21798706,9.797409,3.0563354,-16.607666,-38.87329,0.23880745,-0.21597165,9.801363,0.00020474195,-0.001025185,-0.00096321106,0.00012207031,9.1552734e-05,-0.00032043457
2019-07-01T20:13:40.294Z,0.010872848,-0.012319354,0.99385893,0.23857117,-0.21583557,9.803879,2.3910522,-15.415955,-38.45215,0.2383831,-0.21680364,9.801354,-0.0007840395,-0.0014024675,-0.0017499924,-6.1035156e-05,3.0517578e-05,-0.00018310547
2019-07-01T20:13:40.499Z,0.010872158,-0.012297628,0.99385875,0.237854,-0.21534729,9.801239,3.1173706,-15.444946,-37.882996,0.23832402,-0.21638075,9.801367,0.00022950768,0.001049459,0.00058174133,-6.1035156e-05,-3.0517578e-05,-0.00012207031
2019-07-01T20:13:40.711Z,0.0108681945,-0.01227906,0.99385947,0.23857117,-0.21511841,9.803879,3.2592773,-15.72113,-38.700867,0.238206,-0.21602832,9.801375,-0.0003682524,0.0006957799,-8.869171e-05,-6.1035156e-05,3.0517578e-05,-0.00012207031
2019-07-01T20:13:40.909Z,0.010859955,-0.012277894,0.9938616,0.23568726,-0.21678162,9.802673,2.619934,-15.846252,-37.568665,0.23803891,-0.21602772,9.80138,-0.0006943047,0.00021131337,0.0004234314,6.1035156e-05,-9.1552734e-05,-0.00012207031
2019-07-01T20:13:41.103Z,0.01083032,-0.012277753,0.99386936,0.23857117,-0.21272278,9.801483,3.262329,-15.724182,-38.323975,0.2374464,-0.21610475,9.8013935,-0.0012989491,-0.00017827749,0.0006084442,0.0,-0.00015258789,-0.00018310547
2019-07-01T20:13:41.318Z,0.010863966,-0.012232364,0.9938598,0.23449707,-0.21655273,9.8029175,1.9165039,-15.382385,-37.594604,0.23802406,-0.2151267,9.8014,0.00052788854,0.0019482672,-0.00070858,0.00012207031,-9.1552734e-05,-0.00012207031
2019-07-01T20:13:41.515Z,0.0108228335,-0.012230189,0.99387056,0.23880005,-0.21583557,9.803879,2.230835,-15.4296875,-38.146973,0.23719756,-0.21519487,9.801418,-0.0017657876,-0.0013337433,0.0006284714,0.00030517578,3.0517578e-05,-0.00018310547
2019-07-01T20:13:41.722Z,0.010840492,-0.012218336,0.9938657,0.23760986,-0.21464539,9.800766,2.609253,-16.062927,-37.913513,0.23752573,-0.21491562,9.801417,0.00076927245,-0.00017380714,0.00042247772,6.1035156e-05,3.0517578e-05,-0.0002593994
2019-07-01T20:13:41.922Z,0.010843139,-0.012225911,0.9938652,0.23736572,-0.21846008,9.805069,2.192688,-16.383362,-37.582397,0.23759443,-0.2150566,9.801413,-0.00048147142,-0.00028431416,-0.00067043304,-6.1035156e-05,-9.1552734e-05,-0.00050354004
2019-07-01T20:13:42.127Z,0.01083978,-0.012273203,0.9938668,0.23664856,-0.21463013,9.8029175,2.307129,-15.496826,-38.237,0.23762593,-0.2159903,9.801391,-6.020069e-05,-0.0019566268,0.0016288757,0.00012207031,-9.1552734e-05,-0.00038146973
2019-07-01T20:13:42.324Z,0.010826877,-0.012227842,0.9938694,0.237854,-0.21559143,9.801239,1.6998291,-16.40625,-38.85193,0.2372735,-0.21513811,9.801418,-0.00064875185,0.0010025948,-0.0016365051,0.00036621094,-9.1552734e-05,-0.00018310547
2019-07-01T20:13:42.530Z,0.010829709,-0.012226626,0.9938687,0.2368927,-0.21702576,9.802444,2.191162,-16.229248,-38.83667,0.23732755,-0.21510674,9.801418,-0.00024370849,-0.001167655,0.0011310577,0.00012207031,3.0517578e-05,-0.0002593994
2019-07-01T20:13:42.728Z,0.010830138,-0.012250897,0.99386895,0.237854,-0.21702576,9.802673,2.2903442,-15.937805,-38.023376,0.23738673,-0.2155801,9.801406,0.00019706786,-0.0011778474,-0.000998497,0.00018310547,3.0517578e-05,-0.00032043457
2019-07-01T20:13:42.933Z,0.010833342,-0.012275354,0.9938685,0.23760986,-0.21606445,9.8029175,3.378296,-14.8376465,-38.75122,0.23750177,-0.21604972,9.8013935,0.0003260076,-0.0016693324,-3.1471252e-05,0.00012207031,3.0517578e-05,-6.1035156e-05
2019-07-01T20:13:43.140Z,0.010830535,-0.012258468,0.993869,0.23951721,-0.21751404,9.80484,2.6260376,-15.698242,-37.838745,0.23741044,-0.21572709,9.801402,-7.2434545e-05,0.00016084313,0.00012683868,6.1035156e-05,3.0517578e-05,-6.1035156e-05
2019-07-01T20:13:43.343Z,0.010871493,-0.012284793,0.99385875,0.23521423,-0.21534729,9.801483,2.1209717,-16.093445,-38.20343,0.23828389,-0.21613152,9.801372,0.001670599,-0.001092121,0.0018434525,-0.00012207031,9.1552734e-05,0.0
2019-07-01T20:13:43.541Z,0.01082433,-0.012265028,0.99387074,0.23832703,-0.21607971,9.805786,2.230835,-15.505981,-37.70752,0.23730014,-0.21587206,9.801402,-0.0014048219,0.0007864684,-0.0011644363,0.00012207031,3.0517578e-05,0.0
2019-07-01T20:13:43.747Z,0.010833818,-0.012264247,0.99386823,0.2368927,-0.21487427,9.8029175,2.84729,-16.119385,-37.934875,0.23748812,-0.21583124,9.801397,6.41495e-05,-0.00019614398,0.0017681122,0.0,-0.00015258789,-0.00012207031
2019-07-01T20:13:43.950Z,0.010825596,-0.012262618,0.9938704,0.23928833,-0.21702576,9.8022,3.3370972,-15.940857,-37.91809,0.2373204,-0.21582152,9.801402,-0.0004762411,3.0100346e-05,-0.00073337555,-6.1035156e-05,9.1552734e-05,6.1035156e-05
2019-07-01T20:13:44.151Z,0.010858486,-0.012275371,0.993862,0.23951721,-0.21702576,9.801239,3.086853,-16.099548,-38.16681,0.2380043,-0.21598235,9.801382,0.0014735162,-6.16014e-05,-0.00080394745,0.0,3.0517578e-05,0.0
2019-07-01T20:13:44.350Z,0.010868377,-0.012290847,0.99385965,0.23928833,-0.21655273,9.803635,2.079773,-15.220642,-38.24768,0.23823427,-0.2162583,9.801371,0.0007864386,-0.000517264,-0.0013418198,0.0,-9.1552734e-05,0.00018310547
2019-07-01T20:13:44.557Z,0.010911867,-0.01231313,0.9938486,0.23951721,-0.21655273,9.804108,2.2766113,-14.558411,-37.29248,0.23914994,-0.21657677,9.801341,0.0012879968,-0.00065638125,0.0013475418,0.0,-9.1552734e-05,-6.1035156e-05
2019-07-01T20:13:44.766Z,0.010898458,-0.012285505,0.9938517,0.23570251,-0.21487427,9.804352,1.5945435,-15.252686,-38.15918,0.23882428,-0.2160728,9.80136,-0.0007828176,0.00051884353,0.00010204315,0.00030517578,-3.0517578e-05,0.00010681152
2019-07-01T20:13:44.959Z,0.010852131,-0.012266164,0.99386346,0.23664856,-0.21606445,9.801956,2.6916504,-15.83252,-38.55133,0.23785807,-0.21581943,9.801389,-0.0019854903,3.7238002e-05,0.0015001297,0.0,9.1552734e-05,0.00030517578
2019-07-01T20:13:45.166Z,0.01081369,-0.012269557,0.9938736,0.23474121,-0.2163086,9.800278,3.5110474,-15.637207,-38.087463,0.23709694,-0.21598922,9.801404,-0.0012032241,-0.0007580817,-0.0017223358,0.00012207031,-3.0517578e-05,-6.1035156e-05
2019-07-01T20:13:45.390Z,0.0108084185,-0.012281499,0.99387515,0.23808289,-0.2172699,9.8033905,2.1606445,-15.065002,-38.822937,0.2370165,-0.21623689,9.801401,0.00031024218,-0.0012415946,0.0015830994,6.1035156e-05,-0.00032043457,0.00018310547
2019-07-01T20:13:45.585Z,0.0108226845,-0.012284001,0.99387145,0.2349701,-0.2131958,9.801956,2.7893066,-15.539551,-38.191223,0.23730682,-0.21624745,9.8013935,1.2785196e-05,-0.00026327372,0.00058078766,0.00018310547,3.0517578e-05,6.1035156e-05
2019-07-01T20:13:45.834Z,0.010800641,-0.012216873,0.9938761,0.23713684,-0.2141571,9.800522,3.0899048,-15.953064,-38.363647,0.23672634,-0.21499418,9.8014345,-0.0013023317,0.001585424,-0.00090026855,0.00018310547,-3.0517578e-05,-0.0001373291
2019-07-01T20:13:46.028Z,0.01082277,-0.012205379,0.99387014,0.23808289,-0.21343994,9.8033905,2.7145386,-15.473938,-37.721252,0.23714459,-0.21470998,9.801432,0.0006841272,0.00033162534,-0.0007638931,0.00018310547,3.0517578e-05,6.1035156e-05
2019-07-01T20:13:46.223Z,0.010832493,-0.01216494,0.9938669,0.23928833,-0.21343994,9.803162,2.0019531,-17.048645,-38.08899,0.23725452,-0.21389315,9.801447,0.00057661533,0.0009468645,-0.00019168854,-6.1035156e-05,3.0517578e-05,-0.00032043457
2019-07-01T20:13:46.433Z,0.010859229,-0.012171821,0.99386007,0.23713684,-0.2172699,9.805313,2.2720337,-16.377258,-37.81128,0.23780303,-0.21395569,9.801432,0.0012098104,7.092953e-05,0.00066661835,-6.1035156e-05,-0.00015258789,0.00024414062
2019-07-01T20:13:46.636Z,0.010860697,-0.0122315055,0.99386066,0.23904419,-0.2141571,9.801956,3.0960083,-15.882874,-37.971497,0.23795696,-0.21511872,9.801402,-0.0003979951,-0.0021051615,0.0015707016,6.1035156e-05,-0.00019836426,0.00012207031
2019-07-01T20:13:46.842Z,0.010889449,-0.0122068245,0.99385273,0.23713684,-0.21751404,9.804596,2.9937744,-16.323853,-38.51013,0.23847996,-0.21455868,9.801402,4.7042966e-05,0.00091432035,-0.00054359436,6.1035156e-05,-0.00015258789,0.00024414062
2019-07-01T20:13:47.041Z,0.010877072,-0.0122711025,0.993857,0.23760986,-0.21702576,9.80101,2.444458,-15.919495,-38.9328,0.23836683,-0.21584883,9.801376,-0.0005609542,-0.0028118193,0.00027942657,0.0,-0.00015258789,0.0
2019-07-01T20:13:47.243Z,0.010859142,-0.012259859,0.99386156,0.2368927,-0.21511841,9.80484,2.2079468,-15.864563,-38.612366,0.23798506,-0.21567729,9.80139,-0.0011327714,-0.00035054982,-0.0006093979,0.00012207031,3.0517578e-05,-6.1035156e-05
2019-07-01T20:13:47.450Z,0.01084227,-0.012255106,0.99386585,0.23832703,-0.21534729,9.8033905,2.3712158,-15.78064,-38.676453,0.237638,-0.2156298,9.8014,-0.00054977834,0.00032661855,0.000702858,-0.00012207031,-9.1552734e-05,-1.5258789e-05
2019-07-01T20:13:47.700Z,0.010858191,-0.012263799,0.99386185,0.23570251,-0.21798706,9.8029175,2.0004272,-15.30304,-37.657166,0.23797426,-0.2157569,9.801388,0.00030593574,0.0002079308,-0.00015544891,-0.00012207031,3.0517578e-05,6.1035156e-05
2019-07-01T20:13:47.853Z,0.010818588,-0.012291413,0.99387264,0.2359314,-0.21511841,9.804596,2.708435,-15.620422,-37.75177,0.23724039,-0.21640338,9.801392,-0.0015830845,-0.0005811602,-9.727478e-05,-0.00012207031,-9.1552734e-05,0.00012207031
2019-07-01T20:13:48.053Z,0.010786221,-0.012284949,0.993881,0.2368927,-0.21655273,9.8033905,2.709961,-15.46936,-38.249207,0.23658003,-0.21636398,9.801408,-0.0014114529,0.0003413111,9.059906e-05,-6.1035156e-05,9.1552734e-05,0.00022888184
2019-07-01T20:13:48.257Z,0.010792939,-0.0122802835,0.99387914,0.23664856,-0.2141571,9.8022,2.3864746,-15.640259,-37.59308,0.23670459,-0.21625471,9.801408,0.00061269104,0.00021925569,0.00022029877,6.1035156e-05,3.0517578e-05,-6.1035156e-05
2019-07-01T20:13:48.458Z,0.010802127,-0.012237034,0.99387604,0.23951721,-0.2172699,9.802444,2.4353027,-16.215515,-38.69171,0.2367981,-0.2153844,9.801425,5.0485134e-05,0.0012674183,-0.000333786,0.00030517578,-0.00015258789,-6.1035156e-05
2019-07-01T20:13:48.661Z,0.010849697,-0.012267407,0.9938641,0.23641968,-0.21511841,9.803162,2.0248413,-16.386414,-38.633728,0.23781203,-0.21585031,9.80139,0.0014357865,-0.0016269535,-0.0003862381,-6.1035156e-05,3.0517578e-05,-0.0002593994
2019-07-01T20:13:48.868Z,0.010829431,-0.012254798,0.99386925,0.23976135,-0.21511841,9.802444,2.7359009,-14.959717,-37.997437,0.23738076,-0.2156583,9.801405,-0.0010037869,0.00034981966,0.00022220612,6.1035156e-05,-3.0517578e-05,-6.1035156e-05
2019-07-01T20:13:49.072Z,0.010868001,-0.0122422725,0.99385893,0.23760986,-0.21655273,9.8033905,3.1982422,-15.516663,-37.446594,0.23812538,-0.21530958,9.801394,0.0013565868,0.00071132183,-0.00064468384,0.00012207031,-0.00015258789,0.0
2019-07-01T20:13:49.268Z,0.010867134,-0.012254721,0.99385935,0.23904419,-0.21702576,9.80603,2.7420044,-16.635132,-38.035583,0.23813403,-0.21555531,9.801389,-9.1031194e-05,-0.0012054592,0.00035953522,6.1035156e-05,-3.0517578e-05,6.1035156e-05
2019-07-01T20:13:49.478Z,0.010883221,-0.012276708,0.99385554,0.23951721,-0.21774292,9.80603,3.4179688,-15.859985,-38.208008,0.23850143,-0.21594188,9.801372,0.0004839301,-0.0008017272,0.0015239716,0.0,-3.0517578e-05,6.1035156e-05
2019-07-01T20:13:49.678Z,0.010893523,-0.012303442,0.9938533,0.2368927,-0.21534729,9.8029175,2.861023,-15.67688,-38.523865,0.23876311,-0.21643682,9.801354,0.00044971704,-0.0010087788,0.001332283,0.0,-3.0517578e-05,0.00012207031
2019-07-01T20:13:49.883Z,0.010833701,-0.012268708,0.99386835,0.23641968,-0.21511841,9.8033905,3.831482,-15.692139,-37.81128,0.23799793,-0.21622026,9.801377,-0.0014194548,0.00044836104,-0.00038433075,-6.1035156e-05,9.1552734e-05,6.1035156e-05
2019-07-01T20:13:50.081Z,0.01083968,-0.012243449,0.9938664,0.2400055,-0.21368408,9.805786,2.9388428,-15.821838,-37.727356,0.2375619,-0.21540883,9.801406,0.00024344027,0.0008228421,-0.0009698868,0.00012207031,3.0517578e-05,0.00012207031
2019-07-01T20:13:50.287Z,0.010877807,-0.01222975,0.9938562,0.23617554,-0.21678162,9.805542,2.7511597,-16.339111,-38.502502,0.2382952,-0.21503831,9.801396,0.0016379505,0.00022934377,0.0019025803,0.0,-9.1552734e-05,0.00024414062
2019-07-01T20:13:50.488Z,0.010832482,-0.012248032,0.9938683,0.2368927,-0.21368408,9.80603,2.1957397,-16.233826,-38.157654,0.23742762,-0.2155178,9.801407,-0.0020503998,-0.0007171184,0.00078487396,6.1035156e-05,3.0517578e-05,0.00018310547
2019-07-01T20:13:50.685Z,0.010840038,-0.012204698,0.9938656,0.23617554,-0.2182312,9.8033905,3.3203125,-16.2323,-38.20343,0.2374882,-0.21465018,9.801424,-0.00020577013,0.001285553,0.00020694733,0.0,-0.00015258789,0.00018310547
2019-07-01T20:13:50.894Z,0.0108166225,-0.012265774,0.99387276,0.23783875,-0.21511841,9.804596,2.5482178,-15.4800415,-38.24463,0.23714764,-0.21590735,9.801404,-0.0008036345,-0.002254963,-0.0006532669,0.00012207031,-9.1552734e-05,0.0
2019-07-01T20:13:51.098Z,0.010830053,-0.012252598,0.993869,0.23904419,-0.21798706,9.803635,2.62146,-15.69519,-38.365173,0.2373886,-0.21561363,9.801406,-0.00010283291,0.00033898652,0.00036144257,-6.1035156e-05,-9.1552734e-05,0.00010681152
2019-07-01T20:13:51.296Z,0.0108527085,-0.012307926,0.993864,0.23808289,-0.21678162,9.801727,2.29187,-15.939331,-37.797546,0.23795676,-0.21663445,9.80137,0.00077295303,-0.0022498816,-0.0008764267,6.1035156e-05,-0.0002593994,0.0
2019-07-01T20:13:51.504Z,0.010876011,-0.012301571,0.9938578,0.2337799,-0.21870422,9.803635,2.0812988,-15.298462,-37.58545,0.2384092,-0.21644741,9.801362,-0.0003721863,0.0004245937,-0.002008438,0.0,-0.00019836426,0.00012207031
2019-07-01T20:13:51.700Z,0.010800703,-0.01232461,0.9938778,0.23808289,-0.21655273,9.805069,1.864624,-16.400146,-38.328552,0.23695211,-0.21710055,9.801383,-0.0032280982,-0.0013083518,0.0009012222,-6.1035156e-05,3.0517578e-05,6.1035156e-05
2019-07-01T20:13:51.907Z,0.010823816,-0.012329451,0.9938719,0.23713684,-0.21463013,9.803879,2.670288,-16.57257,-37.416077,0.23742417,-0.21713305,9.801371,0.00084136426,0.00040766597,0.00044250488,0.0,-9.1552734e-05,0.00030517578
2019-07-01T20:13:52.112Z,0.010834698,-0.012296057,0.9938685,0.23880005,-0.21751404,9.8022,3.2348633,-16.2323,-38.804626,0.23757206,-0.21645087,9.801383,-0.00026725233,0.0011591017,-1.7166138e-05,-0.00012207031,-3.0517578e-05,0.00018310547
2019-07-01T20:13:52.320Z,0.0108529385,-0.012291945,0.9938637,0.23832703,-0.21487427,9.804825,2.7023315,-15.461731,-39.305115,0.237928,-0.21632135,9.801376,0.00082075596,0.00028826296,-0.00081539154,6.1035156e-05,3.0517578e-05,0.00018310547
2019-07-01T20:13:52.518Z,0.010841607,-0.0122767035,0.9938664,0.23760986,-0.21559143,9.803879,2.7114868,-15.318298,-39.12506,0.23766977,-0.21605384,9.801389,-0.00012362003,0.0007644743,0.0010519028,0.0,-3.0517578e-05,6.1035156e-05
2019-07-01T20:13:52.719Z,0.01083845,-0.012267648,0.9938671,0.23449707,-0.21583557,9.802673,2.9403687,-15.592957,-39.03961,0.23758778,-0.21588528,9.801394,-0.00028254092,0.00034879148,-0.00025463104,-6.1035156e-05,9.1552734e-05,-6.1035156e-05
2019-07-01T20:13:52.919Z,0.010797037,-0.0122607015,0.99387777,0.23736572,-0.2163086,9.8033905,3.0166626,-15.814209,-38.105774,0.23674569,-0.21586083,9.801415,-0.0015834421,-0.00017146766,-0.0006504059,0.00024414062,-9.1552734e-05,0.00024414062
2019-07-01T20:13:53.125Z,0.0108079985,-0.012261534,0.9938749,0.23904419,-0.21679688,9.803879,2.6916504,-16.137695,-37.02545,0.23696646,-0.21584763,9.80141,0.0003464371,-0.0006569922,4.005432e-05,-6.1035156e-05,3.0517578e-05,0.00024414062
2019-07-01T20:13:53.324Z,0.010837384,-0.012276732,0.9938675,0.23880005,-0.21559143,9.803864,3.4851074,-16.148376,-38.267517,0.2375854,-0.21606575,9.80139,0.0011551976,4.0099025e-05,0.0005092621,0.00012207031,-9.1552734e-05,0.00018310547
2019-07-01T20:13:53.527Z,0.010875397,-0.01227381,0.9938575,0.23928833,-0.21774292,9.801483,1.5701294,-15.914917,-37.539673,0.238339,-0.21590628,9.801375,0.00090266764,-0.00011590123,-0.0010938644,-6.1035156e-05,-9.1552734e-05,0.00018310547
2019-07-01T20:13:53.734Z,0.010884161,-0.012309948,0.99385583,0.24119568,-0.21798706,9.803635,2.9434204,-15.823364,-37.5,0.23858957,-0.21658926,9.801354,0.0004066974,-0.0011101365,6.67572e-05,-0.00018310547,-9.1552734e-05,0.0004119873
2019-07-01T20:13:53.938Z,0.0109344395,-0.0123652285,0.9938436,0.23857117,-0.22013855,9.805786,2.6168823,-15.690613,-38.893127,0.23970988,-0.2175345,9.801306,0.0019149035,-0.0013740361,-0.0004272461,6.1035156e-05,-3.0517578e-05,0.00012207031
2019-07-01T20:13:54.140Z,0.010898865,-0.012378783,0.9938531,0.23928833,-0.21702576,9.8029175,2.633667,-15.325928,-38.819885,0.23902714,-0.21789552,9.801315,-0.001230821,-0.0012291521,0.0011453629,6.1035156e-05,-3.0517578e-05,6.1035156e-05
2019-07-01T20:13:54.341Z,0.010932752,-0.012355761,0.99384385,0.24095154,-0.21702576,9.803635,1.713562,-16.191101,-38.354492,0.23965639,-0.21735395,9.8013115,0.0005168021,0.0013297349,0.0002937317,-0.00012207031,-0.00019836426,6.1035156e-05
2019-07-01T20:13:54.547Z,0.010945333,-0.012376011,0.99384093,0.23713684,-0.21272278,9.804825,3.5736084,-15.995789,-38.243103,0.23995018,-0.21771595,9.801297,0.00022996962,-0.00046607852,-0.0005931854,6.1035156e-05,-9.1552734e-05,0.00035095215
2019-07-01T20:13:54.745Z,0.010909632,-0.012268813,0.9938485,0.23928833,-0.21774292,9.800522,1.9012451,-15.59906,-38.01422,0.2390127,-0.21571627,9.801363,-0.0019408613,0.004013464,0.0010404587,0.00012207031,-3.0517578e-05,0.00018310547
2019-07-01T20:13:54.948Z,0.010916926,-0.012301246,0.99384713,0.23976135,-0.2172699,9.801712,2.3651123,-16.079712,-37.756348,0.23922624,-0.21633075,9.801345,0.00025586784,-0.0018687099,-0.0025053024,0.0,-9.1552734e-05,-6.1035156e-05
2019-07-01T20:13:55.152Z,0.0109334495,-0.012311068,0.99384296,0.23664856,-0.21391296,9.801483,3.251648,-16.018677,-38.08136,0.23957695,-0.2164782,9.801332,-8.6292624e-05,-0.00027941167,-0.00070762634,6.1035156e-05,-0.00019836426,0.00024414062
2019-07-01T20:13:55.356Z,0.010898272,-0.0122706955,0.9938515,0.23928833,-0.21559143,9.802444,1.7990112,-16.116333,-37.96692,0.23878962,-0.21578372,9.801367,-0.0019207299,0.0014039725,-0.00014400482,6.1035156e-05,-3.0517578e-05,0.0
2019-07-01T20:13:55.560Z,0.010914897,-0.012277666,0.99384725,0.23832703,-0.21774292,9.80722,2.0004272,-15.2282715,-37.794495,0.2391364,-0.21587515,9.801356,0.00059613585,-0.0006515682,0.00037956238,6.1035156e-05,-0.00015258789,0.00022888184
2019-07-01T20:13:55.756Z,0.010888432,-0.01228448,0.9938543,0.23713684,-0.21607971,9.804596,2.4505615,-16.003418,-37.51526,0.23862177,-0.21607977,9.801365,-0.001552999,-0.00042514503,0.0020074844,6.1035156e-05,3.0517578e-05,0.0004119873
2019-07-01T20:13:55.964Z,0.0108672315,-0.01228481,0.9938598,0.23857117,-0.21846008,9.803635,2.2262573,-15.577698,-37.94861,0.23819879,-0.21614335,9.801374,-0.00089998543,-0.00034865737,0.0011854172,0.0,-3.0517578e-05,0.0
2019-07-01T20:13:56.162Z,0.010859316,-0.012314437,0.9938624,0.23928833,-0.21606445,9.806503,2.381897,-15.866089,-36.80725,0.23810239,-0.21674396,9.801363,-8.273125e-05,-0.0014297068,-0.000330925,0.00012207031,3.0517578e-05,0.00018310547
2019-07-01T20:13:56.371Z,0.010904332,-0.012299526,0.9938504,0.24072266,-0.21798706,9.802673,2.2155762,-15.7196045,-38.58185,0.23897094,-0.21633108,9.801351,0.0016693175,0.0005701035,0.0015287399,-6.1035156e-05,-9.1552734e-05,0.00012207031
2019-07-01T20:13:56.590Z,0.01092226,-0.012309195,0.9938459,0.23617554,-0.21679688,9.805069,2.3468018,-16.442871,-38.130188,0.23934941,-0.21647176,9.801338,-0.001075983,0.00021164119,-0.0013332367,0.0,-3.0517578e-05,0.00018310547
2019-07-01T20:13:56.790Z,0.010866069,-0.012305886,0.9938605,0.23713684,-0.2172699,9.8033905,2.3025513,-15.72113,-37.678528,0.23821954,-0.21655858,9.801365,-0.0021072477,-0.00040967762,0.0008583069,0.0,-0.00015258789,6.1035156e-05
2019-07-01T20:13:57.034Z,0.010852338,-0.012311396,0.9938642,0.23857117,-0.21774292,9.805069,1.8737793,-16.409302,-37.046814,0.23795657,-0.21670328,9.801367,-0.0008781105,-0.0002693087,-0.00038146973,0.00024414062,-9.1552734e-05,6.1035156e-05
2019-07-01T20:13:57.230Z,0.010861599,-0.012321039,0.9938619,0.23951721,-0.21679688,9.802444,2.758789,-16.192627,-38.549805,0.2381618,-0.2168669,9.801359,9.2193484e-05,-0.001053676,0.0011777878,0.0,-3.0517578e-05,0.0
2019-07-01T20:13:57.434Z,0.010901594,-0.012321248,0.9938515,0.23951721,-0.21678162,9.803635,3.2562256,-15.794373,-38.565063,0.23896158,-0.21676321,9.801342,0.000989899,0.00025948882,-0.0016012192,0.0,-0.00019836426,0.00022888184
2019-07-01T20:13:57.640Z,0.010905133,-0.012313829,0.9938504,0.23736572,-0.21655273,9.803635,2.9953003,-16.403198,-37.620544,0.23901682,-0.2166086,9.801344,-0.0004905164,9.652972e-05,-0.0007390976,6.1035156e-05,-3.0517578e-05,6.1035156e-05
2019-07-01T20:13:57.839Z,0.010908293,-0.012332457,0.9938499,0.23928833,-0.21679688,9.801712,1.8783569,-16.25824,-37.695312,0.23911889,-0.21696432,9.801334,-0.00012925267,-0.0007290989,0.00078201294,6.1035156e-05,-0.00015258789,0.000289917
2019-07-01T20:13:58.040Z,0.010903026,-0.012309003,0.9938509,0.23474121,-0.21583557,9.8033905,3.1845093,-15.655518,-38.607788,0.23896463,-0.2165199,9.801347,-0.00043073297,0.00071810186,-0.0013914108,-6.1035156e-05,3.0517578e-05,6.1035156e-05
2019-07-01T20:13:58.244Z,0.010838531,-0.012295432,0.9938675,0.23976135,-0.21534729,9.805069,2.7267456,-15.332031,-37.165833,0.23764735,-0.21642832,9.801381,-0.0029561669,0.00016529858,0.0011510849,0.0,-0.00015258789,-6.1035156e-05
2019-07-01T20:13:58.446Z,0.010876676,-0.012273341,0.9938572,0.23928833,-0.21679688,9.80484,2.0004272,-15.2282715,-37.869263,0.23836358,-0.21589367,9.801375,0.0010980219,0.0010697693,0.0004453659,0.00018310547,-0.00015258789,0.00035095215
2019-07-01T20:13:58.651Z,0.010898216,-0.012290669,0.99385184,0.2359314,-0.21678162,9.8033905,2.9891968,-16.471863,-38.391113,0.23883021,-0.2161744,9.801357,0.0006213188,-0.0007919222,0.0007867813,-0.00012207031,-9.1552734e-05,6.1035156e-05
2019-07-01T20:13:58.858Z,0.01084737,-0.012313567,0.9938655,0.23736572,-0.21751404,9.804596,2.56958,-15.26947,-37.147522,0.2378618,-0.2167591,9.801368,-0.0027091652,-0.0009276718,-0.00027179718,0.0,-9.1552734e-05,0.00018310547
2019-07-01T20:13:59.054Z,0.010852613,-0.012301417,0.99386394,0.2368927,-0.21774292,9.8029175,2.09198,-14.926147,-38.415527,0.23794125,-0.21650742,9.801372,7.069111e-05,0.00026337802,0.00077438354,-6.1035156e-05,9.1552734e-05,0.00018310547
2019-07-01T20:13:59.253Z,0.010833318,-0.012327521,0.9938694,0.23832703,-0.2182312,9.803162,2.8060913,-15.020752,-38.764954,0.23761007,-0.21706976,9.801368,-0.000308007,-0.00085915625,-0.00060367584,0.0,3.0517578e-05,-6.1035156e-05
2019-07-01T20:13:59.455Z,0.01084509,-0.012348875,0.9938667,0.23951721,-0.21678162,9.805069,2.1453857,-15.507507,-38.233948,0.23788989,-0.21745561,9.8013525,0.0006374717,-0.0007355362,-0.0016746521,0.0,3.0517578e-05,0.00012207031
2019-07-01T20:13:59.660Z,0.010849569,-0.012340534,0.9938654,0.23760986,-0.2172699,9.8033905,2.6641846,-14.897156,-37.298584,0.23796201,-0.21728045,9.801354,0.0005441457,0.00078709424,0.0017528534,0.0,-9.1552734e-05,-0.00018310547
2019-07-01T20:13:59.862Z,0.010856424,-0.012344422,0.99386364,0.23664856,-0.2163086,9.8033905,2.380371,-15.711975,-37.90741,0.23810716,-0.21733804,9.801351,-0.0003130585,-0.0003502071,-0.00042533875,0.00018310547,-9.1552734e-05,6.1035156e-05
2019-07-01T20:14:00.067Z,0.010837582,-0.012303145,0.9938679,0.23545837,-0.21487427,9.8029175,2.4002075,-15.351868,-37.4588,0.23764448,-0.21658167,9.801378,-0.0010536611,0.00079874694,-0.00012493134,-6.1035156e-05,3.0517578e-05,4.5776367e-05
2019-07-01T20:14:00.278Z,0.010802715,-0.012260627,0.9938763,0.23953247,-0.21655273,9.804596,2.571106,-15.045166,-37.779236,0.236859,-0.21584411,9.801413,-0.0016966462,0.0014901459,-0.0003976822,0.00018310547,-0.00019836426,-0.0002593994
2019-07-01T20:14:00.470Z,0.010871828,-0.012289138,0.9938587,0.23808289,-0.21774292,9.806747,2.1087646,-14.79187,-36.953735,0.23829967,-0.21621561,9.801371,0.0018883646,-0.0017155558,0.00069236755,6.1035156e-05,-0.00015258789,6.1035156e-05
2019-07-01T20:14:00.673Z,0.010864829,-0.012304092,0.9938608,0.23976135,-0.21655273,9.806747,3.1661987,-16.171265,-38.1073,0.238191,-0.21652684,9.801366,-0.00091362,-0.00041860342,0.0022192001,0.00012207031,-9.1552734e-05,0.00024414062
2019-07-01T20:14:00.876Z,0.01089533,-0.012299344,0.99385273,0.237854,-0.21534729,9.804825,3.1234741,-15.298462,-38.08136,0.23879065,-0.21635179,9.801354,0.0015905201,-0.00011275709,0.0006799698,0.0,-3.0517578e-05,0.0
2019-07-01T20:14:01.076Z,0.010874824,-0.01227819,0.99385774,0.23880005,-0.21870422,9.803635,2.39563,-15.34729,-37.983704,0.23833668,-0.21599345,9.8013735,-0.0010575503,0.00072462857,-0.00082683563,-6.1035156e-05,-9.1552734e-05,6.1035156e-05
2019-07-01T20:14:01.280Z,0.010892622,-0.012338009,0.9938541,0.237854,-0.2163086,9.8029175,2.682495,-16.12854,-38.23242,0.23826249,-0.21714309,9.801351,-0.0014521182,0.00043649971,-0.0001411438,-0.00018310547,-9.1552734e-05,0.00030517578
2019-07-01T20:14:01.479Z,0.01086428,-0.012321011,0.9938612,0.23760986,-0.21440125,9.801483,2.2094727,-15.866089,-38.38501,0.23821533,-0.21685915,9.801358,-0.00020551682,0.0010901093,-0.0007305145,-6.1035156e-05,-9.1552734e-05,0.00024414062
2019-07-01T20:14:01.684Z,0.010874135,-0.012289084,0.9938581,0.237854,-0.21511841,9.803635,2.0065308,-15.159607,-37.628174,0.23834567,-0.21620831,9.801369,-0.00053705275,0.0013752133,-0.002240181,0.0,-0.00015258789,0.000289917
2019-07-01T20:14:01.882Z,0.010860603,-0.012268094,0.9938613,0.2400055,-0.21798706,9.8029175,2.84729,-15.968323,-38.658142,0.23803143,-0.21583438,9.801385,-0.0011886209,0.0007612109,0.00042438507,-6.1035156e-05,-0.00015258789,6.1035156e-05
2019-07-01T20:14:02.096Z,0.010896107,-0.01232946,0.99385303,0.24023438,-0.21606445,9.804596,3.4317017,-15.5685425,-38.150024,0.23886907,-0.21693857,9.80134,0.0015606135,-0.0019654483,-0.0001821518,-6.1035156e-05,9.1552734e-05,0.00024414062
2019-07-01T20:14:02.297Z,0.010913415,-0.012312423,0.9938482,0.23832703,-0.2163086,9.8033905,3.4210205,-15.863037,-37.82959,0.23917939,-0.21655875,9.80134,0.0007728785,0.0010154992,0.00035762787,-6.1035156e-05,-3.0517578e-05,0.00012207031
2019-07-01T20:14:02.506Z,0.010910951,-0.012310895,0.99384886,0.23857117,-0.21894836,9.803635,2.6382446,-15.405273,-37.78076,0.23912695,-0.21653552,9.801342,-0.00038474798,0.00027929246,0.00039482117,0.00018310547,-0.00032043457,0.0
2019-07-01T20:14:02.709Z,0.010908778,-0.012354845,0.9938501,0.23857117,-0.2182312,9.804108,2.7008057,-15.611267,-38.656616,0.23917529,-0.21740073,9.801322,-0.0006637722,-0.0024394393,0.000111579895,0.00018310547,3.0517578e-05,0.0
2019-07-01T20:14:02.910Z,0.010909477,-0.012335879,0.99384964,0.23832703,-0.21536255,9.802444,3.8162231,-15.829468,-38.89618,0.23914966,-0.21702799,9.801331,-0.00016596913,-0.00018700957,6.866455e-05,6.1035156e-05,-0.00015258789,0.00018310547
2019-07-01T20:14:03.112Z,0.010888339,-0.012304301,0.99385464,0.23976135,-0.21679688,9.810333,3.1280518,-16.819763,-39.219666,0.23866129,-0.21646759,9.801355,-0.0013460219,0.0011508018,-0.0007543564,6.1035156e-05,-3.0517578e-05,6.1035156e-05
2019-07-01T20:14:03.311Z,0.010909358,-0.0123062525,0.99384916,0.2368927,-0.21702576,9.802444,1.5731812,-15.841675,-37.74872,0.23908544,-0.21644907,9.801346,0.00058451295,-0.00026507676,0.0033330917,-6.1035156e-05,-9.1552734e-05,4.5776367e-05
2019-07-01T20:14:03.514Z,0.01087385,-0.012302034,0.9938584,0.23760986,-0.21607971,9.804352,3.35083,-15.65094,-37.70752,0.238367,-0.2164623,9.801363,-0.0015589297,0.00023056567,-0.0004911423,0.0,-3.0517578e-05,0.00030517578
2019-07-01T20:14:03.723Z,0.010870664,-0.012290285,0.99385905,0.23880005,-0.21678162,9.803635,3.3599854,-15.507507,-37.301636,0.2382788,-0.21624115,9.80137,-0.00027637184,0.0004785955,-0.0003271103,0.0,3.0517578e-05,0.00012207031
2019-07-01T20:14:03.940Z,0.010876189,-0.012332265,0.9938583,0.23808289,-0.21774292,9.8029175,1.8600464,-14.804077,-37.475586,0.23847681,-0.21704708,9.801347,2.5719404e-05,-0.001350522,-0.0010070801,0.0,-9.1552734e-05,0.0
2019-07-01T20:14:04.124Z,0.010880618,-0.012315845,0.99385685,0.23640442,-0.21655273,9.803146,2.017212,-15.245056,-35.531616,0.23853108,-0.21671411,9.801353,-2.0340085e-05,0.00021627545,-0.00067424774,0.00012207031,-9.1552734e-05,6.1035156e-05
2019-07-01T20:14:04.331Z,0.010843816,-0.012303267,0.99386626,0.23857117,-0.21942139,9.8022,2.8121948,-15.026855,-38.087463,0.23776932,-0.2165673,9.801375,-0.0016499013,6.568432e-05,-0.0002975464,-6.1035156e-05,3.0517578e-05,0.0
2019-07-01T20:14:04.534Z,0.010858115,-0.012349744,0.9938633,0.23904419,-0.21536255,9.802673,2.9449463,-15.522766,-38.723755,0.23815204,-0.21743755,9.801347,0.0006109774,-0.0017058849,-0.0016317368,0.0,-0.00019836426,0.0
2019-07-01T20:14:04.737Z,0.010874477,-0.01233616,0.9938588,0.23928833,-0.2172699,9.804596,2.998352,-16.255188,-38.119507,0.23845074,-0.21712784,9.801346,-0.00016483665,0.00085668266,0.00035476685,6.1035156e-05,-0.00015258789,0.00024414062
2019-07-01T20:14:04.939Z,0.01088869,-0.012335988,0.99385506,0.23880005,-0.21655273,9.803635,2.0645142,-15.586853,-38.171387,0.23873445,-0.21708618,9.80134,0.00025977194,-0.00013829768,0.0007162094,-0.00012207031,3.0517578e-05,0.00012207031
2019-07-01T20:14:05.142Z,0.010895648,-0.012326954,0.9938531,0.24072266,-0.21511841,9.801239,1.7211914,-16.046143,-38.17444,0.23885465,-0.2168908,9.801341,0.00013571978,0.0008599609,0.00032901764,6.1035156e-05,3.0517578e-05,6.1035156e-05
2019-07-01T20:14:05.341Z,0.01093619,-0.012294549,0.993842,0.23808289,-0.21511841,9.801956,2.684021,-16.052246,-38.519287,0.23959725,-0.21614781,9.80134,0.0015670359,0.0013018847,-0.0018587112,6.1035156e-05,-0.00015258789,0.00012207031
2019-07-01T20:14:05.545Z,0.010925042,-0.012287466,0.99384475,0.23712158,-0.21798706,9.802673,1.7059326,-16.33606,-38.53607,0.23935965,-0.21603942,9.801348,-0.0010602623,-8.940697e-08,-0.00027942657,0.00018310547,-0.00015258789,0.00012207031
2019-07-01T20:14:05.751Z,0.010885868,-0.0122782625,0.9938549,0.23617554,-0.21534729,9.802673,3.1982422,-15.515137,-37.597656,0.23855758,-0.21596514,9.80137,-0.0019417107,-0.0010310262,0.0004491806,0.00018310547,3.0517578e-05,0.00024414062
2019-07-01T20:14:05.948Z,0.010853459,-0.012259652,0.99386305,0.237854,-0.2172699,9.802444,2.218628,-15.72113,-38.053894,0.23787104,-0.21568853,9.801392,-0.0014793873,-0.00012163818,-0.00034618378,0.00018310547,-0.00015258789,0.00012207031
2019-07-01T20:14:06.154Z,0.010856982,-0.012270478,0.9938623,0.23736572,-0.21774292,9.801956,2.3422241,-14.996338,-36.77826,0.23796406,-0.21589074,9.801386,-0.00038529932,-0.0006337762,0.00025081635,-6.1035156e-05,-3.0517578e-05,6.1035156e-05
2019-07-01T20:14:06.372Z,0.010827669,-0.012318381,0.99387074,0.23736572,-0.21678162,9.803635,1.7852783,-16.333008,-38.38806,0.23747808,-0.21690622,9.8013735,-0.00085508823,-0.0017746538,-0.00047302246,-6.1035156e-05,-9.1552734e-05,6.1035156e-05
2019-07-01T20:14:06.562Z,0.010843911,-0.012309762,0.9938663,0.23664856,-0.21774292,9.801483,2.9464722,-15.59906,-38.05847,0.23778477,-0.21669403,9.801373,3.7893653e-05,0.00041398406,0.0004825592,0.00012207031,-0.00019836426,0.0
2019-07-01T20:14:06.762Z,0.010840264,-0.012323103,0.9938675,0.2359314,-0.21655273,9.803635,1.6983032,-16.557312,-38.354492,0.2377397,-0.2169647,9.801368,-0.0011128485,-0.00052952766,-0.0007791519,-6.1035156e-05,-9.1552734e-05,-6.1035156e-05
2019-07-01T20:14:06.968Z,0.010808594,-0.012306921,0.9938755,0.2368927,-0.21798706,9.803635,2.8549194,-15.899658,-37.965393,0.23707297,-0.21673349,9.801389,-0.0014199167,0.00021201372,0.0010766983,0.00012207031,-0.00015258789,0.00012207031
2019-07-01T20:14:07.166Z,0.010812002,-0.012332141,0.993875,0.23951721,-0.21966553,9.802429,2.709961,-15.46936,-38.249207,0.23719364,-0.21721742,9.801374,-9.6067786e-05,-0.0012067109,0.0003938675,-6.1035156e-05,3.0517578e-05,6.1035156e-05
2019-07-01T20:14:07.375Z,0.010856388,-0.01236721,0.993864,0.237854,-0.21511841,9.803879,2.998352,-16.253662,-38.1958,0.23815395,-0.2177837,9.801339,0.0022848248,-0.0013571978,-5.722046e-05,0.00012207031,9.1552734e-05,0.0
2019-07-01T20:14:07.577Z,0.010838144,-0.012318412,0.993868,0.237854,-0.21559143,9.801483,1.8600464,-16.395569,-38.856506,0.23768756,-0.21687868,9.801371,-0.00083333254,0.0017953664,-3.9100647e-05,0.0,-0.00015258789,-6.1035156e-05
2019-07-01T20:14:07.803Z,0.010878284,-0.012321691,0.99385756,0.23953247,-0.21559143,9.8029175,2.8244019,-16.63208,-37.812805,0.23849663,-0.2168347,9.801352,0.00025218725,9.9658966e-05,0.0008945465,6.1035156e-05,-9.1552734e-05,0.00024414062
2019-07-01T20:14:07.981Z,0.010919817,-0.012293922,0.99384624,0.23976135,-0.21846008,9.804352,2.1316528,-15.950012,-37.64496,0.23926872,-0.21617976,9.801348,0.00093974173,0.0010985583,-0.000834465,0.0,-3.0517578e-05,-6.1035156e-05
2019-07-01T20:14:08.188Z,0.010909013,-0.012330431,0.9938497,0.23904419,-0.21678162,9.8033905,2.279663,-16.156006,-38.220215,0.23912905,-0.21692275,9.801334,-0.0003773272,-0.0014934987,0.0005636215,6.1035156e-05,-3.0517578e-05,0.00018310547
2019-07-01T20:14:08.390Z,0.010909295,-0.012319218,0.9938494,0.23880005,-0.21678162,9.806274,2.3208618,-15.357971,-37.37793,0.23911124,-0.21670274,9.801339,0.00011841953,0.00020317733,0.00085163116,6.1035156e-05,9.1552734e-05,0.00012207031
2019-07-01T20:14:08.643Z,0.010900719,-0.012318336,0.99385166,0.237854,-0.21751404,9.801712,3.1021118,-15.811157,-37.731934,0.23893803,-0.21670865,9.801344,3.6761165e-05,-0.0002541691,0.00087833405,0.0,3.0517578e-05,6.1035156e-05
2019-07-01T20:14:08.839Z,0.01087208,-0.01231973,0.9938592,0.23928833,-0.21798706,9.806503,1.725769,-15.821838,-39.035034,0.23836857,-0.21681309,9.801356,-0.0012845546,-0.00040875375,-0.0013275146,0.00012207031,-0.00015258789,0.00022888184
2019-07-01T20:14:09.050Z,0.010899714,-0.01234581,0.9938524,0.24047852,-0.21511841,9.804596,3.1173706,-15.444946,-37.957764,0.23897529,-0.21724853,9.801331,0.00070253015,-0.0013797581,0.0024633408,0.00012207031,-0.00015258789,0.0
2019-07-01T20:14:09.245Z,0.010931478,-0.012293166,0.9938432,0.23570251,-0.21440125,9.805313,2.4353027,-16.137695,-39.05182,0.23950015,-0.21613349,9.801342,0.00043691695,0.0017939806,-0.0012254715,0.00012207031,-9.1552734e-05,0.00018310547
2019-07-01T20:14:09.451Z,0.010872282,-0.012254513,0.99385804,0.23783875,-0.21678162,9.802444,2.1377563,-15.652466,-38.490295,0.23823649,-0.21553737,9.801387,-0.0028505921,0.0009728223,0.00045585632,0.00012207031,-0.0002593994,0.00030517578
2019-07-01T20:14:09.652Z,0.010883345,-0.012268456,0.99385536,0.24119568,-0.2182312,9.804108,2.4108887,-14.979553,-38.137817,0.23848668,-0.21578018,9.801375,-0.00072048604,-0.0009357929,-4.7683716e-06,-6.1035156e-05,-3.0517578e-05,0.00022888184
2019-07-01T20:14:09.858Z,0.010919575,-0.0123225935,0.9938468,0.23808289,-0.21917725,9.805786,2.8533936,-15.898132,-38.11493,0.23932372,-0.21674098,9.801332,0.0018020123,-0.0018998682,-0.0003194809,6.1035156e-05,-9.1552734e-05,0.0
2019-07-01T20:14:10.059Z,0.010904747,-0.012348574,0.99385107,0.23857117,-0.21368408,9.8029175,2.6565552,-16.714478,-38.124084,0.23908164,-0.21728899,9.801327,-0.0005876124,-0.0013451278,0.000579834,-6.1035156e-05,-3.0517578e-05,0.00018310547
2019-07-01T20:14:10.260Z,0.0109021915,-0.012294427,0.9938509,0.23713684,-0.2163086,9.804596,2.5009155,-14.981079,-37.234497,0.23891751,-0.21623717,9.801354,-0.00090391934,0.0026157945,-0.0005617142,0.0,-9.1552734e-05,0.00012207031
2019-07-01T20:14:10.463Z,0.010886346,-0.012284281,0.9938548,0.24047852,-0.21606445,9.803162,2.2949219,-15.789795,-38.29651,0.23857965,-0.21608149,9.801365,-0.0010379106,0.00030760467,-5.6266785e-05,6.1035156e-05,-0.00019836426,6.1035156e-05
2019-07-01T20:14:10.668Z,0.010920785,-0.012304606,0.9938462,0.23904419,-0.21751404,9.801956,2.4291992,-16.363525,-38.267517,0.23931038,-0.21638605,9.801342,0.001347661,-0.00082542,-0.00035381317,0.00012207031,9.1552734e-05,-6.1035156e-05
2019-07-01T20:14:10.872Z,0.010914877,-0.012294207,0.99384755,0.23760986,-0.2172699,9.803635,2.7282715,-15.182495,-37.66327,0.23917057,-0.21619864,9.801349,-0.00042246282,-0.00030711293,-0.001033783,0.00012207031,3.0517578e-05,0.00030517578
2019-07-01T20:14:11.068Z,0.010878772,-0.012323777,0.99385744,0.237854,-0.2172699,9.803635,2.632141,-15.400696,-38.458252,0.23851071,-0.21687417,9.80135,-0.0011903197,-0.0015446991,-0.000538826,-6.1035156e-05,-9.1552734e-05,-6.1035156e-05
2019-07-01T20:14:11.274Z,0.010880156,-0.012329677,0.9938572,0.23928833,-0.21751404,9.803635,2.7267456,-15.332031,-37.165833,0.23855071,-0.2169858,9.801347,-0.00051644444,0.00023315847,0.000289917,-0.00012207031,-9.1552734e-05,6.1035156e-05
2019-07-01T20:14:11.477Z,0.01089342,-0.0123279,0.9938537,0.23713684,-0.21440125,9.804825,2.0614624,-15.734863,-37.823486,0.2388121,-0.21691531,9.801342,0.00042708218,0.0001630634,3.1471252e-05,6.1035156e-05,-0.00015258789,0.000289917
2019-07-01T20:14:11.681Z,0.010877106,-0.012293834,0.9938574,0.23617554,-0.21774292,9.800522,1.4343262,-15.339661,-37.794495,0.23841496,-0.21629322,9.801366,-0.0013403893,0.0010024309,0.0011434555,0.00012207031,-0.00015258789,0.00012207031
2019-07-01T20:14:11.883Z,0.010856738,-0.012304182,0.9938629,0.23904419,-0.21606445,9.8033905,2.3986816,-15.350342,-37.683105,0.2380295,-0.2165504,9.80137,-0.0014134198,-0.00068995357,-0.0024290085,6.1035156e-05,-3.0517578e-05,0.0
2019-07-01T20:14:12.083Z,0.010868294,-0.012292704,0.9938597,0.23808289,-0.21798706,9.803635,3.439331,-15.423584,-37.96692,0.23823649,-0.21629484,9.80137,0.00029847026,0.00026325881,0.00030231476,0.00012207031,-7.6293945e-05,-6.1035156e-05
2019-07-01T20:14:12.283Z,0.010858544,-0.012295018,0.9938623,0.23760986,-0.21678162,9.800049,2.9296875,-15.888977,-38.56964,0.23804645,-0.21636634,9.801373,-0.0004810691,-0.00086314976,0.0006752014,0.0,3.0517578e-05,0.00012207031
2019-07-01T20:14:12.489Z,0.010846455,-0.012325642,0.9938659,0.2368927,-0.21679688,9.8033905,2.3483276,-16.51764,-37.84485,0.23786871,-0.21699765,9.801363,-0.0002798438,-0.0012143999,-0.0019512177,0.00018310547,9.1552734e-05,0.00012207031
2019-07-01T20:14:12.752Z,0.010825297,-0.012299896,0.99387103,0.23832703,-0.21894836,9.803879,2.230835,-15.5807495,-37.345886,0.23739214,-0.2165512,9.801384,-0.0010057241,-0.0011613667,0.00040340424,0.0,-3.0517578e-05,-6.1035156e-05
2019-07-01T20:14:12.946Z,0.010855482,-0.012323426,0.9938635,0.23976135,-0.2163086,9.805786,2.6885986,-15.982056,-38.20343,0.23804452,-0.21693003,9.80136,0.00095663965,-0.0012619495,0.000746727,0.0,3.0517578e-05,-0.00012207031
2019-07-01T20:14:13.148Z,0.010861262,-0.012316023,0.9938619,0.23664856,-0.21559143,9.801483,2.7038574,-15.614319,-38.279724,0.2381446,-0.21676974,9.801362,0.00059086084,0.0002757758,0.0017671585,6.1035156e-05,-9.1552734e-05,0.0
2019-07-01T20:14:13.352Z,0.010859559,-0.012300274,0.9938621,0.23808289,-0.21846008,9.803635,1.8081665,-16.125488,-36.761475,0.23807772,-0.21646638,9.80137,-0.0007518083,0.00043810904,-0.0020132065,6.1035156e-05,-3.0517578e-05,0.00010681152
2019-07-01T20:14:13.555Z,0.010845524,-0.012326996,0.9938662,0.237854,-0.21487427,9.806747,1.7578125,-15.394592,-37.287903,0.23785293,-0.21702665,9.801363,-0.00029967725,-0.0011529028,0.001373291,0.0,9.1552734e-05,0.0
2019-07-01T20:14:13.755Z,0.010849027,-0.012292518,0.9938647,0.23641968,-0.21702576,9.804825,1.6494751,-15.983582,-37.40387,0.23785104,-0.21634309,9.801378,-7.9751015e-05,0.0015440434,0.0021896362,-0.00012207031,-0.00015258789,0.0
2019-07-01T20:14:13.959Z,0.010838298,-0.012289958,0.99386746,0.2349701,-0.21511841,9.802429,2.3254395,-15.286255,-37.21466,0.23763126,-0.2163219,9.801383,-0.0008097738,-0.00016602874,-0.00092983246,6.1035156e-05,-9.1552734e-05,6.1035156e-05
2019-07-01T20:14:14.171Z,0.010804803,-0.01227245,0.9938759,0.23857117,-0.2163086,9.805542,1.6738892,-15.475464,-36.99951,0.23692535,-0.21606967,9.801406,-0.0020122826,0.00077436864,-0.0010919571,0.0,-0.00015258789,-1.5258789e-05
2019-07-01T20:14:14.366Z,0.010836475,-0.012274832,0.9938677,0.23760986,-0.21559143,9.802444,3.2852173,-15.289307,-37.85858,0.2375633,-0.21603109,9.801393,0.0006919652,3.1888485e-05,0.0011892319,-6.1035156e-05,-9.1552734e-05,-0.00032043457
2019-07-01T20:14:14.567Z,0.010846923,-0.012271636,0.99386495,0.23928833,-0.21440125,9.801483,3.617859,-14.894104,-38.848877,0.23776543,-0.21594045,9.801389,2.2605062e-05,0.00040891767,-0.00047397614,-6.1035156e-05,-0.00015258789,-1.5258789e-05
2019-07-01T20:14:14.772Z,0.010877168,-0.012250157,0.99385667,0.237854,-0.21774292,9.8022,2.2994995,-15.640259,-38.493347,0.238325,-0.21543902,9.801386,0.00093205273,0.0010660738,-0.0028686523,6.1035156e-05,3.0517578e-05,0.0
2019-07-01T20:14:14.981Z,0.010862364,-0.01229087,0.9938612,0.237854,-0.21606445,9.8033905,1.991272,-15.524292,-37.324524,0.23811416,-0.21627496,9.8013735,-0.00029571354,-0.0016798228,0.00032520294,0.0,3.0517578e-05,6.1035156e-05
2019-07-01T20:14:15.184Z,0.010849508,-0.012264474,0.9938641,0.23832703,-0.21440125,9.805557,1.121521,-15.065002,-38.102722,0.23780216,-0.21579348,9.801392,-0.00048184395,0.000716269,0.00084495544,0.00012207031,3.0517578e-05,0.0
2019-07-01T20:14:15.385Z,0.010874017,-0.012239054,0.9938573,0.23832703,-0.21534729,9.801956,2.9586792,-15.383911,-37.638855,0.23823887,-0.21523042,9.801393,0.0007567704,0.0006441474,0.0002450943,6.1035156e-05,-3.0517578e-05,-0.00018310547
2019-07-01T20:14:15.580Z,0.010858978,-0.012263271,0.9938617,0.237854,-0.21870422,9.801727,2.6184082,-15.692139,-38.74359,0.23798889,-0.21574445,9.801388,-0.00041604042,-0.0010188669,-0.00095653534,-6.1035156e-05,3.0517578e-05,0.0
2019-07-01T20:14:15.784Z,0.010869746,-0.012306625,0.9938595,0.23951721,-0.2172699,9.8033905,1.701355,-16.558838,-37.9776,0.23829454,-0.2165631,9.801362,0.00071772933,-0.0013949573,-0.00047397614,0.0,-9.1552734e-05,0.00012207031
2019-07-01T20:14:15.989Z,0.0108778905,-0.012314775,0.99385756,0.23570251,-0.21583557,9.8033905,2.1316528,-15.875244,-38.00659,0.23847434,-0.21670054,9.801355,-0.00019483268,-5.3152442e-05,0.0012874603,-0.00018310547,-0.0002593994,0.0
2019-07-01T20:14:16.188Z,0.010860037,-0.012309178,0.9938621,0.23880005,-0.21534729,9.8033905,1.2512207,-15.863037,-37.591553,0.23810582,-0.21663918,9.801365,-0.0019740611,0.00037039816,-0.000248909,6.1035156e-05,-9.1552734e-05,0.00018310547
2019-07-01T20:14:16.388Z,0.010880598,-0.012273709,0.9938562,0.23640442,-0.21583557,9.803162,2.1972656,-16.159058,-38.368225,0.23844272,-0.2158903,9.8013735,0.0003195405,0.0010502189,-0.00048160553,0.00012207031,-0.00015258789,-6.1035156e-05
2019-07-01T20:14:16.592Z,0.010844909,-0.012267205,0.9938654,0.23736572,-0.21917725,9.802444,3.0349731,-15.59906,-37.384033,0.23771593,-0.21585923,9.801392,-0.0015775114,5.736947e-05,-4.7683716e-06,0.0,3.0517578e-05,-6.1035156e-05
2019-07-01T20:14:16.801Z,0.01083013,-0.012324985,0.9938702,0.237854,-0.21655273,9.803635,2.6550293,-15.118408,-37.1933,0.23754108,-0.21702875,9.801371,-0.0002207607,-0.0025953054,0.0006351471,6.1035156e-05,3.0517578e-05,0.0
2019-07-01T20:14:17.004Z,0.010837788,-0.012312603,0.993868,0.23857117,-0.2141571,9.804596,1.7425537,-15.760803,-37.135315,0.23766828,-0.21676604,9.801373,0.00013524294,0.00050348043,0.00042438507,0.0,-0.00019836426,0.0
2019-07-01T20:14:17.207Z,0.010880282,-0.01227344,0.99385625,0.23808289,-0.21583557,9.805542,2.3651123,-15.85083,-39.068604,0.23843585,-0.21588588,9.8013735,0.00079856813,0.0017775893,0.00028896332,0.0,3.0517578e-05,0.00018310547
2019-07-01T20:14:17.467Z,0.010883802,-0.012277352,0.9938554,0.23664856,-0.21798706,9.8029175,2.0385742,-16.247559,-37.776184,0.23851435,-0.21595289,9.801371,0.0007095188,-0.0007856339,-0.00014019012,0.00018310547,3.0517578e-05,0.0
2019-07-01T20:14:17.661Z,0.010860725,-0.012292204,0.9938617,0.23808289,-0.21678162,9.801712,3.1784058,-15.95459,-37.535095,0.23808417,-0.21630545,9.801373,-0.0009987801,-0.0011465698,-0.0010623932,-0.00012207031,-9.1552734e-05,-6.1035156e-05
2019-07-01T20:14:17.869Z,0.010864464,-0.012312646,0.993861,0.23928833,-0.21368408,9.8033905,2.6046753,-16.212463,-37.64038,0.23820154,-0.21669509,9.801362,-0.0001578778,-0.0005391538,-0.0010194778,0.00012207031,-3.0517578e-05,-6.1035156e-05
2019-07-01T20:14:18.066Z,0.010886393,-0.012247558,0.9938542,0.23904419,-0.21917725,9.803635,2.9144287,-16.255188,-38.56964,0.23850393,-0.21536335,9.801384,0.00049994886,0.0022039413,0.00012111664,0.0,3.0517578e-05,-6.1035156e-05
2019-07-01T20:14:18.271Z,0.010891903,-0.012328446,0.9938541,0.24119568,-0.21846008,9.804825,2.140808,-15.653992,-38.03711,0.23878291,-0.21693006,9.801342,0.0006842315,-0.003162995,0.00071048737,0.0,-3.0517578e-05,0.0
2019-07-01T20:14:18.477Z,0.010919818,-0.0123411855,0.993847,0.23904419,-0.21655273,9.803635,2.0614624,-15.734863,-37.823486,0.23936743,-0.21710387,9.801324,0.001298815,-0.00035898387,0.00047302246,0.0,-3.0517578e-05,-0.00012207031
2019-07-01T20:14:18.678Z,0.010918647,-0.012350599,0.9938475,0.23736572,-0.21774292,9.805542,2.1316528,-15.951538,-37.568665,0.2393637,-0.2172911,9.80132,-0.0003759116,-0.000156492,4.7683716e-06,6.1035156e-05,9.1552734e-05,-0.00018310547
2019-07-01T20:14:18.875Z,0.010880838,-0.012326888,0.99385697,0.23928833,-0.21798706,9.803879,1.9821167,-15.8203125,-37.08191,0.23855852,-0.21692942,9.801348,-0.0010179877,0.00043973327,0.001115799,-6.1035156e-05,9.1552734e-05,-0.0002593994
2019-07-01T20:14:19.080Z,0.010891458,-0.012349085,0.9938546,0.23904419,-0.21702576,9.8029175,2.7130127,-15.472412,-37.947083,0.23881711,-0.2173348,9.801332,0.0006290525,-0.0005875975,0.0001039505,6.1035156e-05,-9.1552734e-05,-0.00018310547
2019-07-01T20:14:19.283Z,0.010886342,-0.012342498,0.9938558,0.23713684,-0.21655273,9.801712,2.6260376,-15.699768,-37.687683,0.2387011,-0.21721981,9.801338,-0.00042435527,-4.336238e-06,-0.0016908646,0.0,-0.00019836426,-0.00019836426
2019-07-01T20:14:19.485Z,0.010886098,-0.012327538,0.9938556,0.23808289,-0.21463013,9.8029175,2.2994995,-15.640259,-38.568115,0.238665,-0.21692795,9.801345,-0.0008530468,0.00065757334,-0.0006427765,-0.0001373291,-0.0001373291,0.00012207031
2019-07-01T20:14:19.684Z,0.010883068,-0.01230482,0.993856,0.23736572,-0.21798706,9.8022,2.0004272,-15.2282715,-37.794495,0.23855703,-0.21649194,9.801357,-0.0007432997,0.001410082,-9.441376e-05,-7.6293945e-05,9.1552734e-05,-0.00018310547
2019-07-01T20:14:19.888Z,0.010853928,-0.012334563,0.9938641,0.23904419,-0.21606445,9.802444,1.8783569,-16.108704,-38.27057,0.23803666,-0.21715197,9.801355,-0.00046637654,-0.0012719929,-6.771088e-05,4.5776367e-05,3.0517578e-05,6.1035156e-05
2019-07-01T20:14:20.091Z,0.010870897,-0.012306933,0.99385923,0.23904419,-0.21583557,9.803879,2.82135,-16.705322,-37.826538,0.2383182,-0.21656606,9.801362,0.00044678152,0.0012506247,-0.00035953522,-1.5258789e-05,3.0517578e-05,0.00018310547
2019-07-01T20:14:20.295Z,0.010865477,-0.012294509,0.9938605,0.23664856,-0.21607971,9.801483,3.1097412,-15.589905,-37.913513,0.23818395,-0.21633773,9.80137,0.0001052171,0.0002924204,0.00023365021,4.5776367e-05,0.00015258789,0.00024414062
2019-07-01T20:14:20.499Z,0.0108444905,-0.012268349,0.9938655,0.23928833,-0.21368408,9.801727,2.1957397,-16.233826,-38.157654,0.23770997,-0.21588273,9.801392,-0.00059886277,0.00054354966,-0.0009689331,4.5776367e-05,9.1552734e-05,0.0004119873
2019-07-01T20:14:20.702Z,0.010859481,-0.012238364,0.9938611,0.23976135,-0.21559143,9.8029175,2.632141,-15.551758,-37.809753,0.23794696,-0.21525608,9.801399,0.0010774881,0.0015898645,-0.00048542023,-7.6293945e-05,-3.0517578e-05,0.0
2019-07-01T20:14:20.909Z,0.010897646,-0.012249608,0.9938513,0.23712158,-0.2141571,9.801956,2.9296875,-16.041565,-37.846375,0.2387331,-0.2153731,9.801378,0.0012405366,-0.000433743,0.00094890594,4.5776367e-05,9.1552734e-05,-6.1035156e-05
2019-07-01T20:14:21.115Z,0.010862238,-0.012241098,0.9938604,0.23545837,-0.21511841,9.804596,2.2232056,-15.727234,-37.527466,0.23800777,-0.21530214,9.801397,-0.0013769269,0.0004438907,-0.001115799,-0.0001373291,3.0517578e-05,-0.0002593994
2019-07-01T20:14:21.310Z,0.010814009,-0.012226284,0.99387276,0.23808289,-0.21606445,9.803879,2.3666382,-15.92865,-38.328552,0.23701312,-0.21514225,9.801425,-0.0015993118,0.0007814616,0.0022888184,-7.6293945e-05,-9.1552734e-05,0.00010681152
2019-07-01T20:14:21.520Z,0.010852424,-0.012251788,0.99386317,0.24143982,-0.21559143,9.804352,2.307129,-15.57312,-37.950134,0.23783396,-0.21553758,9.801396,0.0011561215,-0.00072197616,0.0007266998,-1.5258789e-05,-9.1552734e-05,0.00024414062
2019-07-01T20:14:21.720Z,0.0109048,-0.012260333,0.99384964,0.23832703,-0.21583557,9.802673,3.439331,-15.423584,-37.96692,0.23889844,-0.2155635,9.80137,0.0022460073,1.8298626e-05,-0.00030994415,4.5776367e-05,3.0517578e-05,0.0
2019-07-01T20:14:21.925Z,0.010896259,-0.012264124,0.9938519,0.23857117,-0.21655273,9.800766,2.2781372,-16.152954,-38.520813,0.23873569,-0.21566066,9.801372,-0.00021314621,-0.0001309663,-0.00020694733,4.5776367e-05,0.00015258789,-0.00012207031
2019-07-01T20:14:22.182Z,0.010859511,-0.012317403,0.9938624,0.23928833,-0.2182312,9.805786,3.7261963,-16.20636,-38.139343,0.23811246,-0.21680142,9.801361,-0.0007876456,-0.0023385882,0.0010633469,-0.0001373291,-0.0001373291,-1.5258789e-05
2019-07-01T20:14:22.378Z,0.010883213,-0.012344249,0.99385667,0.23976135,-0.21655273,9.80484,1.5762329,-15.843201,-37.371826,0.2386422,-0.21726246,9.801338,0.00058051944,-0.00066486,0.001996994,0.00010681152,9.1552734e-05,6.1035156e-05
2019-07-01T20:14:22.578Z,0.010878836,-0.012306778,0.99385715,0.23736572,-0.21511841,9.802673,2.6031494,-16.210938,-37.791443,0.23847653,-0.21654162,9.801358,0.00025567412,0.0012559295,0.00020599365,-7.6293945e-05,9.1552734e-05,-0.00018310547
2019-07-01T20:14:22.780Z,0.010871174,-0.0122979,0.99385905,0.23664856,-0.21391296,9.803146,2.7938843,-15.390015,-38.311768,0.23830488,-0.21638869,9.801366,-0.0005046427,0.00037305057,-0.0011329651,-1.5258789e-05,3.0517578e-05,-0.0002593994
2019-07-01T20:14:22.981Z,0.010837333,-0.012259659,0.9938672,0.23832703,-0.21774292,9.803162,3.3157349,-16.30249,-38.51776,0.2375488,-0.21573208,9.801398,-0.0009458065,0.0016163588,-0.0006055832,-7.6293945e-05,0.00015258789,-6.1035156e-05
2019-07-01T20:14:23.192Z,0.010844471,-0.012290972,0.9938659,0.24023438,-0.21655273,9.802673,3.1936646,-15.740967,-36.964417,0.23775674,-0.21632512,9.80138,0.0009980798,-0.0011325032,-8.2969666e-05,4.5776367e-05,-3.0517578e-05,0.00010681152
2019-07-01T20:14:23.392Z,0.01088959,-0.012301462,0.9938543,0.23904419,-0.21534729,9.803146,2.2247314,-15.576172,-38.09967,0.23868036,-0.21640868,9.801356,0.0015069097,-0.0001013428,0.0001001358,4.5776367e-05,-3.0517578e-05,6.1035156e-05
2019-07-01T20:14:23.591Z,0.010895857,-0.012264627,0.993852,0.23713684,-0.21440125,9.801956,2.39563,-15.498352,-37.18567,0.2387287,-0.21567158,9.801372,-0.00044332445,0.0013079792,-0.0004081726,-1.5258789e-05,-0.0001373291,0.00022888184
2019-07-01T20:14:23.793Z,0.010869927,-0.012232464,0.9938583,0.23664856,-0.21559143,9.8022,2.1148682,-16.163635,-38.59253,0.2381434,-0.2151126,9.801398,-0.0012845099,0.000741899,-0.0005893707,0.00010681152,-9.1552734e-05,0.00022888184
2019-07-01T20:14:23.993Z,0.010859764,-0.012257397,0.9938613,0.23617554,-0.21559143,9.8029175,2.0462036,-16.104126,-37.519836,0.23799233,-0.21562746,9.80139,-0.0006480217,-0.0011500269,-0.0010328293,-1.5258789e-05,-3.0517578e-05,0.00024414062
2019-07-01T20:14:24.200Z,0.010826912,-0.012244211,0.9938697,0.23640442,-0.21559143,9.800766,2.746582,-16.487122,-38.383484,0.23730832,-0.21545808,9.801411,-0.0016624033,0.0006213486,0.001707077,-0.0001373291,-3.0517578e-05,0.00024414062
2019-07-01T20:14:24.408Z,0.010815679,-0.012271139,0.99387306,0.24047852,-0.21798706,9.804825,2.156067,-15.289307,-38.191223,0.23713998,-0.21601479,9.801402,-0.00026199222,-0.0005245507,-0.0022058487,-1.5258789e-05,9.1552734e-05,0.0
2019-07-01T20:14:24.667Z,0.010862104,-0.012294793,0.9938613,0.23976135,-0.21511841,9.8033905,1.8707275,-16.40625,-37.423706,0.23811713,-0.21635236,9.801372,0.0025747567,-0.0006454438,0.0012407303,-1.5258789e-05,9.1552734e-05,6.1035156e-05
2019-07-01T20:14:24.862Z,0.010879223,-0.012276468,0.99385655,0.23857117,-0.2141571,9.804352,2.973938,-15.16571,-37.36725,0.23842104,-0.21594796,9.8013735,0.0003402233,0.0008646697,0.00066661835,4.5776367e-05,-0.0001373291,0.0004119873
2019-07-01T20:14:25.062Z,0.010893809,-0.012236263,0.9938521,0.23713684,-0.21247864,9.805786,3.2546997,-15.867615,-38.50403,0.23862854,-0.21512252,9.801386,0.0003620535,0.0014867634,0.0012369156,0.00010681152,3.0517578e-05,6.1035156e-05
2019-07-01T20:14:25.269Z,0.010874411,-0.012188525,0.9938564,0.23713684,-0.2182312,9.8022,3.2867432,-16.960144,-38.726807,0.23814124,-0.21424139,9.801416,-0.001069203,0.0013327748,0.0009851456,0.00022888184,-0.0001373291,0.00012207031
2019-07-01T20:14:25.495Z,0.0108707,-0.0123061,0.9938593,0.23832703,-0.21463013,9.8033905,2.9953003,-16.252136,-38.42163,0.23831251,-0.21655028,9.801362,-3.97712e-05,-0.0018604845,0.00028419495,4.5776367e-05,-3.0517578e-05,-0.00012207031
2019-07-01T20:14:25.685Z,0.010873681,-0.0122537855,0.9938576,0.23808289,-0.21534729,9.8029175,2.5894165,-16.349792,-38.648987,0.2382629,-0.21551937,9.801386,-0.00023025274,0.0016518384,-0.00029087067,-7.6293945e-05,-3.0517578e-05,6.1035156e-05
2019-07-01T20:14:25.931Z,0.010874269,-0.012271648,0.9938578,0.23713684,-0.2172699,9.803879,2.3666382,-15.92865,-38.328552,0.23831195,-0.21586706,9.801377,0.00021116436,-0.0003979951,-0.00019264221,0.00016784668,9.1552734e-05,0.00012207031
2019-07-01T20:14:26.127Z,0.010843906,-0.012267853,0.99386567,0.23855591,-0.21487427,9.801727,3.5552979,-14.768982,-36.932373,0.23769723,-0.2158746,9.801392,-0.0010948479,-0.0006361902,-0.00013446808,4.5776367e-05,3.0517578e-05,0.00035095215
2019-07-01T20:14:26.331Z,0.0108648725,-0.012255187,0.99385995,0.23808289,-0.21536255,9.801483,2.4520874,-16.003418,-37.591553,0.23808983,-0.21557052,9.80139,0.001145646,0.00024199486,-0.0007362366,4.5776367e-05,-3.0517578e-05,0.00030517578
2019-07-01T20:14:26.534Z,0.010858098,-0.012251725,0.9938617,0.23832703,-0.21487427,9.801956,2.2872925,-16.011047,-37.963867,0.2379472,-0.21552107,9.8013935,-0.00061674416,0.00019045174,-0.00017261505,4.5776367e-05,-3.0517578e-05,0.00018310547
2019-07-01T20:14:26.735Z,0.010864657,-0.012226639,0.9938596,0.23832703,-0.21607971,9.806747,1.890564,-15.736389,-38.94806,0.23802593,-0.21501291,9.801403,3.2916665e-05,0.0008775145,-0.0009088516,-1.5258789e-05,-9.1552734e-05,0.00024414062
2019-07-01T20:14:26.945Z,0.010879395,-0.012242313,0.99385595,0.23808289,-0.21511841,9.804352,2.0233154,-16.537476,-38.13629,0.23835313,-0.21527964,9.801389,0.00038921833,-0.0007479638,0.0027418137,4.5776367e-05,-3.0517578e-05,0.00035095215
2019-07-01T20:14:27.154Z,0.010869721,-0.012254936,0.9938587,0.23545837,-0.21583557,9.803879,3.4378052,-15.422058,-38.119507,0.23818617,-0.21555252,9.801387,-0.00016768277,-0.00022473931,0.0005578995,4.5776367e-05,3.0517578e-05,0.00030517578
2019-07-01T20:14:27.344Z,0.010831494,-0.0122308405,0.9938683,0.23664856,-0.21368408,9.805313,1.7288208,-16.360474,-35.369873,0.23737198,-0.21518432,9.8014145,-0.0017412305,0.00036127865,-0.0005865097,-7.6293945e-05,-3.0517578e-05,6.1035156e-05
2019-07-01T20:14:27.551Z,0.010818932,-0.012239266,0.9938717,0.23976135,-0.21774292,9.802444,2.4383545,-16.065979,-39.11438,0.23713852,-0.21538284,9.801415,-0.0005608648,9.994209e-05,0.0012111664,0.00010681152,-3.0517578e-05,6.1035156e-05
2019-07-01T20:14:27.750Z,0.010846255,-0.012256109,0.99386483,0.23880005,-0.21583557,9.8029175,2.8671265,-15.910339,-36.383057,0.23771968,-0.21563865,9.801396,0.0010280907,-0.00086665154,-0.0015954971,0.00010681152,3.0517578e-05,6.1035156e-05
2019-07-01T20:14:27.958Z,0.010880089,-0.012268782,0.9938562,0.23904419,-0.21559143,9.803635,2.4291992,-16.362,-38.493347,0.2384223,-0.21579534,9.801377,0.0015314966,-0.0007106066,-0.000111579895,4.5776367e-05,-0.0001373291,0.00024414062
2019-07-01T20:14:28.159Z,0.010904063,-0.0122488355,0.99384964,0.23832703,-0.21655273,9.803635,2.748108,-16.642761,-37.130737,0.2388597,-0.21534069,9.801375,-0.00011238456,0.0007428378,9.536743e-05,-0.00019836426,-9.1552734e-05,0.0
2019-07-01T20:14:28.361Z,0.010884045,-0.012286427,0.9938555,0.23857117,-0.2163086,9.805069,2.519226,-16.134644,-38.67798,0.23853815,-0.21612968,9.801366,-0.00027437508,-0.00083877146,0.00085926056,0.00010681152,-3.0517578e-05,0.0
2019-07-01T20:14:28.564Z,0.010880256,-0.012293269,0.9938566,0.23880005,-0.21655273,9.8033905,2.2766113,-16.229248,-38.31024,0.23847671,-0.21627365,9.801364,-0.0004582256,-0.00044955313,9.6321106e-05,-0.00019836426,3.0517578e-05,0.00018310547
2019-07-01T20:14:28.764Z,0.010882039,-0.012298084,0.9938562,0.23760986,-0.21679688,9.805313,3.4332275,-15.5685425,-37.92267,0.2385224,-0.216363,9.801361,0.00045453012,0.00011540949,0.00022602081,0.00016784668,9.1552734e-05,0.00012207031
2019-07-01T20:14:28.967Z,0.010867754,-0.012295628,0.9938599,0.23712158,-0.21702576,9.804596,2.5680542,-15.040588,-38.381958,0.23823176,-0.21635345,9.801368,-0.00021786988,-0.00038076937,0.0001449585,-7.6293945e-05,3.0517578e-05,0.00012207031
2019-07-01T20:14:29.172Z,0.0108526405,-0.0123051675,0.993864,0.23760986,-0.21583557,9.807709,2.9281616,-15.887451,-38.720703,0.23794964,-0.2165807,9.801371,-0.00065772235,-0.00014901161,0.00041484833,-1.5258789e-05,-0.0001373291,0.00022888184
2019-07-01T20:14:29.373Z,0.010839785,-0.012290088,0.9938671,0.23736572,-0.21702576,9.799332,2.8671265,-15.605164,-38.056946,0.23766129,-0.21632048,9.801384,-0.00086277723,0.00057065487,0.0017242432,0.00016784668,9.1552734e-05,-1.5258789e-05
2019-07-01T20:14:29.574Z,0.0108300485,-0.0122817485,0.9938695,0.23713684,-0.2163086,9.805069,3.0181885,-15.814209,-38.25836,0.23744927,-0.21618357,9.801391,-0.0006160736,-0.00031496584,-0.0028524399,-0.0001373291,-9.1552734e-05,0.00022888184
2019-07-01T20:14:29.773Z,0.010828246,-0.012292179,0.99387014,0.2368927,-0.21606445,9.8029175,2.6641846,-16.415405,-38.96942,0.23743504,-0.2163924,9.801388,-0.0003579408,-0.00010590255,2.5749207e-05,0.00010681152,3.0517578e-05,0.00024414062
2019-07-01T20:14:29.979Z,0.01082568,-0.012279145,0.9938706,0.23951721,-0.21559143,9.802444,2.6550293,-16.712952,-38.35144,0.23735654,-0.21614444,9.801394,0.00020124018,0.00035630167,-0.0006284714,-0.0001373291,3.0517578e-05,0.00018310547
2019-07-01T20:14:30.181Z,0.010871961,-0.012255417,0.9938581,0.23570251,-0.21463013,9.804108,2.697754,-15.838623,-37.79602,0.23823194,-0.2155559,9.801386,4.480779e-05,0.0014442801,0.00089740753,-0.0001373291,3.0517578e-05,0.00016784668
2019-07-01T20:14:30.393Z,0.01082217,-0.012253406,0.9938711,0.23736572,-0.21702576,9.8022,2.6748657,-16.275024,-38.26294,0.23723274,-0.21565062,9.801408,-0.001834929,0.0001142323,0.00091457367,-1.5258789e-05,-0.0001373291,0.00030517578
2019-07-01T20:14:30.588Z,0.010851604,-0.012261843,0.9938635,0.2368927,-0.21607971,9.8033905,2.3925781,-15.570068,-37.425232,0.23783855,-0.21573639,9.801392,0.0004413277,-0.00030055642,-0.0011348724,0.00010681152,-9.1552734e-05,0.00018310547
2019-07-01T20:14:30.786Z,0.010839257,-0.012270314,0.9938669,0.23904419,-0.21559143,9.8022,2.4475098,-15.99884,-38.27057,0.23760949,-0.21593525,9.8013935,-0.0007740855,-0.0008095801,0.0008401871,-7.6293945e-05,-0.00019836426,0.00018310547
2019-07-01T20:14:30.989Z,0.010865633,-0.012289942,0.99386036,0.23832703,-0.2182312,9.801483,2.0629883,-15.736389,-37.59613,0.23817755,-0.21624802,9.801373,0.00034490228,-3.0219555e-05,-0.001982689,-7.6293945e-05,-0.0002593994,0.00018310547
2019-07-01T20:14:31.188Z,0.010867592,-0.012300767,0.99386,0.23783875,-0.2172699,9.80603,2.0324707,-16.241455,-38.604736,0.23823927,-0.21645439,9.801366,-0.0006505847,-7.909536e-05,-0.000998497,0.00010681152,3.0517578e-05,0.00012207031
2019-07-01T20:14:31.410Z,0.010867077,-0.012318147,0.9938604,0.24168396,-0.21511841,9.803635,3.6972046,-15.116882,-37.61444,0.23826523,-0.21679558,9.801357,0.00048069656,-0.0011422336,0.0026750565,-7.6293945e-05,9.1552734e-05,0.00024414062
2019-07-01T20:14:31.607Z,0.010931016,-0.012294652,0.9938433,0.2400055,-0.21655273,9.803635,2.545166,-15.400696,-39.21051,0.23949407,-0.21616381,9.801343,0.0023616701,0.0015699714,0.00019931793,-0.0001373291,-0.0001373291,-6.1035156e-05
2019-07-01T20:14:31.810Z,0.010934988,-0.012309952,0.99384254,0.23976135,-0.2172699,9.803635,3.1066895,-15.663147,-38.22937,0.23960538,-0.21645223,9.801332,0.00010101497,-0.0002797544,-0.00018978119,-1.5258789e-05,3.0517578e-05,6.1035156e-05
2019-07-01T20:14:32.011Z,0.0109360395,-0.012332462,0.99384266,0.23857117,-0.21583557,9.804108,2.6870728,-15.904236,-38.7146,0.23967342,-0.21688952,9.801321,0.00026115775,-0.00057414174,3.71933e-05,-1.5258789e-05,3.0517578e-05,0.00024414062
2019-07-01T20:14:32.212Z,0.010907162,-0.0123183895,0.99384993,0.23880005,-0.21678162,9.8033905,3.3615112,-15.280151,-38.539124,0.2390669,-0.2166923,9.801341,-0.0010530204,0.00044624507,0.0011434555,4.5776367e-05,-3.0517578e-05,6.1035156e-05
2019-07-01T20:14:32.418Z,0.010908464,-0.012308887,0.99384946,0.23928833,-0.2172699,9.802673,2.7267456,-15.106201,-38.175964,0.23907307,-0.216503,9.801345,0.00039313734,0.00024060905,-0.0014801025,-7.6293945e-05,0.00015258789,6.1035156e-05
2019-07-01T20:14:32.612Z,0.010895407,-0.012328931,0.9938532,0.23951721,-0.2131958,9.803879,2.8656006,-15.603638,-38.2843,0.23885398,-0.21693012,9.801341,-0.00032764673,-0.00054320693,-0.00050735474,-1.5258789e-05,3.0517578e-05,0.00018310547
2019-07-01T20:14:32.815Z,0.010910284,-0.012255097,0.9938481,0.23664856,-0.2172699,9.801956,3.5202026,-15.4953,-37.38098,0.23899712,-0.21544635,9.801371,0.0002258271,0.002538368,0.0017347336,0.00016784668,9.1552734e-05,-6.1035156e-05
2019-07-01T20:14:33.020Z,0.010877024,-0.012263041,0.9938569,0.23904419,-0.21655273,9.801483,2.546692,-15.628052,-37.898254,0.23834904,-0.21569133,9.80138,-0.0012428164,-0.00083369017,-0.0028352737,-0.0001373291,-0.00019836426,0.00018310547
2019-07-01T20:14:33.221Z,0.010879796,-0.012286971,0.9938566,0.23928833,-0.21511841,9.802444,2.8884888,-15.093994,-38.180542,0.23845436,-0.21615174,9.801367,-0.00015076995,-0.0006086379,-0.00060367584,0.00010681152,9.1552734e-05,-6.1035156e-05
2019-07-01T20:14:33.436Z,0.010899169,-0.012284381,0.9938515,0.24024963,-0.21702576,9.805069,1.4083862,-15.849304,-38.124084,0.23883615,-0.21604891,9.801361,0.0011350662,0.00024436414,0.00086688995,-7.6293945e-05,9.1552734e-05,0.00024414062
2019-07-01T20:14:33.634Z,0.010925665,-0.012296889,0.99384475,0.24047852,-0.21679688,9.805786,2.835083,-16.262817,-38.417053,0.23939176,-0.21622197,9.801343,0.0012832433,-4.3585896e-05,0.0010576248,4.5776367e-05,0.00015258789,6.1035156e-05
2019-07-01T20:14:33.835Z,0.010927443,-0.012301845,0.9938444,0.24023438,-0.21702576,9.806259,2.5299072,-15.917969,-38.33313,0.23943765,-0.21631406,9.801339,0.00072450936,-0.0006464571,0.0019788742,0.00010681152,3.0517578e-05,-0.0002593994
2019-07-01T20:14:34.041Z,0.010930998,-0.012325484,0.99384385,0.24072266,-0.21894836,9.802429,2.4612427,-15.478516,-39.372253,0.2395581,-0.21676669,9.801327,0.0005915016,-0.0008995235,0.0009908676,0.00010681152,0.00015258789,0.0
2019-07-01T20:14:34.239Z,0.010938973,-0.012335925,0.99384195,0.23976135,-0.2182312,9.805786,2.3590088,-16.304016,-37.27112,0.2397393,-0.21694931,9.801318,0.0009153187,-0.0014491826,-0.0014276505,0.00010681152,-0.00019836426,6.1035156e-05
2019-07-01T20:14:34.443Z,0.010938098,-0.012337396,0.9938422,0.237854,-0.21559143,9.8022,2.307129,-15.4953,-38.38806,0.23972487,-0.21698044,9.801318,-0.00075656176,-0.00046491623,0.00064849854,4.5776367e-05,-3.0517578e-05,6.1035156e-05
2019-07-01T20:14:34.646Z,0.0109360805,-0.012325983,0.99384254,0.237854,-0.2172699,9.805313,2.3788452,-15.559387,-38.858032,0.23966072,-0.21676272,9.801325,-0.0009239763,0.00051139295,-0.000995636,0.00010681152,-9.1552734e-05,-0.00018310547
2019-07-01T20:14:34.847Z,0.010895032,-0.012320145,0.99385315,0.23641968,-0.21774292,9.8022,2.6290894,-15.70282,-37.31079,0.23882815,-0.21675934,9.801346,-0.0017691851,-0.0006840229,0.001244545,4.5776367e-05,-3.0517578e-05,0.00024414062
2019-07-01T20:14:35.055Z,0.0108480975,-0.012323775,0.9938655,0.23857117,-0.21463013,9.805313,2.4520874,-16.003418,-37.59308,0.23789765,-0.21695673,9.801363,-0.001772508,-2.3066998e-05,-0.0022001266,-7.6293945e-05,3.0517578e-05,0.00012207031
2019-07-01T20:14:35.258Z,0.010857923,-0.012301324,0.99386257,0.23857117,-0.21511841,9.8033905,2.7175903,-15.324402,-38.220215,0.23804721,-0.21649133,9.801371,0.00068739057,0.0012035519,0.0012483597,4.5776367e-05,9.1552734e-05,-6.1035156e-05
2019-07-01T20:14:35.459Z,0.010868476,-0.012254918,0.99385905,0.24072266,-0.21392822,9.802673,2.420044,-14.758301,-38.546753,0.23816125,-0.21555553,9.801388,0.0005732477,0.0014577657,2.2888184e-05,-1.5258789e-05,-3.0517578e-05,0.0
2019-07-01T20:14:35.662Z,0.010915437,-0.012254431,0.9938468,0.23713684,-0.2163086,9.800522,2.871704,-15.609741,-37.530518,0.23909868,-0.21541943,9.801369,0.0013251901,0.0005943775,-0.00093460083,4.5776367e-05,-0.0001373291,0.00012207031
2019-07-01T20:14:35.866Z,0.010896672,-0.0122562945,0.99385166,0.23880005,-0.21679688,9.806503,2.8625488,-15.7547,-37.9364,0.23872758,-0.21550648,9.801375,-0.0011450052,-6.03199e-05,-0.0022172928,-7.6293945e-05,-9.1552734e-05,0.0
2019-07-01T20:14:36.065Z,0.010895674,-0.012269069,0.99385214,0.23832703,-0.21583557,9.802444,1.5914917,-15.402222,-37.886047,0.2387343,-0.21575893,9.801369,-0.00046133995,-0.000500828,0.0021982193,0.00016784668,-3.0517578e-05,0.0
2019-07-01T20:14:36.272Z,0.010897344,-0.012275541,0.99385184,0.24023438,-0.21655273,9.805542,2.5619507,-15.188599,-38.186646,0.23878118,-0.21588096,9.801365,-2.7999282e-05,-0.0011024326,-0.00061511993,-1.5258789e-05,-0.00019836426,0.00012207031
2019-07-01T20:14:36.471Z,0.010924716,-0.012274115,0.9938446,0.23857117,-0.2172699,9.802673,3.652954,-15.989685,-38.394165,0.2393252,-0.21577924,9.801353,0.0003707707,0.00024679303,0.0015096664,0.00010681152,-0.0001373291,0.00030517578
2019-07-01T20:14:36.695Z,0.010866537,-0.012316092,0.99386054,0.23904419,-0.21392822,9.799561,2.5360107,-15.847778,-38.017273,0.23825017,-0.21675687,9.801359,-0.0014172047,-0.0006875843,0.00029182434,4.5776367e-05,3.0517578e-05,0.00022888184
2019-07-01T20:14:36.891Z,0.010900518,-0.012282082,0.9938511,0.23736572,-0.21440125,9.804108,1.9439697,-14.7994995,-37.249756,0.2388583,-0.2160003,9.801361,0.0006298274,0.0018695146,-0.0025053024,-0.0001373291,-0.00019836426,0.00012207031
2019-07-01T20:14:37.090Z,0.010893815,-0.012258564,0.99385244,0.24023438,-0.21774292,9.800522,2.1453857,-15.507507,-38.233948,0.23867524,-0.21555854,9.801375,-0.00087197125,0.0004721582,0.00055885315,0.00010681152,-9.1552734e-05,0.00012207031
2019-07-01T20:14:37.341Z,0.010918117,-0.012292346,0.99384665,0.23928833,-0.21583557,9.8033905,1.9866943,-15.52124,-37.852478,0.23923142,-0.2161535,9.801348,0.000981763,-0.0008531064,-0.0012216568,-7.6293945e-05,-3.0517578e-05,0.00012207031
2019-07-01T20:14:37.539Z,0.010915037,-0.012286697,0.99384737,0.23760986,-0.21870422,9.8033905,3.211975,-15.072632,-38.26294,0.2391581,-0.21605137,9.8013525,-0.0006233603,0.0004928708,0.0012769699,-1.5258789e-05,-0.0001373291,0.00018310547
2019-07-01T20:14:37.737Z,0.010904714,-0.01233934,0.99385095,0.23928833,-0.21511841,9.803162,3.213501,-16.819763,-38.39569,0.23906171,-0.21710852,9.8013315,-0.00029717386,-0.002036497,-0.000113487244,-1.5258789e-05,-3.0517578e-05,0.00035095215
2019-07-01T20:14:37.941Z,0.010904691,-0.012306227,0.9938504,0.23736572,-0.21487427,9.802444,3.2821655,-15.209961,-38.598633,0.23899212,-0.21646115,9.801348,-0.00045901537,0.0013772249,0.0002527237,-7.6293945e-05,-0.0001373291,0.00012207031
2019-07-01T20:14:38.144Z,0.010880947,-0.012276297,0.99385613,0.23857117,-0.21536255,9.8033905,2.128601,-15.948486,-37.945557,0.23845512,-0.21593997,9.801373,-0.0015996993,0.0013436079,1.2397766e-05,4.5776367e-05,-3.0517578e-05,0.00024414062
2019-07-01T20:14:38.348Z,0.010880494,-0.012267102,0.9938561,0.2368927,-0.22062683,9.805313,3.048706,-15.158081,-37.97455,0.23842683,-0.21576136,9.801376,0.0003299415,-0.00027918816,0.0004787445,4.5776367e-05,-9.1552734e-05,0.0
2019-07-01T20:14:38.551Z,0.010867336,-0.012335699,0.99386066,0.237854,-0.2131958,9.8029175,1.6921997,-16.627502,-38.74359,0.23830704,-0.2171381,9.80135,-0.0009927601,-0.0024805814,0.0006427765,-1.5258789e-05,-0.0001373291,0.0
2019-07-01T20:14:38.770Z,0.010862548,-0.012276447,0.9938609,0.24023438,-0.21655273,9.801956,2.4139404,-14.982605,-37.760925,0.23808774,-0.2159925,9.801381,-0.00077591836,0.002357319,0.00027942657,4.5776367e-05,-3.0517578e-05,0.00018310547
2019-07-01T20:14:38.959Z,0.010894674,-0.012255031,0.9938522,0.23951721,-0.21200562,9.803162,2.859497,-15.751648,-38.313293,0.23868501,-0.21548714,9.801376,0.0012833774,0.00040222704,-0.0014162064,0.00016784668,-3.0517578e-05,-6.1035156e-05
2019-07-01T20:14:39.160Z,0.010913304,-0.012219,0.9938467,0.2368927,-0.21487427,9.8022,2.6901245,-16.059875,-37.61444,0.23898204,-0.2147324,9.801386,0.0004943162,0.0015733093,0.00032901764,0.00010681152,-3.0517578e-05,0.00010681152
2019-07-01T20:14:39.359Z,0.010893158,-0.012207078,0.9938518,0.23904419,-0.2172699,9.805557,2.6947021,-15.835571,-38.17444,0.23855457,-0.21455362,9.8014,-0.0012262315,-0.0005311519,-0.00026226044,0.00016784668,3.0517578e-05,-0.00018310547
2019-07-01T20:14:39.560Z,0.010874316,-0.012242167,0.99385726,0.2359314,-0.2163086,9.804352,3.2485962,-14.421082,-37.301636,0.23825137,-0.21529053,9.801393,-0.00022348762,-0.0021585375,0.001414299,0.00022888184,-9.1552734e-05,0.0
2019-07-01T20:14:39.768Z,0.010852622,-0.012232501,0.9938628,0.23664856,-0.21511841,9.800293,1.9042969,-15.600586,-37.638855,0.23779768,-0.21515994,9.801406,-0.0014344156,-0.0006245822,0.00014781952,-1.5258789e-05,-3.0517578e-05,-6.1035156e-05
2019-07-01T20:14:39.962Z,0.010848577,-0.012224069,0.9938637,0.2416687,-0.2172699,9.805786,2.786255,-15.458679,-38.853455,0.23769926,-0.21500596,9.801412,-0.00012367964,0.0004068315,-0.0018148422,0.00010681152,3.0517578e-05,0.00018310547
2019-07-01T20:14:40.170Z,0.010906282,-0.012270258,0.9938494,0.24095154,-0.21679688,9.799805,2.017212,-14.863586,-37.94861,0.2389488,-0.21575359,9.801365,0.002433315,-0.0017083585,0.0018110275,-1.5258789e-05,3.0517578e-05,6.1035156e-05
2019-07-01T20:14:40.375Z,0.010923216,-0.01230001,0.99384546,0.23712158,-0.2163086,9.804108,1.8875122,-15.736389,-39.250183,0.23934937,-0.21628961,9.801343,0.0011007339,-0.0009546131,-0.0024576187,-7.6293945e-05,-3.0517578e-05,0.00022888184
2019-07-01T20:14:40.580Z,0.0108958855,-0.012289305,0.99385244,0.24072266,-0.21440125,9.801727,2.682495,-15.975952,-39.10675,0.2387808,-0.21615402,9.801359,-0.0012061,0.00012139976,0.00058841705,0.00010681152,9.1552734e-05,0.00018310547
2019-07-01T20:14:40.782Z,0.0109342085,-0.012249525,0.99384177,0.2368927,-0.21463013,9.801956,2.5512695,-15.634155,-37.220764,0.23946352,-0.21527281,9.801362,0.0009925514,0.0013800263,-0.001042366,0.00016784668,-0.00019836426,6.1035156e-05
2019-07-01T20:14:40.981Z,0.0109021915,-0.012230835,0.9938498,0.23928833,-0.21655273,9.803146,1.1001587,-15.653992,-37.5412,0.2387847,-0.21499377,9.801385,-0.0016807467,-9.5039606e-05,0.00090026855,0.00010681152,3.0517578e-05,6.1035156e-05
2019-07-01T20:14:41.187Z,0.010892915,-0.012260726,0.99385273,0.2400055,-0.21870422,9.804352,3.0960083,-15.72876,-39.224243,0.23866172,-0.21560322,9.8013735,0.000107616186,-0.0011506528,-0.00020599365,-1.5258789e-05,3.0517578e-05,0.00024414062
2019-07-01T20:14:41.383Z,0.010925973,-0.012312792,0.9938449,0.23951721,-0.2182312,9.804352,2.1438599,-15.657043,-37.73651,0.23888199,-0.2168852,9.801341,0.0012402534,0.00026987493,0.00091838837,4.5776367e-05,-9.1552734e-05,-6.1035156e-05
2019-07-01T20:14:41.589Z,0.010930972,-0.012350563,0.9938443,0.23928833,-0.21583557,9.805069,2.7999878,-15.396118,-37.40692,0.23960997,-0.21725714,9.801315,-0.00015191734,-0.0013934374,0.0006170273,-1.5258789e-05,3.0517578e-05,0.00018310547
2019-07-01T20:14:41.791Z,0.010914869,-0.0123038795,0.9938477,0.23928833,-0.21870422,9.801712,1.9592285,-16.255188,-37.623596,0.23919061,-0.2163878,9.801344,-0.0004579425,0.001101464,0.00071907043,0.00010681152,0.00021362305,6.1035156e-05
2019-07-01T20:14:41.997Z,0.010891096,-0.012336821,0.99385446,0.24047852,-0.2172699,9.803635,3.2104492,-15.222168,-37.76703,0.23878428,-0.21709602,9.801339,-3.2410026e-05,-0.0015643984,-0.0016040802,-1.5258789e-05,0.00015258789,-6.1035156e-05
2019-07-01T20:14:42.194Z,0.01093464,-0.012353584,0.9938434,0.23928833,-0.21655273,9.802444,2.2872925,-16.085815,-37.678528,0.2396896,-0.2173063,9.801312,0.0021677017,-0.0003862679,0.00052547455,-1.5258789e-05,9.1552734e-05,-6.1035156e-05
2019-07-01T20:14:42.406Z,0.010918818,-0.012343338,0.9938473,0.23904419,-0.21894836,9.8029175,2.8915405,-15.097046,-37.878418,0.23935197,-0.21714866,9.801324,-0.00034970045,0.000633955,-0.0010843277,4.5776367e-05,-3.0517578e-05,0.0
2019-07-01T20:14:42.665Z,0.010903217,-0.012376079,0.99385196,0.23880005,-0.21798706,9.804352,2.0736694,-15.367126,-38.276672,0.23910847,-0.21783091,9.801314,-0.0005842149,-0.0013036132,0.0003976822,-0.0001373291,3.0517578e-05,6.1035156e-05
2019-07-01T20:14:42.864Z,0.010903799,-0.012370455,0.9938517,0.23928833,-0.21989441,9.806503,3.1921387,-15.510559,-38.35144,0.23910835,-0.21771936,9.801316,0.00012607872,0.00049853325,0.00058174133,0.00010681152,3.0517578e-05,-0.00012207031
2019-07-01T20:14:43.063Z,0.010898885,-0.012406186,0.99385357,0.237854,-0.21607971,9.804352,1.9927979,-15.145874,-39.43634,0.23908474,-0.21843128,9.801302,0.00035385787,-0.0018795878,0.0019788742,0.00010681152,9.1552734e-05,0.00018310547
2019-07-01T20:14:43.264Z,0.010864376,-0.012357627,0.9938618,0.23951721,-0.21846008,9.803635,2.5512695,-15.3289795,-39.120483,0.23829363,-0.2175748,9.80134,-0.0012271553,0.0013304502,-0.00059890747,0.00010681152,3.0517578e-05,0.00012207031
2019-07-01T20:14:43.467Z,0.010885364,-0.012355379,0.99385625,0.24023438,-0.21679688,9.806747,2.017212,-16.607666,-38.526917,0.23870845,-0.21747431,9.801332,0.0007330924,-0.00044380128,0.0004005432,-1.5258789e-05,-9.1552734e-05,0.00018310547
2019-07-01T20:14:43.672Z,0.010914835,-0.0123513285,0.9938485,0.23880005,-0.2141571,9.803635,2.1362305,-15.878296,-37.40387,0.23928902,-0.21731563,9.801321,0.0008545369,0.00060124695,0.0012178421,-1.5258789e-05,-0.0001373291,0.00018310547
2019-07-01T20:14:43.877Z,0.010913853,-0.0122896405,0.9938477,0.2359314,-0.21655273,9.804352,2.937317,-15.8203125,-37.953186,0.23914056,-0.21611212,9.801352,-0.00064992905,0.0022719502,-0.00077342987,4.5776367e-05,-3.0517578e-05,0.00018310547
2019-07-01T20:14:44.077Z,0.010881772,-0.012284815,0.9938561,0.23904419,-0.2163086,9.803879,2.5253296,-16.065979,-38.21411,0.23848936,-0.21610425,9.801367,-0.0016683042,-0.00013943017,-0.00067710876,-1.5258789e-05,-0.0002593994,-6.1035156e-05
2019-07-01T20:14:44.281Z,0.010905047,-0.012295085,0.9938501,0.23857117,-0.21606445,9.805542,2.770996,-15.82489,-38.778687,0.23897594,-0.21624233,9.8013525,-0.00048476458,-0.00023803115,0.0006799698,4.5776367e-05,-0.0001373291,0.0
2019-07-01T20:14:44.474Z,0.010898164,-0.012303544,0.9938521,0.2359314,-0.2163086,9.804352,2.8015137,-15.168762,-38.56964,0.23885605,-0.2164263,9.801352,-0.0003606081,-0.00053085387,-0.00035095215,0.00016784668,3.0517578e-05,-6.1035156e-05
2019-07-01T20:14:44.684Z,0.010837528,-0.01227734,0.99386746,0.23857117,-0.21679688,9.801956,1.9882202,-15.52124,-37.852478,0.23758957,-0.21607727,9.801391,-0.0024411976,0.0003015846,-0.0007162094,-1.5258789e-05,-0.00019836426,0.00012207031
2019-07-01T20:14:44.890Z,0.010860622,-0.012289073,0.9938616,0.23928833,-0.21583557,9.805557,2.357483,-16.22467,-38.01117,0.23807557,-0.21624452,9.801374,0.0004351735,-0.00025331974,-0.0004720688,-1.5258789e-05,9.1552734e-05,0.00018310547
2019-07-01T20:14:45.086Z,0.01087827,-0.012275984,0.9938568,0.24023438,-0.21536255,9.804123,2.5650024,-15.115356,-38.398743,0.23840095,-0.21594104,9.8013735,0.0010418743,0.0004169941,0.0011253357,-1.5258789e-05,3.0517578e-05,6.1035156e-05
2019-07-01T20:14:45.291Z,0.01090997,-0.012274469,0.9938485,0.23904419,-0.21559143,9.8033905,3.0334473,-15.59906,-37.4588,0.23903127,-0.21582596,9.80136,0.0013729185,-0.00018662214,-5.722046e-05,0.00016784668,0.00015258789,-0.00019836426
2019-07-01T20:14:45.489Z,0.010913425,-0.012259045,0.99384737,0.23951721,-0.21774292,9.804352,3.0075073,-16.107178,-38.08899,0.23906812,-0.21551506,9.801367,0.0006310344,0.0006968677,-0.000998497,-1.5258789e-05,-3.0517578e-05,0.00012207031
2019-07-01T20:14:45.692Z,0.010905407,-0.012300226,0.9938501,0.23736572,-0.21487427,9.800522,2.7526855,-14.6698,-37.409973,0.23899388,-0.21634187,9.80135,-0.00048676133,-0.001587227,0.00013065338,-7.6293945e-05,-3.0517578e-05,0.00012207031
2019-07-01T20:14:45.896Z,0.010879546,-0.01227287,0.99385643,0.2359314,-0.21678162,9.801483,2.5527954,-15.332031,-38.74359,0.23841996,-0.21587673,9.801374,-0.0013203621,0.0010361671,-0.0021390915,0.00010681152,3.0517578e-05,6.1035156e-05
2019-07-01T20:14:46.100Z,0.010842783,-0.01228464,0.9938662,0.23857117,-0.21702576,9.803635,2.7755737,-15.753174,-38.687134,0.23770984,-0.21620587,9.801385,-0.0010847747,-0.0007985085,-0.0011148453,4.5776367e-05,9.1552734e-05,6.1035156e-05
2019-07-01T20:14:46.303Z,0.010848834,-0.012263462,0.9938643,0.2400055,-0.21751404,9.801239,2.0339966,-16.242981,-38.453674,0.23778656,-0.21577547,9.801392,0.00025217235,-0.0012102127,0.0011405945,0.00010681152,3.0517578e-05,0.0
2019-07-01T20:14:46.508Z,0.010899512,-0.01230533,0.9938517,0.23664856,-0.2172699,9.8029175,1.9851685,-15.518188,-38.22937,0.23888671,-0.21645756,9.80135,0.0018104762,-0.001506418,-0.0016288757,0.00016784668,3.0517578e-05,-6.1035156e-05
2019-07-01T20:14:46.714Z,0.010853921,-0.012285464,0.99386334,0.23760986,-0.21463013,9.801956,2.4230957,-14.840698,-37.35504,0.23793413,-0.21619199,9.801379,-0.0017838329,-0.00033779442,2.5749207e-05,-1.5258789e-05,-9.1552734e-05,0.00030517578
2019-07-01T20:14:46.911Z,0.010843242,-0.012270761,0.9938659,0.23808289,-0.21702576,9.8033905,3.465271,-14.91394,-37.638855,0.23769002,-0.21593325,9.801391,-0.00034926832,0.00083751976,8.583069e-06,0.00016784668,9.1552734e-05,0.00012207031
2019-07-01T20:14:47.115Z,0.010849194,-0.012286801,0.9938646,0.23951721,-0.21606445,9.805313,3.0639648,-15.019226,-36.888123,0.23784246,-0.21623087,9.801381,-2.1621585e-05,-0.0014818907,0.0006427765,0.00010681152,-0.0001373291,0.00012207031
2019-07-01T20:14:47.379Z,0.010895192,-0.012265242,0.9938522,0.24023438,-0.21870422,9.805313,2.7114868,-15.470886,-38.02185,0.23871669,-0.2156854,9.801372,0.0014669448,0.00062660873,0.0026664734,4.5776367e-05,-3.0517578e-05,0.0
2019-07-01T20:14:47.579Z,0.010898402,-0.012333652,0.9938525,0.23857117,-0.21846008,9.804352,1.751709,-15.390015,-38.043213,0.23892367,-0.21701433,9.801336,0.0005301982,-0.002822563,-0.0003004074,0.00016784668,-3.0517578e-05,6.1035156e-05
2019-07-01T20:14:47.778Z,0.010905185,-0.012334722,0.99385077,0.2400055,-0.21655273,9.802673,1.2619019,-15.570068,-37.68158,0.2390615,-0.21701698,9.801334,0.00015988946,-0.00066518784,0.00027370453,4.5776367e-05,3.0517578e-05,-0.00032043457
2019-07-01T20:14:47.982Z,0.01091507,-0.012328199,0.993848,0.2400055,-0.21749878,9.806274,3.503418,-15.783691,-37.893677,0.23924544,-0.21686278,9.801333,0.00045634806,0.00036403537,-0.00061130524,-1.5258789e-05,-3.0517578e-05,0.00012207031
2019-07-01T20:14:48.180Z,0.010926603,-0.01233988,0.9938452,0.23832703,-0.21798706,9.804825,2.4383545,-16.220093,-38.087463,0.23950033,-0.21706003,9.801322,0.00066906214,-0.00013713539,0.00166893,0.00010681152,0.00021362305,-6.1035156e-05
2019-07-01T20:14:48.383Z,0.010895279,-0.01234325,0.99385345,0.23976135,-0.21894836,9.803635,2.7130127,-15.472412,-37.872314,0.23888132,-0.21721044,9.801334,-0.00063608587,-0.0011752546,0.00013446808,4.5776367e-05,9.1552734e-05,6.1035156e-05
2019-07-01T20:14:48.590Z,0.010900271,-0.012369573,0.9938526,0.24143982,-0.21702576,9.803162,3.3569336,-15.504456,-37.678528,0.23903602,-0.21771166,9.801319,0.0006495863,-0.0011677295,-0.0005455017,-1.5258789e-05,9.1552734e-05,-6.1035156e-05
2019-07-01T20:14:48.792Z,0.010927454,-0.012357546,0.9938453,0.2359314,-0.21678162,9.805542,3.1082153,-15.740967,-37.41455,0.23955424,-0.21740316,9.801313,0.0015776008,0.000908345,-0.0010070801,-1.5258789e-05,0.00015258789,-6.1035156e-05
2019-07-01T20:14:48.992Z,0.010869678,-0.012334699,0.99386,0.23928833,-0.21559143,9.8029175,3.4851074,-16.072083,-38.62915,0.23835178,-0.21711223,9.80135,-0.0020213574,0.00039801002,0.0009212494,4.5776367e-05,-3.0517578e-05,0.00012207031
2019-07-01T20:14:49.191Z,0.010887985,-0.012319605,0.993855,0.23736572,-0.21702576,9.804108,2.6565552,-16.636658,-38.63678,0.23868617,-0.21676777,9.801349,0.0007650703,0.0009921044,-0.00066661835,-7.6293945e-05,9.1552734e-05,-0.00012207031
2019-07-01T20:14:49.399Z,0.010843744,-0.0123180635,0.9938665,0.23832703,-0.21679688,9.804352,2.89917,-16.699219,-37.904358,0.2377987,-0.21685678,9.801368,-0.0014389455,-0.00011433661,-0.00044727325,-7.6293945e-05,0.00021362305,-0.00018310547
2019-07-01T20:14:49.596Z,0.010856653,-0.012326128,0.9938633,0.23880005,-0.21870422,9.801727,2.682495,-16.204834,-37.869263,0.23807356,-0.21697973,9.801359,0.0013753325,1.6227365e-05,0.0006532669,-7.6293945e-05,0.00015258789,-6.1035156e-05
2019-07-01T20:14:49.817Z,0.010850148,-0.012339875,0.9938652,0.2400055,-0.21559143,9.801956,3.3493042,-15.496826,-38.734436,0.23797223,-0.21726604,9.801355,0.000319615,-0.0006889105,-0.002755165,4.5776367e-05,0.00015258789,-0.00012207031
2019-07-01T20:14:50.005Z,0.010890628,-0.012325083,0.9938544,0.2400055,-0.21917725,9.803879,3.5858154,-15.548706,-39.208984,0.23875043,-0.21686776,9.801345,0.0019260645,0.0008299947,0.00086688995,0.00016784668,9.1552734e-05,-0.00018310547
2019-07-01T20:14:50.200Z,0.010882319,-0.012355099,0.993857,0.23832703,-0.21870422,9.803635,3.0807495,-16.249084,-38.046265,0.23864698,-0.21747704,9.801333,0.00035133958,-0.0016584247,-7.05719e-05,-7.6293945e-05,-3.0517578e-05,-6.1035156e-05
2019-07-01T20:14:50.400Z,0.0108719515,-0.012375147,0.99386007,0.23928833,-0.21870422,9.805069,1.6418457,-16.130066,-37.58545,0.23848157,-0.21789695,9.801328,-0.0004440993,-0.0010099113,-4.7683716e-05,-7.6293945e-05,9.1552734e-05,-6.1035156e-05
2019-07-01T20:14:50.614Z,0.01089293,-0.012386836,0.9938548,0.23976135,-0.21678162,9.802673,2.0812988,-15.298462,-37.58545,0.23892534,-0.21806899,9.801314,0.0010191649,0.00013758242,0.001253128,0.00010681152,-9.1552734e-05,-6.1035156e-05
2019-07-01T20:14:50.813Z,0.010901724,-0.012370917,0.99385226,0.23880005,-0.21678162,9.802444,2.06604,-15.588379,-37.94403,0.23906787,-0.217734,9.801317,-7.729232e-05,0.0005129427,-0.0005979538,-1.5258789e-05,3.0517578e-05,-6.1035156e-05
2019-07-01T20:14:51.010Z,0.010929314,-0.012382608,0.9938452,0.23783875,-0.21511841,9.804352,2.545166,-15.78064,-37.249756,0.23964377,-0.21788816,9.8013,0.0010127425,-0.0012289435,0.0010643005,4.5776367e-05,0.00015258789,-0.00018310547
2019-07-01T20:14:51.213Z,0.01090527,-0.012340184,0.9938508,0.23736572,-0.2182312,9.803162,2.62146,-15.771484,-38.00354,0.23907459,-0.21712354,9.801331,-0.0005771369,0.0015852153,-0.00056648254,-1.5258789e-05,3.0517578e-05,-0.00012207031
2019-07-01T20:14:51.416Z,0.010860958,-0.012353372,0.9938626,0.2400055,-0.21751404,9.801727,2.5497437,-15.629578,-37.597656,0.23821643,-0.21750082,9.801344,-0.0016173422,-0.00091409683,-0.000705719,0.00010681152,-3.0517578e-05,0.00010681152
2019-07-01T20:14:51.617Z,0.010904982,-0.012348362,0.993851,0.23808289,-0.21679688,9.804596,2.658081,-15.045166,-37.17804,0.23908588,-0.2172842,9.801327,0.0015981942,-0.00019475818,-0.00095272064,0.000289917,3.0517578e-05,-6.1035156e-05
2019-07-01T20:14:51.821Z,0.010880023,-0.012319845,0.9938571,0.23857117,-0.21702576,9.804108,2.243042,-15.365601,-37.075806,0.23852757,-0.21679394,9.8013525,-0.0007311255,0.00029353797,0.0015954971,-7.6293945e-05,-3.0517578e-05,-6.1035156e-05
2019-07-01T20:14:52.024Z,0.010882261,-0.01231628,0.99385643,0.23928833,-0.21534729,9.802673,2.4871826,-15.126038,-37.86621,0.23856482,-0.21671818,9.8013525,-4.851818e-05,0.00021529198,-0.00021648407,4.5776367e-05,3.0517578e-05,-0.00018310547
2019-07-01T20:14:52.227Z,0.010889917,-0.012298095,0.9938541,0.23808289,-0.21678162,9.806503,1.5380859,-14.823914,-37.76703,0.23867987,-0.21634199,9.801358,0.0003131032,0.0005528182,-0.00029945374,0.00010681152,0.00015258789,-0.0001373291
2019-07-01T20:14:52.429Z,0.010872215,-0.012298437,0.99385875,0.23855591,-0.21821594,9.801239,1.5182495,-15.260315,-37.85553,0.23832682,-0.21639638,9.801366,-7.556379e-05,-0.0005605668,0.0020208359,-1.5258789e-05,9.1552734e-05,6.1035156e-05
2019-07-01T20:14:52.631Z,0.010859413,-0.012324912,0.99386257,0.23832703,-0.21606445,9.801483,3.6209106,-15.052795,-37.446594,0.23812617,-0.21694848,9.801357,-0.00033318996,-0.00050860643,-0.0024747849,-7.6293945e-05,9.1552734e-05,-6.1035156e-05
2019-07-01T20:14:52.835Z,0.010861048,-0.012322977,0.9938621,0.23976135,-0.21942139,9.801727,2.4887085,-15.126038,-37.716675,0.2381548,-0.21690625,9.801357,0.00061172247,-8.897483e-05,-0.0010251999,-1.5258789e-05,0.00015258789,-0.00018310547
2019-07-01T20:14:53.037Z,0.01088948,-0.012362253,0.9938553,0.23832703,-0.21846008,9.802444,1.9454956,-14.649963,-37.825012,0.23880504,-0.2175976,9.801327,0.0016433448,-0.001796335,-0.0003633499,0.00010681152,-3.0517578e-05,0.00012207031
2019-07-01T20:14:53.240Z,0.010871308,-0.012359112,0.99386,0.23808289,-0.21751404,9.803635,2.9281616,-16.18805,-37.724304,0.23843527,-0.21758516,9.801336,-0.0008523464,-0.00013317168,-0.00024318695,0.00016784668,-3.0517578e-05,-6.1035156e-05
2019-07-01T20:14:53.455Z,0.010866667,-0.012357672,0.9938612,0.23928833,-0.21798706,9.800278,3.1845093,-15.80658,-37.657166,0.23833951,-0.21756952,9.801339,-4.912913e-05,-0.00062823296,0.00078868866,0.00016784668,9.1552734e-05,0.00022888184
2019-07-01T20:14:53.653Z,0.010878387,-0.012347625,0.993858,0.24047852,-0.21487427,9.800522,2.848816,-16.046143,-38.07068,0.23855278,-0.21734148,9.801338,0.0007233918,8.265674e-05,-0.0020332336,4.5776367e-05,-3.0517578e-05,-0.00019836426
2019-07-01T20:14:53.856Z,0.010915997,-0.01231602,0.9938476,0.24047852,-0.21583557,9.797409,2.2857666,-15.933228,-38.55133,0.23923853,-0.21662213,9.801338,0.0012364835,0.0012779981,-0.00071525574,0.00035095215,0.00015258789,6.1035156e-05
2019-07-01T20:14:54.051Z,0.0109325275,-0.012274922,0.9938426,0.23880005,-0.21607971,9.801712,2.470398,-15.716553,-36.77826,0.23948304,-0.21577397,9.801352,0.0007790178,0.0004017204,-0.0025644302,4.5776367e-05,-3.0517578e-05,0.0004119873
2019-07-01T20:14:54.254Z,0.010909879,-0.012282518,0.9938487,0.23976135,-0.21678162,9.799805,2.7328491,-15.185547,-37.13684,0.23904629,-0.2159836,9.801357,-0.0007017702,-0.00034078956,0.0008430481,0.00010681152,9.1552734e-05,-0.0002593994
2019-07-01T20:14:54.459Z,0.010935033,-0.012301049,0.99384236,0.23976135,-0.21870422,9.799561,3.048706,-15.309143,-37.324524,0.23958768,-0.21627805,9.801337,0.0013914108,-0.0010167211,-0.00087833405,4.5776367e-05,3.0517578e-05,-6.1035156e-05
2019-07-01T20:14:54.669Z,0.010932045,-0.012339189,0.9938438,0.23664856,-0.21391296,9.800995,2.6245117,-15.698242,-37.98828,0.23960766,-0.21703184,9.80132,-6.784499e-05,-0.0016928613,0.00037002563,-7.6293945e-05,-3.0517578e-05,0.0
2019-07-01T20:14:54.887Z,0.010875059,-0.012283618,0.9938578,0.23664856,-0.2172699,9.799805,2.1347046,-15.802002,-38.0661,0.2383527,-0.21609895,9.801371,-0.0023965836,0.002163574,-7.724762e-05,-1.5258789e-05,3.0517578e-05,-0.00019836426
2019-07-01T20:14:55.072Z,0.010856145,-0.012298091,0.9938629,0.23976135,-0.21655273,9.800522,1.9668579,-16.033936,-37.805176,0.2380049,-0.21643288,9.801372,-0.00083887577,-0.00061942637,-0.00036525726,-7.6293945e-05,-9.1552734e-05,6.1035156e-05
2019-07-01T20:14:55.267Z,0.010890833,-0.0123066865,0.99385405,0.2400055,-0.21511841,9.801956,2.6611328,-14.894104,-37.826538,0.23871611,-0.2165075,9.801353,0.0013192147,-7.2300434e-05,-7.915497e-05,-1.5258789e-05,3.0517578e-05,0.00036621094
2019-07-01T20:14:55.476Z,0.010903889,-0.012281642,0.99385023,0.23976135,-0.21511841,9.800766,2.8625488,-15.907288,-36.909485,0.23892476,-0.21598263,9.80136,0.0006017983,0.0010999143,0.0016965866,0.00010681152,-3.0517578e-05,-0.00012207031
2019-07-01T20:14:55.680Z,0.010926757,-0.012259346,0.99384385,0.23880005,-0.21702576,9.79718,2.87323,-15.460205,-38.02643,0.23933516,-0.21548499,9.801361,0.00044307113,0.00035138428,-0.000620842,0.00016784668,-3.0517578e-05,0.00012207031
2019-07-01T20:14:55.908Z,0.010913594,-0.012294619,0.9938479,0.23951721,-0.21846008,9.8029175,1.9775391,-15.815735,-37.760925,0.2391458,-0.21621019,9.80135,-0.0005335212,-0.0015698969,-0.0020112991,0.00010681152,-0.0001373291,-1.5258789e-05
2019-07-01T20:14:56.086Z,0.010930897,-0.012315235,0.9938437,0.23880005,-0.21774292,9.801956,2.241516,-15.286255,-37.74109,0.23953468,-0.21656658,9.801332,0.000481233,-0.001185745,0.0024843216,-1.5258789e-05,-3.0517578e-05,-6.1035156e-05
2019-07-01T20:14:56.288Z,0.010913681,-0.012341174,0.9938486,0.24023438,-0.21870422,9.803635,3.010559,-16.113281,-37.4115,0.23924476,-0.21712022,9.801327,-0.00044882298,-0.0010920018,0.0011777878,-7.6293945e-05,3.0517578e-05,6.1035156e-05
2019-07-01T20:14:56.484Z,0.010932834,-0.012363286,0.993844,0.237854,-0.21583557,9.801956,2.9464722,-15.751648,-37.409973,0.23967376,-0.21750088,9.801309,0.00054454803,-0.00047160685,0.00095272064,-7.6293945e-05,-9.1552734e-05,6.1035156e-05
2019-07-01T20:14:56.692Z,0.010910719,-0.012341428,0.9938494,0.24023438,-0.21774292,9.800766,2.5634766,-15.266418,-37.67395,0.23918608,-0.21713315,9.801328,-0.0011069626,0.0008279681,-0.00096035004,4.5776367e-05,9.1552734e-05,6.1035156e-05
2019-07-01T20:14:56.900Z,0.010912219,-0.012360856,0.99384934,0.23783875,-0.2172699,9.800049,1.7318726,-15.904236,-37.542725,0.23925662,-0.21750896,9.801317,0.0004968345,-0.0004709363,0.0003156662,-7.6293945e-05,9.1552734e-05,-0.00018310547
2019-07-01T20:14:57.103Z,0.010879413,-0.012361452,0.9938579,0.23832703,-0.21774292,9.8022,2.1240234,-16.020203,-38.18817,0.23860216,-0.21760908,9.8013315,-0.0009907484,9.36389e-05,-0.000746727,-0.0001373291,0.00015258789,0.0
2019-07-01T20:14:57.300Z,0.01088163,-0.012352863,0.9938572,0.23904419,-0.2163086,9.801483,2.848816,-15.969849,-38.357544,0.23862854,-0.21743517,9.801334,0.00065769255,0.00041133165,0.00029087067,4.5776367e-05,9.1552734e-05,0.00018310547
2019-07-01T20:14:57.503Z,0.01087452,-0.012337844,0.9938588,0.24047852,-0.21798706,9.800766,2.8396606,-14.5980835,-36.868286,0.2384551,-0.21716066,9.801345,-0.00014200807,-0.000569582,0.001244545,0.00016784668,-3.0517578e-05,-6.1035156e-05
2019-07-01T20:14:57.711Z,0.01089518,-0.012363802,0.9938538,0.23904419,-0.21870422,9.802444,1.8661499,-16.401672,-38.101196,0.23892218,-0.21761252,9.801323,0.0008223504,-0.001320526,0.00018692017,0.00010681152,0.00021362305,0.0
2019-07-01T20:14:57.912Z,0.010888534,-0.012353841,0.9938554,0.23857117,-0.21989441,9.801483,2.7069092,-15.617371,-37.902832,0.23876858,-0.21743569,9.8013315,0.00050519407,-0.0002939552,-0.00020217896,0.00010681152,0.00015258789,-6.1035156e-05
2019-07-01T20:14:58.113Z,0.010879069,-0.012400063,0.99385864,0.24119568,-0.22038269,9.802429,2.2521973,-14.915466,-38.34381,0.23867583,-0.21836495,9.801313,0.00012437999,-0.0020178705,-0.0012578964,4.5776367e-05,3.0517578e-05,-6.1035156e-05
2019-07-01T20:14:58.318Z,0.010902211,-0.012438125,0.9938532,0.23760986,-0.21774292,9.800278,2.8259277,-16.557312,-38.098145,0.23921785,-0.21904677,9.801284,0.0012450069,-0.0013215989,0.0012359619,4.5776367e-05,3.0517578e-05,-1.5258789e-05
2019-07-01T20:14:58.519Z,0.010889317,-0.012402869,0.993856,0.23857117,-0.2172699,9.800293,2.1209717,-14.421082,-37.55951,0.23888652,-0.21839218,9.801307,-0.00056906044,0.0011310279,-0.0004606247,-1.5258789e-05,-3.0517578e-05,0.00012207031
2019-07-01T20:14:58.723Z,0.0108763,-0.012383908,0.9938591,0.23760986,-0.21606445,9.803146,2.7893066,-15.538025,-38.04016,0.23858678,-0.21805653,9.801322,-0.0007265657,0.00078095496,-0.0012617111,-1.5258789e-05,-9.1552734e-05,0.00018310547
2019-07-01T20:14:58.925Z,0.010875438,-0.012358587,0.99385893,0.2400055,-0.2182312,9.8022,2.871704,-15.458679,-38.253784,0.23851673,-0.21756376,9.801334,-0.00044609606,0.0010222048,0.0015525818,-1.5258789e-05,-3.0517578e-05,6.1035156e-05
2019-07-01T20:14:59.128Z,0.010901733,-0.012358273,0.993852,0.237854,-0.21391296,9.800995,3.1158447,-15.594482,-37.38556,0.23904167,-0.21748677,9.801324,0.00070619583,-1.4990568e-05,8.010864e-05,-1.5258789e-05,-3.0517578e-05,0.00024414062
2019-07-01T20:14:59.350Z,0.010877309,-0.01230343,0.9938575,0.23904419,-0.21846008,9.8029175,2.84729,-15.968323,-38.658142,0.23843905,-0.21648027,9.801361,-0.0013247579,0.0023297668,-0.00042152405,4.5776367e-05,-3.0517578e-05,-6.1035156e-05
2019-07-01T20:14:59.538Z,0.010881815,-0.012338742,0.9938569,0.23928833,-0.21774292,9.80101,2.6123047,-15.991211,-37.747192,0.23860277,-0.21715856,9.801341,0.00067718327,-0.0020110756,2.670288e-05,0.00016784668,0.00015258789,-0.0001373291
2019-07-01T20:14:59.792Z,0.0108991815,-0.012344021,0.99385244,0.23880005,-0.21606445,9.800766,3.1982422,-15.516663,-37.446594,0.2389609,-0.21721497,9.8013315,0.0010433644,-5.3837895e-05,-0.00061511993,-1.5258789e-05,9.1552734e-05,-0.00012207031
2019-07-01T20:14:59.937Z,0.01088054,-0.012326925,0.9938571,0.24023438,-0.2172699,9.801483,2.8274536,-14.736938,-37.727356,0.23855263,-0.21693096,9.801348,-0.00022925436,0.00038154423,0.00021457672,-1.5258789e-05,0.00015258789,6.1035156e-05
2019-07-01T20:15:00.143Z,0.010903387,-0.012320841,0.993851,0.2400055,-0.2172699,9.799088,2.5741577,-15.045166,-37.704468,0.23899657,-0.2167504,9.801341,0.0012379736,0.00019751489,-0.00033950806,0.00022888184,0.00015258789,6.1035156e-05
2019-07-01T20:15:00.344Z,0.010915227,-0.012321273,0.9938479,0.23928833,-0.21870422,9.800522,2.5680542,-15.19165,-37.734985,0.23923412,-0.21672693,9.801336,0.0012643784,-0.00080521405,-0.0016736984,-1.5258789e-05,0.00015258789,0.00012207031
2019-07-01T20:15:00.550Z,0.010898325,-0.012353598,0.99385285,0.23976135,-0.21870422,9.801483,2.1270752,-14.276123,-37.37793,0.23896378,-0.21740454,9.801328,8.636713e-05,-0.0013051182,0.0011177063,0.00010681152,-3.0517578e-05,0.00012207031
2019-07-01T20:15:00.754Z,0.010927088,-0.012377379,0.9938457,0.24287415,-0.21751404,9.801239,2.7679443,-15.974426,-38.42926,0.23958835,-0.21779194,9.801304,0.0011442453,-0.0009213239,-0.000374794,0.00010681152,3.0517578e-05,0.00024414062
2019-07-01T20:15:00.955Z,0.0109909065,-0.012374806,0.99382895,0.24143982,-0.2182312,9.802444,2.998352,-16.177368,-38.708496,0.24085854,-0.2175692,9.801277,0.0020260215,-0.00018313527,-8.773804e-05,4.5776367e-05,-3.0517578e-05,0.00012207031
2019-07-01T20:15:01.155Z,0.010970433,-0.012367432,0.9938342,0.24047852,-0.21774292,9.8033905,2.0477295,-16.026306,-37.882996,0.24043393,-0.21748038,9.80129,-0.00020974874,-2.4437904e-05,0.0016851425,4.5776367e-05,0.00015258789,-1.5258789e-05
2019-07-01T20:15:01.353Z,0.01096018,-0.012375115,0.993837,0.237854,-0.21846008,9.799561,1.9485474,-14.653015,-37.220764,0.24024506,-0.21765831,9.8012905,0.00021715462,-0.00031396747,0.00048828125,4.5776367e-05,3.0517578e-05,0.00030517578
2019-07-01T20:15:01.555Z,0.010928313,-0.01235808,0.9938451,0.23832703,-0.2172699,9.801727,2.2155762,-15.872192,-37.480164,0.23957253,-0.21741126,9.801312,-0.0012438744,-0.00033311546,-0.0014419556,0.00016784668,9.1552734e-05,0.0
2019-07-01T20:15:01.775Z,0.010900255,-0.0123691335,0.9938526,0.24119568,-0.21559143,9.799332,1.4892578,-16.072083,-36.96289,0.23903479,-0.21770309,9.801319,-0.0007099807,-0.0005260855,0.00031757355,-1.5258789e-05,0.00015258789,6.1035156e-05