timestamp,rotationVector_x,rotationVector_y,rotationVector_z,accelerometer_x,accelerometer_y,accelerometer_z,magneticField_x,magneticField_y,magneticField_z,gravity_x,gravity_y,gravity_z,linearAcceleration_x,linearAcceleration_y,linearAcceleration_z,gyroscope_x,gyroscope_y,gyroscope_z
2019-07-01T19:09:27.630Z,-0.012277707,0.0036704382,-0.20254634,-0.023925781,-0.24885559,9.796219,-5.303955,15.771484,-45.5307,-0.021716774,-0.25037608,9.803429,-0.0010177065,-0.0020524561,0.00066280365,-6.1035156e-05,0.0,4.5776367e-05
2019-07-01T19:09:27.832Z,-0.012283904,0.0036773994,-0.20256753,-0.021530151,-0.25125122,9.817749,-5.355835,16.117859,-44.023132,-0.021820422,-0.2505232,9.803426,0.00051845796,-1.8805265e-05,-0.0016307831,0.00024414062,6.1035156e-05,0.00010681152
2019-07-01T19:09:28.039Z,-0.012260265,0.0037059188,-0.20262809,-0.01914978,-0.24406433,9.810577,-5.8410645,16.011047,-43.571472,-0.022446597,-0.25018394,9.803432,-0.0010046661,0.0006278455,0.0019445419,-0.00012207031,0.00012207031,0.00016784668
2019-07-01T19:09:28.238Z,-0.01222359,0.0037175966,-0.20263845,-0.01675415,-0.24885559,9.8033905,-4.576111,15.586853,-43.936157,-0.02281401,-0.24952638,9.803449,-0.00088377856,0.00066109,-0.0020570755,0.00012207031,0.0,0.00016784668
2019-07-01T19:09:28.440Z,-0.012237623,0.0036885173,-0.20257132,-0.026321411,-0.24885559,9.8033905,-5.583191,16.548157,-44.682312,-0.022216884,-0.24967876,9.803446,0.0014049057,0.00036147237,0.001666069,0.0,-4.5776367e-05,4.5776367e-05
2019-07-01T19:09:28.645Z,-0.012249884,0.0036458252,-0.20246829,-0.023925781,-0.25125122,9.812973,-4.8980713,15.872192,-45.602417,-0.02137455,-0.24974236,9.803446,0.0012623202,0.00062924623,-0.0019254684,-0.00018310547,6.1035156e-05,-9.1552734e-05
2019-07-01T19:09:28.846Z,-0.0122568505,0.003654287,-0.20249373,-0.01914978,-0.25125122,9.8033905,-5.7647705,15.945435,-43.740845,-0.021502897,-0.2499103,9.803442,0.00020188093,-0.00013254583,0.001282692,-0.00012207031,-0.00010681152,-0.00033569336
2019-07-01T19:09:29.045Z,-0.012244748,0.0036554916,-0.20249036,-0.021530151,-0.24885559,9.8033905,-5.5984497,16.331482,-45.17975,-0.021574968,-0.24968262,9.803448,0.00051850453,0.0010788739,0.00035762787,-0.00012207031,0.00024414062,-1.5258789e-05
2019-07-01T19:09:29.307Z,-0.012231026,0.003632192,-0.20242321,-0.01914978,-0.25842285,9.800995,-4.423523,15.608215,-45.222473,-0.021199102,-0.24932514,9.803457,0.00061536767,0.00071807206,-0.00023937225,-6.1035156e-05,0.0,0.00035095215
2019-07-01T19:09:29.508Z,-0.012259159,0.0036361204,-0.20244832,-0.028717041,-0.24645996,9.7986145,-5.9661865,16.651917,-42.456055,-0.021156415,-0.2498815,9.803443,0.00057287887,-0.0011188388,0.00015640259,0.0,-4.5776367e-05,0.000289917
2019-07-01T19:09:29.715Z,-0.012251069,0.0036500278,-0.2024797,-0.023925781,-0.25125122,9.793823,-5.9188843,16.308594,-44.86847,-0.021447644,-0.24978204,9.803445,-0.0005707983,0.00068219006,-0.0005226135,0.0,0.00018310547,0.00016784668
2019-07-01T19:09:30.015Z,-0.0122839995,0.0036721488,-0.2025541,-0.023925781,-0.25602722,9.8033905,-5.3375244,16.482544,-43.649292,-0.02172264,-0.25050387,9.803426,-5.1125884e-05,-0.001458466,0.0004453659,-0.00012207031,-4.5776367e-05,4.5776367e-05
2019-07-01T19:09:30.128Z,-0.012312362,0.0036551794,-0.2025257,-0.0143585205,-0.24645996,9.8033905,-4.135132,15.280151,-47.566223,-0.021291321,-0.25098047,9.803414,-8.912757e-06,-0.0007315576,0.0004606247,-0.00012207031,6.1035156e-05,0.0004119873
2019-07-01T19:09:30.317Z,-0.0123180235,0.0036006027,-0.2023886,-0.01914978,-0.24885559,9.796219,-5.3482056,16.493225,-45.15686,-0.020255812,-0.2508696,9.803419,0.0020707585,0.0008662343,0.0023880005,-0.00012207031,-0.00016784668,-3.0517578e-05
2019-07-01T19:09:30.520Z,-0.01231106,0.0036221454,-0.20244019,-0.01914978,-0.24406433,9.808182,-6.097412,15.853882,-44.34967,-0.020683983,-0.2508225,9.803421,-0.00085845403,0.00081279874,-0.00047779083,-6.1035156e-05,6.1035156e-05,-3.0517578e-05
2019-07-01T19:09:30.722Z,-0.012249638,0.0036113635,-0.20237969,-0.01675415,-0.24885559,9.800995,-4.8339844,15.286255,-44.667053,-0.02073627,-0.24959895,9.803452,0.00015456788,0.0026949048,-0.00047969818,-0.00018310547,0.0,0.00016784668
2019-07-01T19:09:30.921Z,-0.012253863,0.003587739,-0.20232129,-0.021530151,-0.24885559,9.808182,-5.583191,16.621399,-44.89441,-0.020280661,-0.24958514,9.803453,0.0011328962,3.7178397e-05,-0.0003194809,6.1035156e-05,0.00012207031,0.00010681152
2019-07-01T19:09:31.123Z,-0.01225285,0.003571583,-0.20227927,-0.026321411,-0.24645996,9.808182,-4.9301147,16.734314,-44.293213,-0.019985097,-0.24950074,9.803456,0.00083676353,-5.3957105e-05,-0.0005302429,0.0,-4.5776367e-05,-0.00015258789
2019-07-01T19:09:31.328Z,-0.012270626,0.0036331066,-0.20244673,-0.01675415,-0.2536316,9.808182,-5.307007,15.621948,-45.1828,-0.02105341,-0.2500897,9.803438,-0.0014377236,-0.0009135306,-0.0011444092,6.1035156e-05,0.00018310547,3.0517578e-05
2019-07-01T19:09:31.532Z,-0.012310741,0.003655009,-0.2025244,-0.021530151,-0.25125122,9.8033905,-5.584717,16.471863,-44.32068,-0.021294821,-0.25094864,9.803415,-0.00047888048,-0.001958847,0.00019168854,-0.00012207031,0.00012207031,4.5776367e-05
2019-07-01T19:09:31.738Z,-0.012306588,0.003637181,-0.20247641,-0.01914978,-0.24406433,9.8033905,-5.5480957,15.376282,-43.789673,-0.020981232,-0.25079706,9.80342,0.0006424822,0.00052168965,0.00060749054,0.00012207031,0.0,-3.0517578e-05
2019-07-01T19:09:31.944Z,-0.012265297,0.0036336288,-0.20244521,-0.0143585205,-0.24885559,9.805786,-5.6762695,16.169739,-44.000244,-0.02108499,-0.24998942,9.803441,0.0005019903,0.0011469722,-7.724762e-05,-0.00018310547,0.0,0.000289917
2019-07-01T19:09:32.134Z,-0.012258546,0.0036492317,-0.20248166,-0.01675415,-0.24406433,9.7986145,-5.685425,16.027832,-44.406128,-0.021402152,-0.24992253,9.803442,-0.0003709104,0.00036412477,0.000102996826,0.00018310547,0.00018310547,4.5776367e-05
2019-07-01T19:09:32.356Z,-0.012264514,0.0036284921,-0.2024316,-0.026321411,-0.2536316,9.800995,-5.7754517,15.725708,-43.785095,-0.020992912,-0.24995369,9.803441,0.0006538741,0.0008802563,-0.00023937225,-0.00018310547,-4.5776367e-05,0.00016784668
2019-07-01T19:09:32.548Z,-0.012297317,0.0036589515,-0.20252734,-0.01675415,-0.24406433,9.810577,-4.88739,15.861511,-44.169617,-0.02142312,-0.2507066,9.803422,-0.00082408264,-0.0014893413,-0.00080013275,-0.00024414062,6.1035156e-05,0.000289917
2019-07-01T19:09:32.748Z,-0.012248106,0.0036420873,-0.20245774,-0.01675415,-0.24885559,9.817749,-5.354309,16.192627,-44.084167,-0.021312514,-0.24969316,9.803448,0.00072787516,0.0025097877,-0.00052928925,0.00012207031,0.0,0.000289917
2019-07-01T19:09:32.950Z,-0.012282854,0.0036623138,-0.20252824,-0.01675415,-0.25125122,9.808182,-6.486511,16.04309,-43.917847,-0.021544926,-0.25044224,9.803428,0.0002434589,-0.0005671382,0.0002965927,-0.00024414062,0.00018310547,0.00022888184
2019-07-01T19:09:33.154Z,-0.012268609,0.00361257,-0.20239292,-0.021530151,-0.24885559,9.808182,-5.11322,16.285706,-44.5282,-0.02068074,-0.24996832,9.803442,0.0013039093,0.0011348575,0.0019493103,-0.00024414062,0.0,4.5776367e-05
2019-07-01T19:09:33.354Z,-0.01225567,0.0036137009,-0.20238891,-0.021530151,-0.24645996,9.786652,-7.2769165,16.357422,-44.047546,-0.020754855,-0.24972424,9.803448,-0.0005421806,-4.172325e-05,0.0022611618,6.1035156e-05,-0.00010681152,-3.0517578e-05
2019-07-01T19:09:33.560Z,-0.012299144,0.0036333364,-0.20246255,-0.01675415,-0.24645996,9.7986145,-4.942322,14.924622,-46.020508,-0.02094051,-0.25063854,9.803424,-0.00011478551,-0.0015367866,-0.0023260117,0.0,-4.5776367e-05,0.00035095215
2019-07-01T19:09:33.760Z,-0.012255103,0.0036560213,-0.20249724,-0.028717041,-0.24885559,9.796219,-5.253601,16.56189,-43.56079,-0.021466786,-0.24994965,9.803441,-0.0004750006,0.0017590374,-0.00059223175,-6.1035156e-05,0.00012207031,0.00010681152
2019-07-01T19:09:33.962Z,-0.012259197,0.0036528602,-0.20249133,-0.026321411,-0.24406433,9.805786,-5.7891846,15.510559,-44.206238,-0.021656591,-0.24998988,9.803439,0.0004093647,-9.9524856e-05,-0.0013513565,0.0,0.0,0.000289917
2019-07-01T19:09:34.165Z,-0.0122118,0.0036306293,-0.20240892,-0.026321411,-0.2536316,9.805786,-6.3934326,16.494751,-44.810486,-0.02124907,-0.24894944,9.803467,0.0001930166,0.0027462095,0.0015792847,0.0,-0.00010681152,0.00016784668
2019-07-01T19:09:34.367Z,-0.012257144,0.003667635,-0.20252815,-0.01914978,-0.25125122,9.810577,-5.4260254,16.331482,-43.675232,-0.02174929,-0.2499697,9.80344,-0.00027001277,-0.0012915134,-0.0018091202,-0.00012207031,0.0,0.00016784668
2019-07-01T19:09:34.572Z,-0.012257978,0.003652871,-0.2024907,-0.023925781,-0.24645996,9.800995,-5.078125,17.015076,-44.154358,-0.02147199,-0.24992625,9.803441,0.00041355938,9.420514e-05,-0.00040245056,-6.1035156e-05,0.00024414062,0.00033569336
2019-07-01T19:09:34.774Z,-0.012254515,0.0036361625,-0.20244595,-0.028717041,-0.25842285,9.8033905,-5.0476074,15.771484,-43.65387,-0.021176279,-0.24979243,9.803445,0.0013094638,0.00046531856,0.0013208389,-0.00012207031,-0.00010681152,0.00035095215
2019-07-01T19:09:35.011Z,-0.012301717,0.003662671,-0.20253925,-0.0143585205,-0.24885559,9.8033905,-4.7927856,16.157532,-44.114685,-0.021474024,-0.25080612,9.803419,0.00017477013,-0.0013675988,0.0016908646,-6.1035156e-05,0.00018310547,0.00010681152
2019-07-01T19:09:35.181Z,-0.012258352,0.0036112617,-0.20238408,-0.035888672,-0.2368927,9.8033905,-5.4229736,16.635132,-45.048523,-0.020698594,-0.24976596,9.803447,0.0017935093,0.0018783808,-0.0012655258,-0.00012207031,0.00024414062,0.00022888184
2019-07-01T19:09:35.384Z,-0.012215708,0.0036214588,-0.20238747,-0.009567261,-0.26081848,9.812973,-5.718994,17.042542,-43.896484,-0.02106288,-0.24898763,9.803466,-0.00071127154,0.0010949969,-0.00036907196,6.1035156e-05,-4.5776367e-05,-1.5258789e-05
2019-07-01T19:09:35.590Z,-0.012270105,0.0036045176,-0.20237304,-0.026321411,-0.23210144,9.805786,-5.505371,16.477966,-44.54956,-0.020525225,-0.24996465,9.803442,0.0016206522,-0.0007852763,0.000872612,-6.1035156e-05,0.00019836426,0.00022888184
2019-07-01T19:09:35.790Z,-0.012196759,0.0036407488,-0.20242687,-0.011962891,-0.24645996,9.810577,-5.418396,16.630554,-44.52057,-0.021498589,-0.24870117,9.8034725,-0.0009910073,0.0029798746,0.00074863434,-0.00018310547,0.0,9.1552734e-05
2019-07-01T19:09:35.989Z,-0.012205729,0.0036133225,-0.20236126,-0.028717041,-0.2632141,9.800995,-5.2001953,16.133118,-44.631958,-0.0209529,-0.24876314,9.803472,0.0015745405,-8.8870525e-05,-0.0014123917,0.0,0.00032043457,0.00015258789
2019-07-01T19:09:36.198Z,-0.012240969,0.0036488266,-0.20247123,-0.0143585205,-0.22970581,9.796219,-4.638672,16.174316,-44.947815,-0.021466853,-0.24958314,9.80345,-0.000550868,-0.0014156699,0.00033283234,-0.00012207031,0.00012207031,-3.0517578e-05
2019-07-01T19:09:36.401Z,-0.012247573,0.0036185922,-0.20239714,-0.028717041,-0.26081848,9.808182,-5.9036255,16.523743,-44.221497,-0.020878851,-0.24958836,9.803452,0.0010112934,0.00072541833,-0.001206398,-0.00012207031,0.0,0.00022888184
2019-07-01T19:09:36.604Z,-0.012281385,0.0037109044,-0.2026522,-0.011962891,-0.24406433,9.805786,-5.6777954,16.401672,-45.53833,-0.022452215,-0.25060987,9.803422,-0.0029079579,-0.0011151135,0.00048542023,-0.00024414062,0.0,9.1552734e-05
2019-07-01T19:09:36.814Z,-0.012332274,0.0035780026,-0.20233817,-0.01675415,-0.2536316,9.796219,-5.4397583,16.041565,-43.96057,-0.019778114,-0.25105256,9.803416,0.0051757246,-0.00042405725,0.0003271103,-0.00012207031,-0.00012207031,-0.00015258789
2019-07-01T19:09:37.006Z,-0.012331615,0.0036740906,-0.20258456,-0.021530151,-0.2536316,9.805786,-6.5063477,15.760803,-45.03174,-0.021562906,-0.25142658,9.803403,-0.0028502494,-0.0005312264,0.00053596497,-0.00012207031,0.0002593994,0.00022888184
2019-07-01T19:09:37.210Z,-0.0123315845,0.003558045,-0.20228656,-0.009567261,-0.24406433,9.810577,-5.9020996,16.596985,-44.50836,-0.019410782,-0.2509591,9.803419,0.0029019043,0.0014009774,0.0003604889,-6.1035156e-05,-0.00018310547,0.00039672852
2019-07-01T19:09:37.414Z,-0.012262217,0.003590634,-0.20233318,-0.021530151,-0.2536316,9.817749,-5.595398,16.32843,-44.802856,-0.020300072,-0.24975727,9.803449,-0.0009988379,0.0026091784,0.0011987686,-6.1035156e-05,0.0,-3.0517578e-05
2019-07-01T19:09:37.616Z,-0.012309613,0.0035378588,-0.20222299,-0.009567261,-0.2536316,9.8033905,-4.3548584,17.141724,-45.13855,-0.01912654,-0.25045586,9.803432,0.0023765098,-0.0012144446,0.0019197464,0.0,-0.00010681152,0.0004119873
2019-07-01T19:09:37.819Z,-0.012291486,0.0036026996,-0.20237981,-0.026321411,-0.25125122,9.8033905,-4.862976,16.447449,-44.506836,-0.020403696,-0.25036818,9.803432,-0.0020821989,0.00014647841,0.0011167526,-0.00018310547,0.00024414062,3.0517578e-05
2019-07-01T19:09:38.020Z,-0.012301917,0.0035276937,-0.20219277,-0.009567261,-0.25602722,9.8033905,-5.9646606,15.438843,-46.025085,-0.018969553,-0.25026718,9.803437,0.0027071014,-0.00022178888,-0.0018129349,6.1035156e-05,-4.5776367e-05,0.00016784668
2019-07-01T19:09:38.224Z,-0.012322493,0.0035865495,-0.2023549,-0.028717041,-0.24645996,9.808182,-6.3049316,16.567993,-44.195557,-0.019976808,-0.250899,9.80342,-0.0015503,-0.0005428791,-0.0005617142,6.1035156e-05,0.00018310547,-1.5258789e-05
2019-07-01T19:09:38.424Z,-0.012303174,0.0036030796,-0.20238702,-0.01675415,-0.25125122,9.8033905,-4.6188354,16.537476,-44.573975,-0.020362746,-0.25059423,9.803426,-0.000934666,0.0008248091,0.000746727,-0.00024414062,-0.00010681152,9.1552734e-05
2019-07-01T19:09:38.632Z,-0.012271835,0.0036651215,-0.20252956,-0.026321411,-0.24885559,9.796219,-6.1691284,16.070557,-44.75403,-0.021642294,-0.25024182,9.803432,-0.0020508673,0.001185298,-0.00030136108,0.0,0.0002593994,-3.0517578e-05
2019-07-01T19:09:38.891Z,-0.012285187,0.0036415227,-0.20247611,-0.009567261,-0.2416687,9.796219,-5.7891846,15.588379,-44.944763,-0.021149697,-0.25040337,9.803431,0.0008131657,0.00015410781,-0.00019741058,-0.00012207031,-0.00022888184,-9.1552734e-05
2019-07-01T19:09:39.039Z,-0.012304449,0.0036566993,-0.20252538,-0.028717041,-0.2536316,9.805786,-5.722046,16.74347,-42.674255,-0.021352036,-0.25083458,9.803419,0.00029790215,-0.00038143992,-0.00044250488,-0.00012207031,0.00019836426,-9.1552734e-05
2019-07-01T19:09:39.240Z,-0.012280548,0.0036417092,-0.20247412,-0.0143585205,-0.2416687,9.808182,-5.4870605,16.764832,-43.585205,-0.021172216,-0.25031498,9.803432,0.00059123524,0.0017404854,0.00018978119,-0.00012207031,0.00012207031,9.1552734e-05
2019-07-01T19:09:39.441Z,-0.012228273,0.0036422217,-0.20244749,-0.026321411,-0.25125122,9.808182,-5.2734375,16.122437,-43.649292,-0.021396475,-0.2493126,9.803456,-0.00012887828,0.0024355054,0.0015649796,-0.00012207031,6.1035156e-05,4.5776367e-05
2019-07-01T19:09:39.649Z,-0.012238886,0.0036129062,-0.2023779,-0.011962891,-0.24885559,9.808182,-6.414795,15.827942,-43.81256,-0.020809041,-0.24939856,9.803456,0.0011891369,0.000104665756,-0.001660347,-0.00018310547,-4.5776367e-05,0.00022888184
2019-07-01T19:09:39.843Z,-0.0122849,0.0036101,-0.20239528,-0.026321411,-0.24885559,9.808182,-5.5007935,16.549683,-44.232178,-0.020568017,-0.25027138,9.803434,0.0011899285,-0.0016900003,-0.0022249222,-0.00012207031,0.00012207031,0.00016784668
2019-07-01T19:09:40.042Z,-0.0123043265,0.0035946837,-0.20236608,-0.0143585205,-0.25125122,9.800995,-5.82428,16.52832,-44.223022,-0.020202275,-0.25058264,9.803427,-0.00013634562,-0.00040778518,0.0007457733,0.0,0.0,-3.0517578e-05
2019-07-01T19:09:40.264Z,-0.012305525,0.0036059264,-0.20239559,-0.026321411,-0.24885559,9.8033905,-7.3028564,15.925598,-45.040894,-0.020405892,-0.2506509,9.803426,0.0003102813,-0.00010937452,-0.0010995865,0.00012207031,-4.5776367e-05,4.5776367e-05
2019-07-01T19:09:40.564Z,-0.012212996,0.0036039806,-0.20234115,-0.028717041,-0.24885559,9.800995,-5.2627563,16.720581,-45.491028,-0.02074974,-0.2488652,9.80347,0.00016718917,0.00027240813,-0.00032615662,-6.1035156e-05,0.0,0.00010681152
2019-07-01T19:09:40.768Z,-0.0122306375,0.0036177505,-0.20238593,-0.01914978,-0.24645996,9.800995,-5.015564,15.44342,-47.94922,-0.020932779,-0.24925956,9.803459,-0.0003676545,-5.9083104e-05,-0.00068950653,6.1035156e-05,0.0,0.00016784668
2019-07-01T19:09:40.883Z,-0.012255225,0.0035873,-0.20232089,-0.023925781,-0.25125122,9.800995,-3.6315918,15.751648,-47.491455,-0.020266917,-0.24960954,9.8034525,0.0018339716,3.2767653e-05,-0.0010938644,-0.00024414062,0.00012207031,9.1552734e-05
2019-07-01T19:09:41.062Z,-0.012234278,0.0036094566,-0.20236659,-0.023925781,-0.24645996,9.793823,-5.1605225,15.79895,-47.8714,-0.020763965,-0.24929614,9.803459,-0.00029479712,0.00089396536,-0.0012044907,-6.1035156e-05,0.00012207031,4.5776367e-05
2019-07-01T19:09:41.258Z,-0.012224979,0.0036385306,-0.20243625,-0.023925781,-0.24406433,9.7986145,-4.992676,15.953064,-47.61963,-0.021341536,-0.24923448,9.80346,-0.0006791204,0.00084120035,-0.00048160553,-0.00018310547,0.00012207031,-3.0517578e-05
2019-07-01T19:09:41.463Z,-0.012196759,0.0036575254,-0.20246993,-0.021530151,-0.24645996,9.8033905,-4.9942017,15.499878,-45.60089,-0.021809848,-0.2487687,9.80347,-0.00092537515,0.00063453615,0.0023927689,-0.00012207031,6.1035156e-05,-3.0517578e-05
2019-07-01T19:09:41.672Z,-0.012202623,0.0036754198,-0.20251898,-0.01914978,-0.26081848,9.805786,-5.545044,15.67688,-45.162964,-0.022117749,-0.24895349,9.803465,-0.00012899935,-0.0001398623,0.00016307831,0.0,6.1035156e-05,0.00035095215
2019-07-01T19:09:41.864Z,-0.012266284,0.0036786974,-0.20256144,-0.021530151,-0.24406433,9.808182,-5.9036255,16.59851,-44.73419,-0.021916926,-0.25018987,9.803433,0.0003871452,-0.0015301406,-0.00020885468,-0.00012207031,0.00012207031,-9.1552734e-05
2019-07-01T19:09:42.075Z,-0.012271274,0.003682047,-0.2025727,-0.01914978,-0.25842285,9.810577,-5.163574,16.937256,-44.470215,-0.021958541,-0.25029925,9.803431,-5.985424e-05,0.0004980266,-0.00028514862,-0.00012207031,0.0,0.00010681152
2019-07-01T19:09:42.278Z,-0.012282444,0.0036439307,-0.20248082,-0.023925781,-0.2416687,9.808182,-6.463623,16.7099,-44.841003,-0.021205632,-0.25036034,9.803431,0.0013381541,0.00053712726,-0.00051021576,-0.00010681152,-9.1552734e-05,0.00021362305
2019-07-01T19:09:42.480Z,-0.012221753,0.0036297,-0.20241186,-0.023925781,-0.24406433,9.800995,-6.2469482,16.290283,-45.53833,-0.021190958,-0.24913692,9.803462,-0.0001119636,0.0019403845,-0.0009851456,-0.00016784668,-4.5776367e-05,3.0517578e-05
2019-07-01T19:09:42.682Z,-0.0121921245,0.003617498,-0.20236471,-0.01914978,-0.24645996,9.8033905,-6.201172,15.341187,-44.825745,-0.021086229,-0.24851856,9.803478,0.0002593901,0.0008697361,0.0028600693,0.00019836426,-4.5776367e-05,0.00021362305
2019-07-01T19:09:42.886Z,-0.012177738,0.0036108412,-0.20233993,-0.023925781,-0.24406433,9.810577,-6.2545776,15.994263,-45.069885,-0.021021768,-0.24821535,9.803486,0.0002094768,0.00032930076,-0.0006494522,7.6293945e-05,0.0001373291,3.0517578e-05
2019-07-01T19:09:43.088Z,-0.012210509,0.0036198336,-0.20238052,-0.023925781,-0.24645996,9.808182,-5.6884766,16.030884,-44.859314,-0.021054078,-0.24888119,9.803469,0.0002420377,-0.0013975203,0.00019741058,-4.5776367e-05,-4.5776367e-05,0.0001373291
2019-07-01T19:09:43.292Z,-0.012199514,0.0036056563,-0.20233826,-0.023925781,-0.2416687,9.808182,-5.291748,15.988159,-45.185852,-0.02083618,-0.2486129,9.803476,0.00074056536,0.0009652674,-0.0006580353,1.5258789e-05,0.0001373291,0.00021362305
2019-07-01T19:09:43.496Z,-0.012192821,0.003630921,-0.20239954,-0.026321411,-0.25125122,9.810577,-4.8080444,16.021729,-45.42389,-0.021332415,-0.24858594,9.803475,-0.0011587925,0.000694558,4.4822693e-05,-4.5776367e-05,-4.5776367e-05,0.00015258789
2019-07-01T19:09:43.701Z,-0.012200827,0.0036673876,-0.20249741,-0.01914978,-0.24885559,9.812973,-6.2683105,15.70282,-45.12787,-0.02197611,-0.24888662,9.803467,-0.0012318399,-0.000907436,0.00034236908,-0.00010681152,1.5258789e-05,3.0517578e-05
2019-07-01T19:09:43.901Z,-0.0121677825,0.0036704345,-0.20248757,-0.01675415,-0.25125122,9.805786,-6.147766,14.912415,-45.67108,-0.02216839,-0.24826396,9.803482,-0.0005641449,0.001838252,0.0021562576,-4.5776367e-05,-4.5776367e-05,1.5258789e-05
2019-07-01T19:09:44.107Z,-0.012193342,0.0036358743,-0.20241253,-0.021530151,-0.25602722,9.8033905,-5.618286,15.9713745,-45.77942,-0.021422181,-0.24861588,9.803474,0.0018000733,-0.00047580898,-0.0020799637,-4.5776367e-05,1.5258789e-05,3.0517578e-05
2019-07-01T19:09:44.304Z,-0.012216692,0.0036414596,-0.20243934,-0.026321411,-0.2536316,9.793823,-5.604553,16.108704,-44.770813,-0.02142991,-0.24908704,9.803463,-0.00034500472,-0.00073707104,-0.0012226105,-4.5776367e-05,1.5258789e-05,0.00021362305
2019-07-01T19:09:44.515Z,-0.01221412,0.0036280155,-0.20240346,-0.023925781,-0.25125122,9.805786,-5.0811768,16.86554,-43.806458,-0.021191051,-0.24898349,9.803466,0.00013380311,0.00037063658,0.0004682541,-0.00010681152,-0.00015258789,-3.0517578e-05
2019-07-01T19:09:44.712Z,-0.012207821,0.0036430308,-0.20243864,-0.0143585205,-0.2416687,9.796219,-5.406189,16.847229,-44.248962,-0.021495493,-0.2489229,9.803467,-0.00075212494,6.379187e-05,-0.000166893,1.5258789e-05,-9.1552734e-05,0.0002746582
2019-07-01T19:09:44.917Z,-0.0122253345,0.0036673024,-0.2025103,-0.01914978,-0.24885559,9.786652,-6.613159,15.319824,-45.71991,-0.021873835,-0.24935718,9.803455,-0.0013352018,-0.00022034347,-0.00010585785,-0.00010681152,-4.5776367e-05,0.0001373291
2019-07-01T19:09:45.114Z,-0.012211447,0.0036722468,-0.20251556,-0.01914978,-0.2416687,9.8033905,-5.2337646,15.4800415,-45.065308,-0.02202263,-0.24911024,9.803461,-0.00024151802,-0.0002361834,-0.0010328293,1.5258789e-05,1.5258789e-05,0.00015258789
2019-07-01T19:09:45.319Z,-0.012187383,0.0036423772,-0.20242603,-0.028717041,-0.25125122,9.808182,-5.5740356,16.766357,-44.488525,-0.021567307,-0.24852759,9.803477,0.00075303204,0.0013356507,0.00026893616,1.5258789e-05,-4.5776367e-05,1.5258789e-05
2019-07-01T19:09:45.520Z,-0.012187152,0.0036641187,-0.20248172,-0.028717041,-0.24406433,9.7986145,-4.4281006,15.460205,-45.025635,-0.021971641,-0.24861068,9.803473,-0.0005198363,-0.00048932433,0.0011329651,7.6293945e-05,1.5258789e-05,9.1552734e-05
2019-07-01T19:09:45.729Z,-0.012179518,0.003685798,-0.20253327,-0.028717041,-0.25602722,9.8033905,-5.6640625,16.693115,-45.329285,-0.02240523,-0.24855134,9.803473,-0.0003339164,0.0003735423,-0.003077507,-4.5776367e-05,1.5258789e-05,9.1552734e-05
2019-07-01T19:09:45.931Z,-0.012194175,0.003696023,-0.20256735,-0.0143585205,-0.2536316,9.805786,-5.944824,15.649414,-44.700623,-0.022534704,-0.24887417,9.803465,-0.0004476402,-0.00025434792,0.00083065033,-4.5776367e-05,7.6293945e-05,-0.000289917
2019-07-01T19:09:46.132Z,-0.012237474,0.0036591557,-0.20249587,-0.028717041,-0.24645996,9.7986145,-5.050659,17.596436,-43.885803,-0.021672826,-0.24955761,9.803451,0.0018047094,-0.0009899437,0.0011882782,-0.00010681152,7.6293945e-05,0.0002746582
2019-07-01T19:09:46.336Z,-0.012202304,0.0036449886,-0.20244071,-0.023925781,-0.2416687,9.8033905,-5.329895,16.70227,-43.90564,-0.021554474,-0.24882478,9.803469,0.0007402655,0.0018777102,2.861023e-06,-0.00010681152,-9.1552734e-05,1.5258789e-05
2019-07-01T19:09:46.541Z,-0.012270838,0.0036348237,-0.20245124,-0.021530151,-0.25125122,9.808182,-6.991577,15.65094,-44.58008,-0.021084389,-0.25010067,9.803437,0.0014597606,-0.0018893778,-0.00063323975,-0.00010681152,0.0002593994,-0.00022888184
2019-07-01T19:09:46.740Z,-0.012257283,0.0036314894,-0.20243543,-0.01675415,-0.24885559,9.810577,-5.935669,16.09497,-45.817566,-0.021078221,-0.24982682,9.803445,0.0009814911,-8.1956387e-07,0.00085544586,-4.5776367e-05,0.0001373291,-0.00010681152
2019-07-01T19:09:46.940Z,-0.012297483,0.0036023797,-0.20238218,-0.021530151,-0.25125122,9.7986145,-5.517578,16.259766,-44.81964,-0.020066086,-0.25063083,9.803426,0.000918448,0.00012353063,-0.00036525726,-4.5776367e-05,1.5258789e-05,0.00015258789
2019-07-01T19:09:47.138Z,-0.012298074,0.0035834701,-0.20233394,-0.01914978,-0.24885559,9.808182,-5.13916,15.626526,-44.28253,-0.020019954,-0.2504174,9.8034315,0.00015423633,0.0008600056,-0.00087070465,-0.00010681152,7.6293945e-05,-4.5776367e-05
2019-07-01T19:09:47.340Z,-0.012305807,0.00356751,-0.20229709,-0.01675415,-0.24885559,9.817749,-5.380249,15.609741,-44.352722,-0.019692162,-0.25050184,9.80343,0.0007879436,1.1026859e-06,0.00021457672,1.5258789e-05,-9.1552734e-05,9.1552734e-05
2019-07-01T19:09:47.545Z,-0.012277943,0.0035741383,-0.20229924,-0.0143585205,-0.24885559,9.808182,-5.479431,15.242004,-44.499207,-0.019929502,-0.24999312,9.803443,-0.0006519109,0.00092718005,0.0012617111,-0.00010681152,7.6293945e-05,9.1552734e-05
2019-07-01T19:09:47.748Z,-0.012257618,0.0035860252,-0.20231889,-0.023925781,-0.25125122,9.796219,-6.4056396,16.127014,-44.430542,-0.02023345,-0.24965039,9.803452,-0.00010276586,0.00036802888,0.0009918213,7.6293945e-05,1.5258789e-05,1.5258789e-05
2019-07-01T19:09:47.961Z,-0.012299061,0.0035722468,-0.20230566,-0.021530151,-0.25125122,9.800995,-5.142212,15.704346,-45.022583,-0.019807722,-0.25039127,9.803433,0.001378512,-0.0015340149,-0.00029468536,1.5258789e-05,0.0001373291,-0.00016784668
2019-07-01T19:09:48.161Z,-0.012285209,0.0036099232,-0.20239499,-0.01914978,-0.24885559,9.8033905,-5.596924,16.101074,-43.71643,-0.020563468,-0.25027663,9.803434,-0.001209652,-0.00024315715,-0.0022659302,0.0001373291,0.00019836426,-0.00010681152
2019-07-01T19:09:48.367Z,-0.012276617,0.003628029,-0.2024369,-0.01914978,-0.24645996,9.7986145,-5.9158325,16.305542,-44.56787,-0.020934613,-0.2501844,9.803436,-0.0013275351,0.000143677,-0.00071811676,-4.5776367e-05,-4.5776367e-05,9.1552734e-05
2019-07-01T19:09:48.567Z,-0.012245314,0.0036200632,-0.20239972,-0.021530151,-0.25602722,9.800995,-6.613159,16.838074,-43.902588,-0.020915413,-0.24955088,9.8034525,0.0005763378,0.0016672164,0.00048160553,1.5258789e-05,-9.1552734e-05,9.1552734e-05
2019-07-01T19:09:48.767Z,-0.0122597935,0.0036405323,-0.20245999,-0.01914978,-0.2416687,9.8033905,-6.8328857,15.513611,-44.161987,-0.021235656,-0.24991147,9.803443,-0.0005363375,-0.00010725856,0.001282692,-0.00016784668,7.6293945e-05,9.1552734e-05
2019-07-01T19:09:48.975Z,-0.0122431,0.003652071,-0.20248069,-0.023925781,-0.24645996,9.7986145,-5.9280396,16.088867,-44.987488,-0.021518286,-0.24963717,9.803449,-0.0005002208,0.00078070164,-0.002175331,-0.00010681152,7.6293945e-05,-0.00016784668
2019-07-01T19:09:49.173Z,-0.012205273,0.0036665066,-0.20249753,-0.01914978,-0.25602722,9.805786,-5.4367065,16.342163,-45.108032,-0.021941504,-0.24896848,9.803465,-0.0005506072,0.0008226335,-0.00049877167,7.6293945e-05,-4.5776367e-05,9.1552734e-05
2019-07-01T19:09:49.379Z,-0.01220644,0.003687577,-0.20255223,-0.01914978,-0.24885559,9.815353,-5.4214478,16.630554,-44.670105,-0.022327607,-0.24907582,9.803461,-0.0013703275,-0.0002643466,-0.00033283234,7.6293945e-05,1.5258789e-05,-0.00010681152
2019-07-01T19:09:49.578Z,-0.012196536,0.003693654,-0.20256253,-0.021530151,-0.25125122,9.8033905,-5.6915283,15.879822,-44.20929,-0.022481048,-0.24890998,9.803464,0.00023224019,0.00028200448,-0.00038433075,1.5258789e-05,-4.5776367e-05,-0.00010681152
2019-07-01T19:09:49.780Z,-0.012239507,0.00370007,-0.20260198,-0.01914978,-0.24885559,9.793823,-6.0043335,16.078186,-44.306946,-0.022423446,-0.24976152,9.803443,0.000647055,-0.0015130937,-0.00056934357,-4.5776367e-05,0.00019836426,3.0517578e-05
2019-07-01T19:09:49.985Z,-0.012244866,0.0037122518,-0.20263612,-0.023925781,-0.25602722,9.7986145,-6.260681,15.464783,-42.608643,-0.022627382,-0.24991359,9.803438,-0.00035361387,-0.00014607608,0.00074100494,1.5258789e-05,0.0001373291,0.00015258789
2019-07-01T19:09:50.185Z,-0.012270745,0.0037164735,-0.2026608,-0.021530151,-0.25125122,9.824936,-5.924988,16.085815,-44.61212,-0.022599267,-0.25042784,9.803425,0.00010585599,-0.000600934,-0.000620842,-4.5776367e-05,1.5258789e-05,-0.00016784668
2019-07-01T19:09:50.392Z,-0.012236013,0.0036647138,-0.20250936,-0.021530151,-0.25125122,9.7986145,-4.638672,16.174316,-45.02411,-0.02178194,-0.24955192,9.803451,0.0019147135,0.002127409,0.001502037,-0.00016784668,1.5258789e-05,-3.0517578e-05
2019-07-01T19:09:50.594Z,-0.012233383,0.0036523785,-0.2024763,-0.01914978,-0.25125122,9.793823,-5.239868,17.079163,-44.58618,-0.02156391,-0.24945171,9.803453,0.00050760433,-0.000355646,0.0009965897,-0.00010681152,-4.5776367e-05,3.0517578e-05
2019-07-01T19:09:50.813Z,-0.01224469,0.0036683856,-0.20252343,-0.023925781,-0.24645996,9.810577,-5.3390503,16.560364,-44.311523,-0.021814397,-0.24973343,9.803446,-0.0002054628,-9.980798e-05,-0.002038002,0.00019836426,1.5258789e-05,3.0517578e-05
2019-07-01T19:09:51.000Z,-0.012236249,0.0036288684,-0.20241746,-0.021530151,-0.2536316,9.7986145,-5.9906006,16.447449,-44.610596,-0.021115996,-0.24941212,9.803455,0.0010195244,0.001510188,0.0007238388,-0.00016784668,7.6293945e-05,-0.00010681152
2019-07-01T19:09:51.207Z,-0.012275658,0.0036094447,-0.20238866,-0.023925781,-0.25125122,9.800995,-5.744934,16.610718,-44.813538,-0.020593824,-0.25009117,9.803439,0.0007257834,-0.001173377,-0.0004720688,-0.00010681152,-9.1552734e-05,-0.00010681152
2019-07-01T19:09:51.408Z,-0.012256565,0.0036102068,-0.20238042,-0.01914978,-0.25125122,9.796219,-7.029724,16.444397,-43.736267,-0.020686368,-0.24972737,9.803448,-0.00012622587,0.0006323904,0.0014343262,-4.5776367e-05,-4.5776367e-05,0.0002593994
2019-07-01T19:09:51.610Z,-0.01226886,0.0035947305,-0.20234725,-0.021530151,-0.25125122,9.800995,-6.3171387,16.201782,-43.815613,-0.020348785,-0.24990138,9.803445,0.0009700302,-0.0008626878,-0.0004825592,1.5258789e-05,1.5258789e-05,0.00021362305
2019-07-01T19:09:51.811Z,-0.012250743,0.003614824,-0.20238917,-0.01675415,-0.25125122,9.812973,-5.671692,16.241455,-43.759155,-0.020795928,-0.2496341,9.803451,-0.0012244675,0.00028190017,-0.0017585754,0.0001373291,1.5258789e-05,-3.0517578e-05
2019-07-01T19:09:52.012Z,-0.012268233,0.0036198706,-0.20241146,-0.01675415,-0.2536316,9.805786,-6.1584473,16.288757,-44.485474,-0.020817714,-0.24999046,9.803441,0.0007203873,-0.00031748414,0.00042819977,-4.5776367e-05,3.0517578e-05,0.00015258789
2019-07-01T19:09:52.218Z,-0.012239694,0.0036405718,-0.20244935,-0.01675415,-0.24645996,9.800995,-5.3344727,16.784668,-44.87152,-0.02131896,-0.2495254,9.803452,-0.0004578065,0.0011291355,-0.000831604,-0.00010681152,0.00019836426,9.1552734e-05
2019-07-01T19:09:52.415Z,-0.012191897,0.0036732622,-0.20250772,-0.028717041,-0.2536316,9.808182,-6.095886,15.628052,-43.338013,-0.022121787,-0.24873868,9.80347,-0.0013334733,0.0005721152,6.771088e-05,0.0001373291,0.0001373291,-0.00010681152
2019-07-01T19:09:52.613Z,-0.01219678,0.003651765,-0.20245515,-0.01914978,-0.2536316,9.805786,-5.680847,16.02478,-43.878174,-0.02170289,-0.24874592,9.803471,0.0011179727,0.00012516975,0.0014915466,7.6293945e-05,1.5258789e-05,-9.1552734e-05
2019-07-01T19:09:52.824Z,-0.012216823,0.0036368975,-0.2024277,-0.023925781,-0.24645996,9.805786,-5.3466797,16.4917,-44.929504,-0.021344729,-0.24907118,9.803463,0.00076145865,-0.0014531314,0.0014657974,0.0001373291,1.5258789e-05,-0.00010681152
2019-07-01T19:09:53.026Z,-0.012266318,0.0036520984,-0.20249318,-0.021530151,-0.24406433,9.810577,-5.7617188,16.169739,-44.60144,-0.021423392,-0.2500834,9.803437,0.00036770478,-0.0020970404,0.00049877167,0.0001373291,0.0001373291,-0.00010681152
2019-07-01T19:09:53.234Z,-0.012211436,0.003677783,-0.20252976,-0.01675415,-0.2632141,9.791428,-5.755615,16.241455,-44.058228,-0.022125378,-0.24913234,9.80346,0.0005957987,3.9041042e-05,-0.0012693405,7.6293945e-05,7.6293945e-05,-4.5776367e-05
2019-07-01T19:09:53.450Z,-0.0122291,0.0036461928,-0.20245813,-0.021530151,-0.24885559,9.810577,-6.6207886,16.616821,-43.644714,-0.021466754,-0.2493445,9.803456,0.0018435884,-0.00046136975,-0.0008459091,1.5258789e-05,0.0001373291,-0.00010681152
2019-07-01T19:09:53.648Z,-0.012191549,0.003639925,-0.20242196,-0.011962891,-0.2536316,9.8033905,-5.7540894,16.316223,-44.41986,-0.021504702,-0.24859776,9.803475,0.0006915461,0.002135843,0.00023555756,-4.5776367e-05,0.0001373291,1.5258789e-05
2019-07-01T19:09:53.889Z,-0.012167364,0.0036321264,-0.20238903,-0.01914978,-0.2536316,9.812973,-5.5892944,16.47644,-44.9234,-0.021459306,-0.24810167,9.803488,0.000875365,0.00045342743,0.0003156662,-0.00010681152,0.00019836426,3.0517578e-05
2019-07-01T19:09:54.094Z,-0.012190919,0.0035962474,-0.20230952,-0.026321411,-0.25125122,9.8033905,-5.656433,16.685486,-44.19861,-0.020696882,-0.24840993,9.803482,0.0020357799,-0.0009139329,0.00020885468,0.0001373291,7.6293945e-05,0.0001373291
2019-07-01T19:09:54.310Z,-0.01214691,0.0035829965,-0.20225202,-0.021530151,-0.25842285,9.808182,-6.013489,15.858459,-44.200134,-0.020631589,-0.24751103,9.803505,-0.0006700251,0.0015199482,-0.000667572,0.0001373291,0.0001373291,-0.00010681152
2019-07-01T19:09:54.491Z,-0.0121511435,0.0035836655,-0.20225598,-0.028717041,-0.24645996,9.791428,-6.767273,16.51764,-41.392517,-0.02062663,-0.24759504,9.803502,0.0002887193,-0.0005187243,0.0022687912,1.5258789e-05,-0.00015258789,0.00015258789
2019-07-01T19:09:54.699Z,-0.012199909,0.0035860424,-0.20228812,-0.026321411,-0.25125122,9.805786,-5.441284,16.117859,-44.62433,-0.020470634,-0.24854164,9.803479,0.000605857,-0.0017219931,8.010864e-05,7.6293945e-05,7.6293945e-05,3.0517578e-05
2019-07-01T19:09:54.900Z,-0.012231155,0.0035743178,-0.20227471,-0.021530151,-0.24885559,9.796219,-4.1244507,16.786194,-44.241333,-0.020124868,-0.24909484,9.803465,0.0007482469,-0.00092567503,-0.0001077652,-0.00010681152,7.6293945e-05,-0.00010681152
2019-07-01T19:09:55.102Z,-0.012230722,0.0036090298,-0.2023636,-0.023925781,-0.24645996,9.800995,-4.6569824,15.583801,-44.0094,-0.020770643,-0.2492261,9.80346,-0.00075764395,-8.0138445e-05,-0.00023269653,-4.5776367e-05,7.6293945e-05,3.0517578e-05
2019-07-01T19:09:55.306Z,-0.012232304,0.0036586805,-0.2024919,-0.01914978,-0.25125122,9.7986145,-5.8303833,16.381836,-44.252014,-0.021685256,-0.24945635,9.803453,-0.0017643012,-7.95871e-05,0.0011301041,1.5258789e-05,-4.5776367e-05,3.0517578e-05
2019-07-01T19:09:55.511Z,-0.0122548975,0.0036163186,-0.20239522,-0.01675415,-0.25125122,9.808182,-5.3115845,15.472412,-44.761658,-0.020806592,-0.24971995,9.803449,0.00094099157,-0.00030970573,-0.0016365051,-0.00016784668,-4.5776367e-05,-4.5776367e-05
2019-07-01T19:09:55.717Z,-0.0122126825,0.003617194,-0.2023749,-0.01914978,-0.24885559,9.800995,-6.1050415,17.381287,-43.811035,-0.02099618,-0.24891232,9.803468,-0.00053178705,0.0020052344,0.0008249283,-4.5776367e-05,-4.5776367e-05,0.0002746582
2019-07-01T19:09:55.920Z,-0.012226147,0.0035966733,-0.20232943,-0.0143585205,-0.25125122,9.8033905,-5.467224,15.455627,-43.852234,-0.020560184,-0.2490885,9.803465,0.0011849068,-0.00044323504,0.0011806488,-4.5776367e-05,-4.5776367e-05,0.0001373291
2019-07-01T19:09:56.120Z,-0.012290538,0.0036008982,-0.20237467,-0.028717041,-0.2536316,9.796219,-6.918335,15.586853,-45.20111,-0.020374173,-0.2503427,9.803432,3.6451966e-05,-0.0020711422,-0.0011224747,1.5258789e-05,7.6293945e-05,0.00021362305
2019-07-01T19:09:56.324Z,-0.0122954175,0.003628573,-0.20244834,-0.023925781,-0.24406433,9.7986145,-5.264282,16.571045,-44.84253,-0.020867465,-0.2505478,9.803427,-0.00066203065,0.00050988793,-0.001534462,-0.00016784668,-9.1552734e-05,0.0002746582
2019-07-01T19:09:56.528Z,-0.012236558,0.0036289508,-0.20241785,-0.021530151,-0.24885559,9.8033905,-6.5093994,15.534973,-44.322205,-0.021116253,-0.2494184,9.803455,-0.00041474588,0.0027042776,-0.0013341904,-0.00016784668,7.6293945e-05,9.1552734e-05
2019-07-01T19:09:56.728Z,-0.0122369155,0.0035920213,-0.20232323,-0.021530151,-0.24885559,9.805786,-7.394409,15.625,-44.570923,-0.02042967,-0.2492767,9.80346,0.00056295656,0.00066803396,0.0010261536,-0.00016784668,-9.1552734e-05,0.00033569336
2019-07-01T19:09:56.929Z,-0.012231947,0.003612109,-0.20237215,-0.01914978,-0.23928833,9.805786,-5.433655,16.264343,-44.366455,-0.02082274,-0.24926202,9.803459,-0.0009500701,-0.000766024,0.0011558533,1.5258789e-05,-0.00015258789,9.1552734e-05
2019-07-01T19:09:57.137Z,-0.012250645,0.0036045278,-0.20236267,-0.01914978,-0.26081848,9.812973,-6.0775757,16.062927,-43.174744,-0.020605322,-0.2495908,9.803452,0.0007391777,-0.00140661,-0.00067043304,0.0001373291,-9.1552734e-05,0.00015258789
2019-07-01T19:09:57.337Z,-0.012238111,0.003632432,-0.20242761,-0.01675415,-0.2416687,9.808182,-5.4122925,16.549683,-43.328857,-0.021174453,-0.24946225,9.803453,-0.0013147835,0.0006327927,0.0013055801,0.00019836426,0.0001373291,0.00015258789
2019-07-01T19:09:57.538Z,-0.012233496,0.0036125814,-0.20237419,-0.0143585205,-0.2536316,9.796219,-4.6203613,16.539001,-44.799805,-0.020825148,-0.24929368,9.803459,0.0007327553,0.00072331727,0.0011997223,-0.00010681152,1.5258789e-05,-0.000289917
2019-07-01T19:09:57.736Z,-0.012276576,0.0036014095,-0.20236853,-0.023925781,-0.24885559,9.805786,-5.848694,16.020203,-44.703674,-0.020440998,-0.25007647,9.803439,0.0010647327,-0.00090128183,-0.000954628,-0.00016784668,1.5258789e-05,3.0517578e-05
2019-07-01T19:09:57.937Z,-0.012263997,0.0036318053,-0.20243984,-0.01675415,-0.24645996,9.810577,-5.618286,15.740967,-44.467163,-0.021056497,-0.2499571,9.803441,-0.0011885297,0.0006556362,-0.00015449524,-0.00010681152,0.0001373291,-0.00010681152
2019-07-01T19:09:58.145Z,-0.012274594,0.0036444122,-0.20247787,-0.0143585205,-0.23928833,9.7986145,-5.6533813,16.682434,-43.821716,-0.021246817,-0.25021145,9.803434,-5.3456053e-05,-0.00053972006,-0.0012216568,7.6293945e-05,7.6293945e-05,0.00015258789
2019-07-01T19:09:58.346Z,-0.012219559,0.003655364,-0.20247656,-0.0143585205,-0.25125122,9.796219,-5.305481,15.696716,-45.24536,-0.02167609,-0.24919812,9.80346,-9.891763e-05,0.0024857968,-0.0002193451,-4.5776367e-05,7.6293945e-05,-0.00010681152
2019-07-01T19:09:58.548Z,-0.01224102,0.00364133,-0.202452,-0.021530151,-0.2536316,9.808182,-6.225586,16.651917,-44.78607,-0.021327574,-0.24955396,9.803452,0.0012301989,-0.0002810657,-0.0007829666,-4.5776367e-05,7.6293945e-05,3.0517578e-05
2019-07-01T19:09:58.754Z,-0.012211329,0.0036150133,-0.20236859,-0.021530151,-0.2416687,9.805786,-5.352783,16.26892,-44.29474,-0.020961277,-0.24887756,9.803469,0.00037794933,0.0017096698,0.0021972656,-0.00010681152,7.6293945e-05,3.0517578e-05
2019-07-01T19:09:58.962Z,-0.012238656,0.0036152462,-0.20238379,-0.021530151,-0.2536316,9.810577,-5.8273315,16.378784,-43.951416,-0.020853393,-0.24940357,9.803456,0.000513738,-0.00039434433,-0.0004415512,-0.00010681152,-9.1552734e-05,-3.0517578e-05
2019-07-01T19:09:59.163Z,-0.012235257,0.0036232935,-0.20240262,-0.0143585205,-0.24406433,9.805786,-5.2841187,15.904236,-43.693542,-0.021016644,-0.24937062,9.803456,-4.099123e-05,-0.00020813942,-0.0007753372,-4.5776367e-05,0.00019836426,-3.0517578e-05
2019-07-01T19:09:59.368Z,-0.012223982,0.0035938362,-0.20232098,-0.01914978,-0.24406433,9.805786,-5.355835,16.044617,-43.663025,-0.020516435,-0.24903546,9.803465,0.00041888282,0.00087606907,-0.001156807,1.5258789e-05,-9.1552734e-05,3.0517578e-05
2019-07-01T19:09:59.569Z,-0.0122709405,0.0036277203,-0.20243306,-0.023925781,-0.24885559,9.805786,-5.593872,16.174316,-43.70117,-0.0209522,-0.25007406,9.803438,-0.00035059638,-0.0011953712,0.00019264221,-0.00010681152,1.5258789e-05,-0.00010681152
2019-07-01T19:09:59.772Z,-0.012243702,0.0036501712,-0.20247614,-0.021530151,-0.25125122,9.800995,-5.4748535,17.134094,-44.114685,-0.021480568,-0.24964109,9.803449,-0.00076751225,0.0014937669,0.0007648468,-0.00022888184,0.0001373291,3.0517578e-05
2019-07-01T19:09:59.972Z,-0.01228889,0.0036405907,-0.2024757,-0.0143585205,-0.2536316,9.7986145,-5.479431,15.242004,-44.573975,-0.021117197,-0.25047076,9.803429,0.0014940593,-0.0012574494,0.00036144257,-0.00010681152,7.6293945e-05,3.0517578e-05
2019-07-01T19:10:00.163Z,-0.012252092,0.0036191167,-0.20240091,-0.021530151,-0.24406433,9.805786,-5.278015,16.204834,-44.688416,-0.020870017,-0.24967729,9.803449,0.0010021031,0.002015546,-0.00054836273,-0.00016784668,0.0001373291,-0.00022888184
2019-07-01T19:10:00.365Z,-0.012257566,0.0036117567,-0.20238493,-0.023925781,-0.24406433,9.7986145,-6.77948,16.60614,-43.4906,-0.02071101,-0.24975288,9.803449,0.0006161742,0.0006803423,0.0018701553,-4.5776367e-05,7.6293945e-05,-3.0517578e-05
2019-07-01T19:10:00.568Z,-0.0122742625,0.0036097483,-0.20238869,-0.021530151,-0.25125122,9.796219,-5.7662964,15.94696,-43.966675,-0.020605184,-0.25006557,9.803439,0.0005098153,0.0002694726,-0.00049495697,-0.00035095215,0.00019836426,3.0517578e-05
2019-07-01T19:10:00.786Z,-0.012314003,0.0036538378,-0.20252314,-0.01675415,-0.24885559,9.7986145,-7.2036743,16.139221,-43.414307,-0.021259695,-0.2510066,9.803414,-0.0010035895,-0.0014432073,-0.0011301041,-0.00016784668,7.6293945e-05,9.1552734e-05
2019-07-01T19:10:00.977Z,-0.012316703,0.0036216495,-0.20244193,-0.021530151,-0.24885559,9.800995,-5.5526733,17.048645,-43.371582,-0.0206516,-0.2509289,9.803417,0.0010264721,0.00013771653,-0.0015478134,-4.5776367e-05,1.5258789e-05,-0.00010681152
2019-07-01T19:10:01.176Z,-0.012300177,0.0036646796,-0.20254359,-0.01914978,-0.23928833,9.810577,-5.303955,17.21344,-43.50128,-0.02151761,-0.25078464,9.80342,-0.0009763669,0.0009383261,-6.9618225e-05,-4.5776367e-05,-4.5776367e-05,3.0517578e-05
2019-07-01T19:10:01.378Z,-0.012259295,0.0036752648,-0.20254889,-0.01914978,-0.24406433,9.808182,-7.461548,17.349243,-42.02423,-0.021881979,-0.25004175,9.803437,-0.0010995287,0.0014100373,0.000746727,-0.00010681152,0.0001373291,-0.00015258789
2019-07-01T19:10:01.581Z,-0.012219415,0.0036481943,-0.20245808,-0.01914978,-0.24406433,9.805786,-5.934143,17.304993,-42.095947,-0.021543667,-0.24916649,9.803461,0.0009565558,0.0024276525,-0.001083374,-4.5776367e-05,-9.1552734e-05,-0.00022888184
2019-07-01T19:10:01.784Z,-0.012190501,0.003616442,-0.20236114,-0.021530151,-0.25125122,9.7986145,-6.8496704,16.66565,-42.49115,-0.021073295,-0.24848312,9.803479,0.0012037735,0.0022369027,0.0003938675,-0.00022888184,0.0001373291,-0.00016784668
2019-07-01T19:10:01.992Z,-0.012235408,0.0036530143,-0.202479,-0.0143585205,-0.25125122,9.8033905,-7.9040527,18.193054,-41.760254,-0.021567388,-0.24949314,9.803452,-0.0004554484,-0.0015648752,-0.0016460419,-0.00016784668,7.6293945e-05,-0.00022888184
2019-07-01T19:10:02.190Z,-0.012261905,0.0035902595,-0.20233205,-0.021530151,-0.24645996,9.800995,-4.9591064,17.591858,-42.681885,-0.0202944,-0.24974976,9.803449,0.0025751553,-0.000342682,0.00033855438,-4.5776367e-05,0.0001373291,-3.0517578e-05
2019-07-01T19:10:02.394Z,-0.012273053,0.0036247803,-0.20242664,-0.023925781,-0.2536316,9.796219,-6.6619873,17.564392,-44.203186,-0.020888992,-0.25010282,9.803438,-0.00089064427,-0.0004952252,-0.0013694763,-0.00010681152,7.6293945e-05,-0.000289917
2019-07-01T19:10:02.596Z,-0.012261201,0.0036393197,-0.20245764,-0.0143585205,-0.24406433,9.796219,-6.163025,17.658997,-42.54303,-0.021207381,-0.24993362,9.803442,-0.0005731676,0.0010042787,-0.00074481964,-4.5776367e-05,1.5258789e-05,1.5258789e-05
2019-07-01T19:10:02.801Z,-0.012196297,0.0036102026,-0.20234822,-0.0143585205,-0.24885559,9.7986145,-6.5063477,17.276001,-43.286133,-0.020933736,-0.24856934,9.803476,0.0010583047,0.002725765,-0.0020933151,-0.00010681152,7.6293945e-05,-3.0517578e-05
2019-07-01T19:10:03.002Z,-0.012184597,0.0035725448,-0.2022453,-0.01675415,-0.24885559,9.805786,-5.4382324,17.938232,-44.102478,-0.020283017,-0.24819311,9.803487,0.0011253674,0.00091969967,0.00036525726,1.5258789e-05,1.5258789e-05,-0.00016784668
2019-07-01T19:10:03.214Z,-0.012206777,0.003601414,-0.20233124,-0.01675415,-0.25125122,9.800995,-5.7113647,17.036438,-42.99164,-0.020727651,-0.24873537,9.8034725,-0.0008101016,-0.00068446994,0.00039958954,-0.00010681152,-4.5776367e-05,0.00015258789
2019-07-01T19:10:03.408Z,-0.0122090345,0.0036045641,-0.20234054,-0.01675415,-0.2368927,9.8033905,-6.967163,16.08429,-43.96515,-0.020776832,-0.24879146,9.8034725,0.00042851456,7.997453e-05,-0.0006875992,-4.5776367e-05,0.0001373291,3.0517578e-05
2019-07-01T19:10:03.609Z,-0.012160188,0.0036268774,-0.20237173,-0.0143585205,-0.2536316,9.8033905,-6.6085815,16.984558,-44.0979,-0.021391377,-0.24794266,9.803493,-0.0011081733,0.0013888627,0.00049495697,1.5258789e-05,0.0002593994,9.1552734e-05
2019-07-01T19:10:03.812Z,-0.012180678,0.0036219389,-0.20236999,-0.026321411,-0.24645996,9.800995,-4.258728,17.207336,-43.392944,-0.021215618,-0.24831648,9.803483,0.00039635226,-0.00013954937,0.0016174316,-4.5776367e-05,-0.00021362305,3.0517578e-05
2019-07-01T19:10:04.016Z,-0.012160932,0.0036635932,-0.20246635,-0.01675415,-0.25125122,9.8033905,-6.515503,16.90216,-42.15393,-0.022069594,-0.24810475,9.803486,-0.0011455957,-0.00010755658,-4.4822693e-05,1.5258789e-05,0.0001373291,9.1552734e-05
2019-07-01T19:10:04.225Z,-0.012153247,0.0036619527,-0.20245804,-0.01675415,-0.2536316,9.793823,-5.7418823,16.456604,-43.63861,-0.02207071,-0.2479505,9.80349,0.0007635448,0.00023414195,0.00061130524,7.6293945e-05,7.6293945e-05,0.0002746582
2019-07-01T19:10:04.484Z,-0.012150422,0.0036487277,-0.20242259,-0.0143585205,-0.24885559,9.800995,-5.583191,16.621399,-44.818115,-0.02183692,-0.24784295,9.8034935,0.0005309824,-0.00010432303,0.0010461807,1.5258789e-05,0.0001373291,-0.00010681152
2019-07-01T19:10:04.633Z,-0.012184441,0.0036471798,-0.20243679,-0.021530151,-0.24645996,9.805786,-4.676819,17.042542,-44.392395,-0.0216685,-0.2484904,9.803478,0.000851674,-0.0013704896,0.0006875992,1.5258789e-05,0.0001373291,7.6293945e-05
2019-07-01T19:10:04.843Z,-0.012196671,0.0036357746,-0.20241405,-0.01675415,-0.2536316,9.800995,-5.166626,16.940308,-44.84558,-0.021406662,-0.24867946,9.803473,0.0008192826,-0.00021412969,0.00047016144,-4.5776367e-05,0.0001373291,-3.0517578e-05
2019-07-01T19:10:05.040Z,-0.012228097,0.003560236,-0.20223692,-0.023925781,-0.25125122,9.805786,-5.5160522,16.259766,-44.592285,-0.020532113,-0.2485186,9.803479,-0.0007721465,0.00011512637,0.0011091232,-4.5776367e-05,7.6293945e-05,-0.00010681152
2019-07-01T19:10:05.236Z,-0.01220641,0.0035939564,-0.2023119,-0.021530151,-0.24885559,9.796219,-5.1452637,15.55481,-44.52362,-0.020590795,-0.24869837,9.803475,-0.00046904944,-0.00019003451,0.00026226044,0.0001373291,1.5258789e-05,0.00015258789
2019-07-01T19:10:05.433Z,-0.012179973,0.0036080135,-0.20233387,-0.023925781,-0.24645996,9.8033905,-6.3171387,16.200256,-43.666077,-0.020960135,-0.24824691,9.803486,-0.0012887493,0.00057813525,0.0011281967,0.0001373291,-0.00015258789,9.1552734e-05
2019-07-01T19:10:05.636Z,-0.012202338,0.003607103,-0.20234348,-0.021530151,-0.25125122,9.7986145,-5.7617188,16.093445,-44.088745,-0.02085143,-0.24867299,9.803475,3.7359074e-05,-0.0011568218,0.00042438507,-0.00010681152,1.5258789e-05,0.0001373291
2019-07-01T19:10:05.842Z,-0.012188474,0.0036255997,-0.20238355,-0.023925781,-0.24645996,9.8033905,-6.340027,15.687561,-43.844604,-0.021251537,-0.24848102,9.803479,-0.00076857023,0.0008113086,-0.00050640106,7.6293945e-05,-4.5776367e-05,-3.0517578e-05
2019-07-01T19:10:06.058Z,-0.012182314,0.0036428492,-0.20242454,-0.021530151,-0.24885559,9.8033905,-5.4260254,16.485596,-44.776917,-0.02159688,-0.24843207,9.803479,-0.00089593977,3.3810735e-05,0.00030231476,1.5258789e-05,-0.00015258789,-0.00035095215
2019-07-01T19:10:06.253Z,-0.012145522,0.0036518315,-0.20242794,-0.01914978,-0.2536316,9.8033905,-5.3207397,15.176392,-44.44275,-0.021914639,-0.2477613,9.803495,-0.0008223243,0.00081284344,3.4332275e-05,1.5258789e-05,0.0001373291,-3.0517578e-05
2019-07-01T19:10:06.458Z,-0.012146445,0.003658822,-0.20244637,-0.01675415,-0.24885559,9.8033905,-6.4056396,16.201782,-44.717407,-0.022040563,-0.24780719,9.803494,0.000263853,-0.00035843253,-0.0009355545,7.6293945e-05,-9.1552734e-05,-0.00016784668
2019-07-01T19:10:06.657Z,-0.012194164,0.0036570868,-0.20246741,-0.011962891,-0.24885559,9.8033905,-5.102539,16.581726,-44.84558,-0.021812372,-0.24871707,9.803471,0.0007520318,-0.0020977408,-0.00078868866,1.5258789e-05,0.0001373291,-0.00010681152
2019-07-01T19:10:06.858Z,-0.012195123,0.0036619524,-0.20248042,-0.01914978,-0.25125122,9.800995,-5.105591,16.43219,-44.499207,-0.021898704,-0.24875514,9.803471,-0.00012336485,0.0003465414,-0.00035953522,7.6293945e-05,1.5258789e-05,-0.00010681152
2019-07-01T19:10:07.072Z,-0.012182774,0.003645209,-0.20243084,-0.028717041,-0.25125122,9.805786,-6.1203003,16.938782,-43.295288,-0.021638775,-0.24845043,9.803479,0.0005791839,5.4851174e-05,0.0010271072,7.6293945e-05,7.6293945e-05,-0.00010681152
2019-07-01T19:10:07.265Z,-0.0121744685,0.0036771572,-0.20250839,-0.01914978,-0.24406433,9.805786,-6.3568115,15.553284,-45.23163,-0.022265656,-0.2484195,9.803477,-0.0011903085,0.00048942864,-0.000582695,-4.5776367e-05,-4.5776367e-05,9.1552734e-05
2019-07-01T19:10:07.479Z,-0.01218514,0.0036542215,-0.20245524,-0.03111267,-0.2536316,9.800995,-6.163025,16.293335,-45.162964,-0.02179628,-0.24853216,9.803476,0.0009823833,-0.0003338158,0.0020017624,7.6293945e-05,0.0001373291,9.1552734e-05
2019-07-01T19:10:07.668Z,-0.012181041,0.0036539596,-0.20245238,-0.021530151,-0.25125122,9.793823,-4.974365,15.859985,-44.847107,-0.021808255,-0.24845235,9.803478,0.0002777744,0.0010273457,0.00054836273,-0.00016784668,-9.1552734e-05,-0.00022888184
2019-07-01T19:10:07.871Z,-0.012141266,0.0036755772,-0.20248659,-0.03111267,-0.2536316,9.805786,-5.604553,16.108704,-44.770813,-0.022372736,-0.24777515,9.8034935,-0.00083676353,0.0017784536,-0.0004339218,-0.00016784668,0.00019836426,1.5258789e-05
2019-07-01T19:10:08.092Z,-0.012156827,0.0036865016,-0.20252295,-0.011962891,-0.24645996,9.7986145,-5.213928,17.436218,-43.30597,-0.022511516,-0.24811819,9.803485,1.9235536e-05,-0.0007464886,3.6239624e-05,1.5258789e-05,7.6293945e-05,3.0517578e-05
2019-07-01T19:10:08.289Z,-0.012171925,0.003677746,-0.20250855,-0.026321411,-0.25125122,9.812973,-6.1523438,16.360474,-44.24286,-0.022287033,-0.24837302,9.803479,0.0005095992,-4.4584274e-05,-0.0020475388,-0.00010681152,1.5258789e-05,9.1552734e-05
2019-07-01T19:10:08.481Z,-0.012179338,0.0036755528,-0.20250688,-0.01675415,-0.24885559,9.8033905,-6.277466,15.406799,-44.58313,-0.022215884,-0.24850664,9.803476,0.00044016726,-0.00036488473,0.0015039444,-0.00016784668,7.6293945e-05,1.5258789e-05
2019-07-01T19:10:08.694Z,-0.012209255,0.0036758978,-0.20252375,-0.033493042,-0.24885559,9.7986145,-6.576538,16.200256,-45.9198,-0.022099363,-0.24908283,9.803461,0.0003239233,-0.0012200177,0.00020885468,7.6293945e-05,1.5258789e-05,0.0001373291
2019-07-01T19:10:08.938Z,-0.0121537885,0.0036861505,-0.20252043,-0.023925781,-0.24885559,9.793823,-6.147766,16.43219,-44.154358,-0.02251749,-0.2480584,9.803487,-0.0011822935,0.0013225228,-0.0014648438,0.0001373291,-4.5776367e-05,0.00021362305
2019-07-01T19:10:09.098Z,-0.0121333245,0.0036868874,-0.20251137,-0.023925781,-0.25125122,9.7986145,-5.4382324,16.114807,-44.096375,-0.022615232,-0.24766816,9.803496,-0.0001227539,0.00070902705,0.00045681,7.6293945e-05,-4.5776367e-05,9.1552734e-05
2019-07-01T19:10:09.303Z,-0.012157869,0.0036783281,-0.20250253,-0.01914978,-0.24885559,9.8033905,-4.586792,17.114258,-43.624878,-0.022355583,-0.24810527,9.803486,0.001053758,-0.0002681911,0.0015821457,-4.5776367e-05,1.5258789e-05,0.00015258789
2019-07-01T19:10:09.503Z,-0.012199191,0.0036568712,-0.20246954,-0.01914978,-0.24406433,9.810577,-4.6295166,16.241455,-44.255066,-0.02178772,-0.24881281,9.803469,0.001920376,-0.0010086596,0.00010204315,-4.5776367e-05,0.00019836426,1.5258789e-05
2019-07-01T19:10:09.708Z,-0.012185505,0.0036331904,-0.20240144,-0.021530151,-0.24645996,9.808182,-6.9992065,17.178345,-44.19098,-0.021404568,-0.24845451,9.803479,0.00082273595,0.00083076954,0.0024700165,-0.00016784668,0.00019836426,0.00021362305
2019-07-01T19:10:09.906Z,-0.012177145,0.0036436373,-0.2024238,-0.011962891,-0.24406433,9.810577,-4.5928955,17.045593,-43.94226,-0.021632731,-0.24833591,9.803481,0.00010315515,0.0009212792,-0.0015420914,-4.5776367e-05,-9.1552734e-05,9.1552734e-05
2019-07-01T19:10:10.108Z,-0.012188984,0.0036453123,-0.20243442,-0.01914978,-0.2416687,9.800995,-5.6015015,16.181946,-44.755554,-0.021615189,-0.24857014,9.803475,0.00031389296,-4.158914e-05,-0.0005464554,-0.00022888184,0.00019836426,0.0001373291
2019-07-01T19:10:10.302Z,-0.01219611,0.0036291708,-0.2023968,-0.0143585205,-0.24885559,9.805786,-6.427002,17.359924,-43.803406,-0.021286443,-0.24864209,9.803474,0.0011907108,0.0002606064,0.00011730194,-4.5776367e-05,7.6293945e-05,-3.0517578e-05
2019-07-01T19:10:10.524Z,-0.012249851,0.0036420226,-0.2024585,-0.01914978,-0.24645996,9.815353,-5.6884766,15.87677,-43.832397,-0.021304145,-0.24972641,9.803447,0.00024724938,-0.0019950718,8.010864e-05,-4.5776367e-05,0.0001373291,-0.00010681152
2019-07-01T19:10:10.719Z,-0.012221676,0.003636995,-0.20243055,-0.01914978,-0.25125122,9.808182,-5.201721,16.134644,-44.857788,-0.021326607,-0.24916483,9.803461,0.0002707932,0.0003246218,0.0010032654,1.5258789e-05,7.6293945e-05,9.1552734e-05
2019-07-01T19:10:10.924Z,-0.012225367,0.00365071,-0.20246772,-0.028717041,-0.24885559,9.800995,-6.0699463,16.441345,-44.5343,-0.021565888,-0.24929099,9.803458,0.0002654791,-0.0012331307,-0.00045776367,0.0001373291,0.0001373291,-3.0517578e-05
2019-07-01T19:10:11.115Z,-0.012197233,0.0036616717,-0.20248082,-0.01675415,-0.25842285,9.796219,-6.25,15.989685,-44.3161,-0.021884827,-0.24879451,9.803469,0.00035588257,0.001631096,0.00034236908,0.00019836426,0.0001373291,1.5258789e-05
2019-07-01T19:10:11.326Z,-0.012222586,0.0036449418,-0.20245142,-0.026321411,-0.24645996,9.812973,-6.013489,16.011047,-44.924927,-0.021999724,-0.2492243,9.803458,0.0011297092,-0.0013270527,-0.0016889572,-4.5776367e-05,0.00019836426,-0.00010681152
2019-07-01T19:10:11.533Z,-0.012234979,0.003647086,-0.20246355,-0.028717041,-0.24885559,9.800995,-5.8532715,15.869141,-44.204712,-0.02145917,-0.24946107,9.803453,0.0011207648,-0.00056657195,0.0013751984,-0.00010681152,1.5258789e-05,-3.0517578e-05
2019-07-01T19:10:11.730Z,-0.011722086,0.0042559244,-0.20374966,-0.088531494,-0.25602722,10.013962,-5.282593,15.901184,-43.39142,-0.034871247,-0.2420753,9.8036,-0.011185605,0.005149424,0.07265282,-4.5776367e-05,7.6293945e-05,9.1552734e-05
2019-07-01T19:10:11.931Z,-0.01237481,0.0035723103,-0.20234628,-0.13877869,-0.050247192,9.963715,-5.355835,16.197205,-44.459534,-0.01949786,-0.25184694,9.803396,0.017553201,-0.00878334,-0.09635544,0.0013580322,0.0032043457,1.5258789e-05
2019-07-01T19:10:12.135Z,-0.012167781,0.0038873309,-0.20304412,-0.033493042,-0.2536316,9.745972,-6.539917,16.468811,-42.845154,-0.026192313,-0.24914005,9.803451,-0.010675842,0.0046586692,0.008666992,0.002029419,0.0077209473,3.0517578e-05
2019-07-01T19:10:12.334Z,-0.012134146,0.004272907,-0.20401484,-0.0382843,-0.2416687,9.588043,-6.718445,17.99469,-43.510437,-0.033482477,-0.25006267,9.803404,-0.013926618,0.004335791,-0.004220009,-0.00022888184,0.0010070801,0.00015258789
2019-07-01T19:10:12.537Z,-0.012153588,0.0040382994,-0.20342374,-0.03111267,-0.2536316,9.817749,-5.899048,16.442871,-43.25714,-0.029051121,-0.24947987,9.803432,0.0075024758,0.0016709268,0.0054807663,-0.0047454834,-0.010543823,0.00033569336
2019-07-01T19:10:12.794Z,-0.012210923,0.003925905,-0.2031662,-0.009567261,-0.2536316,9.851257,-6.462097,16.708374,-44.613647,-0.026730003,-0.25012532,9.803424,0.0039915387,-0.0013816357,0.010357857,-0.00016784668,-0.00035095215,0.0002746582
2019-07-01T19:10:12.993Z,-0.012241138,0.0038282739,-0.2029319,-0.03111267,-0.2536316,9.817749,-6.134033,16.799927,-44.381714,-0.024794731,-0.25031054,9.803424,0.0039809514,-0.00023150444,0.0014848709,-4.5776367e-05,-4.5776367e-05,9.1552734e-05
2019-07-01T19:10:13.203Z,-0.012279195,0.0038399815,-0.20298234,-0.0143585205,-0.2536316,9.784256,-5.8135986,16.822815,-44.691467,-0.024855113,-0.25108913,9.803404,0.00021043979,-0.0011256039,-0.0007658005,1.5258789e-05,-3.0517578e-05,-0.00010681152
2019-07-01T19:10:13.453Z,-0.012293104,0.003747162,-0.20275155,-0.03111267,-0.24645996,9.8033905,-4.9804688,15.641785,-44.815063,-0.02307647,-0.25098133,9.8034115,0.003206553,0.00065907836,-0.0011377335,-0.00016784668,-3.0517578e-05,-0.00022888184
2019-07-01T19:10:13.649Z,-0.012241469,0.0037742169,-0.20279334,-0.0143585205,-0.2536316,9.7986145,-6.303406,16.566467,-43.969727,-0.02379074,-0.25009844,9.803432,-0.0013431814,0.0019316971,0.00035190582,-4.5776367e-05,1.5258789e-05,0.0002746582
2019-07-01T19:10:13.848Z,-0.012259507,0.003738924,-0.20271242,-0.033493042,-0.24645996,9.8033905,-5.819702,16.523743,-43.69507,-0.023061907,-0.25030252,9.803429,0.0017588679,-0.00025075674,0.00071430206,-0.00010681152,1.5258789e-05,0.00015258789
2019-07-01T19:10:14.080Z,-0.012250284,0.0037748013,-0.20279956,-0.0143585205,-0.2416687,9.815353,-5.2505493,16.7099,-43.907166,-0.0237653,-0.25027016,9.803428,-0.0015954748,0.00021734834,0.00095558167,7.6293945e-05,1.5258789e-05,9.1552734e-05
2019-07-01T19:10:14.278Z,-0.012170221,0.0037444436,-0.2026788,-0.01675415,-0.24645996,9.800995,-6.2530518,15.840149,-43.891907,-0.02353151,-0.24860924,9.803471,-0.0001664646,-0.00025768578,0.0018014908,-4.5776367e-05,-0.00016784668,-0.00022888184
2019-07-01T19:10:14.513Z,-0.012186217,0.0037432653,-0.20268433,-0.028717041,-0.25125122,9.805786,-4.4525146,16.694641,-44.773865,-0.023443868,-0.24891184,9.803463,0.0007077139,-0.0009109825,0.00040531158,0.0001373291,7.6293945e-05,-3.0517578e-05
2019-07-01T19:10:14.722Z,-0.012199949,0.0038077736,-0.20285723,-0.021530151,-0.24885559,9.800995,-5.9570312,17.098999,-43.875122,-0.024584062,-0.24943623,9.803447,-0.0019825026,-0.0008639693,-0.00036907196,7.6293945e-05,0.0001373291,9.1552734e-05
2019-07-01T19:10:14.923Z,-0.012202929,0.003759305,-0.20273444,-0.026321411,-0.25125122,9.812973,-5.2734375,16.197205,-44.010925,-0.023672694,-0.2492977,9.8034525,0.0016539413,0.0004387349,0.00055885315,-4.5776367e-05,-4.5776367e-05,-3.0517578e-05
2019-07-01T19:10:15.139Z,-0.012228759,0.0037831014,-0.20280933,-0.021530151,-0.25602722,9.800995,-5.3634644,16.05072,-44.56787,-0.024007834,-0.2498901,9.803436,-0.00015879609,-0.0010827035,0.0029277802,1.5258789e-05,1.5258789e-05,3.0517578e-05
2019-07-01T19:10:15.335Z,-0.01224094,0.0038107364,-0.20288678,-0.028717041,-0.24645996,9.7986145,-5.505371,16.477966,-44.396973,-0.024470272,-0.2502358,9.803426,-0.00088721886,-2.7358532e-05,-0.00059604645,-0.00016784668,1.5258789e-05,-0.00016784668
2019-07-01T19:10:15.538Z,-0.012181897,0.0037756856,-0.20276521,-0.01675415,-0.25842285,9.805786,-5.7250977,16.897583,-43.927002,-0.024063092,-0.24895969,9.803459,0.001100231,0.002043426,-0.0007276535,1.5258789e-05,0.00019836426,-0.00022888184
2019-07-01T19:10:15.742Z,-0.012215393,0.0037599273,-0.20274271,-0.026321411,-0.24885559,9.7986145,-5.192566,16.201782,-43.937683,-0.023632966,-0.24953967,9.803446,0.0016157646,-0.0012102574,-0.00032234192,1.5258789e-05,7.6293945e-05,3.0517578e-05
2019-07-01T19:10:15.939Z,-0.012255518,0.0038062215,-0.202883,-0.021530151,-0.2536316,9.805786,-4.8080444,15.641785,-43.38684,-0.024326518,-0.25049767,9.80342,-0.0012782458,-0.0017049015,-0.0014848709,1.5258789e-05,0.00019836426,-0.00022888184
2019-07-01T19:10:16.142Z,-0.012213334,0.0037816952,-0.20279747,-0.01914978,-0.24645996,9.796219,-6.1920166,15.483093,-44.345093,-0.024045223,-0.24958804,9.803444,0.00059419125,0.002184689,0.0018825531,-0.00010681152,1.5258789e-05,-0.00016784668
2019-07-01T19:10:16.348Z,-0.012206995,0.0037450113,-0.20269993,-0.021530151,-0.25125122,9.8033905,-5.4382324,16.116333,-44.247437,-0.023390813,-0.24931811,9.8034525,0.0020907838,0.0009640157,-0.0003376007,-0.00010681152,1.5258789e-05,-0.00010681152
2019-07-01T19:10:16.562Z,-0.012232734,0.0037396126,-0.20269985,-0.026321411,-0.2536316,9.793823,-4.9850464,15.5685425,-44.830322,-0.0231848,-0.24979089,9.803441,0.00069320574,-0.00097355247,-0.0011816025,-4.5776367e-05,0.00015258789,9.1552734e-05
2019-07-01T19:10:16.754Z,-0.012240622,0.0037770902,-0.20280026,-0.023925781,-0.23928833,9.800995,-5.0476074,16.001892,-45.04242,-0.023847515,-0.25009376,9.8034315,-0.00079474226,-0.0016233027,0.0006380081,0.0001373291,0.00019836426,-0.000289917
2019-07-01T19:10:16.949Z,-0.012184734,0.0037801948,-0.20277831,-0.023925781,-0.24645996,9.8033905,-5.4367065,16.189575,-44.306946,-0.024135066,-0.24903247,9.803458,-3.508106e-05,0.0020819157,-0.0006933212,0.0002593994,1.5258789e-05,0.00015258789
2019-07-01T19:10:17.160Z,-0.012221672,0.0037730166,-0.20277967,-0.01914978,-0.25125122,9.805786,-5.444336,15.817261,-43.325806,-0.02384994,-0.2497132,9.803442,0.00087312795,-0.00054609776,0.002576828,-0.00010681152,0.0001373291,0.00015258789
2019-07-01T19:10:17.361Z,-0.012207397,0.0037463224,-0.2027035,-0.028717041,-0.2536316,9.805786,-5.342102,16.487122,-44.326782,-0.023413477,-0.24933115,9.8034525,0.0011676326,0.0007353574,-0.0011510849,-0.00022888184,7.6293945e-05,9.1552734e-05
2019-07-01T19:10:17.557Z,-0.012240774,0.0037811652,-0.2028108,-0.01914978,-0.24645996,9.800995,-5.7022095,15.661621,-44.47937,-0.023922475,-0.25011313,9.803431,-0.000719849,-0.0016046166,-0.0007677078,7.6293945e-05,0.0001373291,-3.0517578e-05
2019-07-01T19:10:17.767Z,-0.012278997,0.0037695093,-0.20280135,-0.01914978,-0.24406433,9.812973,-6.072998,16.369629,-44.622803,-0.023548976,-0.2508005,9.803414,0.000812253,-0.0006916225,-0.0014619827,-0.00022888184,1.5258789e-05,3.0517578e-05
2019-07-01T19:10:17.964Z,-0.012235137,0.0037422664,-0.20270795,-0.01675415,-0.2536316,9.8033905,-5.383301,17.358398,-44.07196,-0.023224147,-0.24984775,9.803439,0.0009573493,0.0023810267,-0.002568245,1.5258789e-05,7.6293945e-05,3.0517578e-05
2019-07-01T19:10:18.175Z,-0.0122878505,0.0036775216,-0.20256996,-0.023925781,-0.25125122,9.8033905,-5.4275513,16.333008,-43.97583,-0.021806464,-0.25059953,9.803424,0.0026552808,-0.0013850033,0.0022764206,-0.00010681152,-4.5776367e-05,9.1552734e-05
2019-07-01T19:10:18.382Z,-0.012293429,0.0037385735,-0.20272967,-0.023925781,-0.2536316,9.805786,-5.2703857,16.42456,-44.87152,-0.022915848,-0.25095287,9.8034115,-0.001483757,-0.00030711293,0.00056552887,-0.00016784668,7.6293945e-05,-3.0517578e-05
2019-07-01T19:10:18.581Z,-0.012278002,0.0037456828,-0.20273966,-0.01914978,-0.2416687,9.808182,-5.52063,16.033936,-43.807983,-0.023111174,-0.25068516,9.803418,-0.00033989362,0.00065773726,0.0021381378,-0.00010681152,0.0001373291,-0.00016784668
2019-07-01T19:10:18.781Z,-0.012296239,0.003757053,-0.20277861,-0.01914978,-0.24885559,9.7986145,-6.300354,16.563416,-43.592834,-0.023247005,-0.25108147,9.803408,0.00051330216,-0.0006223619,0.00014591217,7.6293945e-05,7.6293945e-05,-0.00010681152
2019-07-01T19:10:18.981Z,-0.012305059,0.003743672,-0.20274898,-0.021530151,-0.25125122,9.808182,-5.2993774,15.614319,-44.052124,-0.022962555,-0.25119692,9.803406,0.00022762641,0.00044125319,-0.0010166168,-0.00010681152,0.0001373291,0.00021362305
2019-07-01T19:10:19.184Z,-0.012319922,0.0037268621,-0.20271379,-0.021530151,-0.24885559,9.800995,-5.706787,17.41333,-44.577026,-0.022589648,-0.25141466,9.8034,0.0008172672,-0.00028830767,0.001083374,-0.00016784668,-9.1552734e-05,9.1552734e-05
2019-07-01T19:10:19.391Z,-0.012311715,0.0037430783,-0.20275103,-0.0143585205,-0.25602722,9.805786,-5.1345825,15.774536,-44.404602,-0.022924157,-0.25132242,9.803403,-0.0012433771,0.0008145273,0.0004014969,-4.5776367e-05,-4.5776367e-05,1.5258789e-05
2019-07-01T19:10:19.590Z,-0.012283357,0.0036873892,-0.20259288,-0.023925781,-0.25602722,9.793823,-7.2891235,16.215515,-44.755554,-0.02200796,-0.25055295,9.803425,0.00023516268,0.0007530749,0.00050640106,1.5258789e-05,7.6293945e-05,0.00015258789
2019-07-01T19:10:19.787Z,-0.012258324,0.003658267,-0.20250474,-0.021530151,-0.24885559,9.820145,-5.5999756,16.25824,-44.966125,-0.021570671,-0.24995464,9.803441,0.0005158726,0.0008819103,0.0008134842,-4.5776367e-05,-4.5776367e-05,0.00015258789
2019-07-01T19:10:19.998Z,-0.012274868,0.003713422,-0.20265517,-0.021530151,-0.25125122,9.805786,-5.999756,16.149902,-44.065857,-0.022525713,-0.25049478,9.803424,-0.001151938,-0.00046792626,0.0013418198,-4.5776367e-05,1.5258789e-05,-3.0517578e-05
2019-07-01T19:10:20.202Z,-0.012281018,0.003693435,-0.20260715,-0.01675415,-0.24406433,9.7986145,-4.1625977,15.986633,-44.77997,-0.02212971,-0.2505324,9.803425,0.0013218224,0.0005443394,0.0010633469,-0.00016784668,7.6293945e-05,-0.00010681152
2019-07-01T19:10:20.412Z,-0.012273828,0.003682675,-0.20257568,-0.01914978,-0.25842285,9.800995,-5.265808,16.04004,-42.23175,-0.021959696,-0.25035083,9.803429,0.0001885537,0.0012870133,-0.0016736984,-0.00022888184,0.0001373291,0.00015258789
2019-07-01T19:10:20.605Z,-0.0122946715,0.0037125563,-0.20266354,-0.01914978,-0.24645996,9.8033905,-5.1971436,15.827942,-42.503357,-0.02242821,-0.2508718,9.803415,-0.0012667272,-0.001074642,-0.0011262894,-0.00016784668,-4.5776367e-05,0.00021362305
2019-07-01T19:10:20.852Z,-0.01224769,0.0036869913,-0.2025728,-0.023925781,-0.25842285,9.805786,-5.912781,16.30249,-44.19098,-0.022147203,-0.24986602,9.803441,0.0010907408,0.0024522543,-0.0010623932,1.5258789e-05,1.5258789e-05,3.0517578e-05
2019-07-01T19:10:21.048Z,-0.0122632235,0.0036808546,-0.20256534,-0.023925781,-0.24645996,9.805786,-5.9280396,16.088867,-44.987488,-0.021969521,-0.25013977,9.803435,0.0006693918,-0.0008543432,0.0004081726,-0.00010681152,7.6293945e-05,0.00015258789
2019-07-01T19:10:21.248Z,-0.012266812,0.0036853103,-0.2025787,-0.028717041,-0.2536316,9.8033905,-5.508423,16.403198,-44.335938,-0.022037413,-0.25022668,9.803432,-0.0006960239,0.00067842007,0.0009202957,7.6293945e-05,-4.5776367e-05,0.0002746582
2019-07-01T19:10:21.450Z,-0.012292378,0.003700003,-0.20263009,-0.023925781,-0.24645996,9.7986145,-5.999756,16.07666,-43.85376,-0.02220482,-0.2507771,9.803417,-0.0005286094,-0.00044965744,-2.193451e-05,-0.00022888184,1.5258789e-05,9.1552734e-05
2019-07-01T19:10:21.680Z,-0.012260845,0.0036863023,-0.20257805,-0.023925781,-0.24885559,9.800995,-6.3323975,16.061401,-44.978333,-0.022080347,-0.25011602,9.803435,0.00055139326,0.0015181303,-0.0008058548,-0.00016784668,-9.1552734e-05,-0.00016784668
2019-07-01T19:10:21.889Z,-0.01226536,0.003717466,-0.20266047,-0.01914978,-0.24645996,9.805786,-6.1828613,15.626526,-44.088745,-0.022639824,-0.25032842,9.803429,-0.00032494776,-0.00092604756,-0.0013446808,1.5258789e-05,0.0001373291,0.0002746582
2019-07-01T19:10:22.062Z,-0.012279811,0.0036974337,-0.20261678,-0.03111267,-0.24406433,9.800995,-5.6762695,16.246033,-44.361877,-0.022208842,-0.25052533,9.803425,0.0009082705,-0.00047388673,0.00086307526,0.0002593994,7.6293945e-05,3.0517578e-05
2019-07-01T19:10:22.282Z,-0.012271344,0.003731443,-0.20269954,-0.01675415,-0.25602722,9.8033905,-5.050659,17.523193,-43.597412,-0.022874458,-0.25049976,9.803423,-0.0010503139,0.00022089481,0.00025177002,-0.00016784668,0.0001373291,-3.0517578e-05
2019-07-01T19:10:22.479Z,-0.01230384,0.0037129333,-0.20266943,-0.01914978,-0.2416687,9.810577,-5.5007935,16.548157,-44.081116,-0.02239749,-0.2510495,9.803411,0.0008525662,-0.000913471,-0.00046157837,-4.5776367e-05,3.0517578e-05,-0.00010681152
2019-07-01T19:10:22.681Z,-0.01228593,0.003689642,-0.20260005,-0.021530151,-0.24885559,9.805786,-4.86145,16.522217,-44.717407,-0.022039162,-0.25061145,9.803422,0.0012275409,9.295344e-05,0.0007944107,0.00019836426,1.5258789e-05,9.1552734e-05
2019-07-01T19:10:22.881Z,-0.012226077,0.0036892968,-0.20256715,-0.023925781,-0.25602722,9.8033905,-5.6030273,15.957642,-43.89496,-0.022278806,-0.24946004,9.803452,3.1042844e-05,0.0032392144,-0.0015268326,-4.5776367e-05,0.0001373291,-0.00022888184
2019-07-01T19:10:23.092Z,-0.012264596,0.0037070804,-0.2026334,-0.021530151,-0.25125122,9.7986145,-5.6503296,16.83197,-44.395447,-0.02245033,-0.25027186,9.803431,0.00020308793,-0.0016957223,0.00041675568,-0.00016784668,0.0001373291,-3.0517578e-05
2019-07-01T19:10:23.293Z,-0.01228454,0.003687591,-0.20259404,-0.01675415,-0.26081848,9.810577,-4.8324585,17.10205,-44.221497,-0.02200684,-0.2505765,9.803424,0.0009493809,-0.00019019842,-0.00035953522,-4.5776367e-05,0.0001373291,3.0517578e-05
2019-07-01T19:10:23.497Z,-0.012291722,0.0036816434,-0.20258261,-0.021530151,-0.24406433,9.808182,-6.1294556,16.79535,-43.777466,-0.021866996,-0.25069052,9.803421,0.00081015006,0.00040385127,0.0005598068,-0.00010681152,-4.5776367e-05,-0.00010681152
2019-07-01T19:10:23.699Z,-0.01227259,0.0036939587,-0.202604,-0.023925781,-0.24645996,9.796219,-5.696106,15.657043,-43.72711,-0.022174079,-0.25037256,9.803429,0.00015653111,9.262562e-05,0.00053215027,-0.00010681152,0.00019836426,9.1552734e-05
2019-07-01T19:10:23.898Z,-0.012290362,0.0037178576,-0.20267485,-0.021530151,-0.2416687,9.800995,-5.743408,16.534424,-44.300842,-0.022544257,-0.25081038,9.803416,-0.0006644968,-0.00044235587,-0.0009126663,7.6293945e-05,1.5258789e-05,0.0002593994
2019-07-01T19:10:24.105Z,-0.012286816,0.003739201,-0.20272774,-0.023925781,-0.24645996,9.793823,-6.1584473,16.137695,-43.833923,-0.022954697,-0.25082836,9.803415,-0.00019273348,0.0025863647,0.00013256073,-0.00010681152,1.5258789e-05,9.1552734e-05
2019-07-01T19:10:24.310Z,-0.012234573,0.0037176248,-0.2026444,-0.01675415,-0.27038574,9.808182,-5.7800293,15.653992,-44.026184,-0.022543186,-0.25012928,9.803433,0.00028306805,-0.0001333952,9.441376e-05,-0.00022888184,-0.00015258789,0.0002593994
2019-07-01T19:10:24.549Z,-0.012236462,0.0037072,-0.20261866,-0.023925781,-0.24406433,9.805786,-4.3182373,16.047668,-44.685364,-0.022568228,-0.24973176,9.803444,-0.00040699728,0.0013991147,0.0018177032,-0.00016784668,-4.5776367e-05,0.00015258789
2019-07-01T19:10:24.748Z,-0.012269594,0.0037054743,-0.20263195,-0.01914978,-0.2536316,9.800995,-5.2978516,15.841675,-45.062256,-0.022399994,-0.2503614,9.803429,0.000385629,-0.0010732114,-0.00038433075,-0.00010681152,-9.1552734e-05,-0.00010681152
2019-07-01T19:10:24.968Z,-0.012242445,0.0037234514,-0.20266357,-0.01914978,-0.25125122,9.800995,-6.7367554,15.960693,-44.830322,-0.022845084,-0.24991228,9.803439,-0.00060459226,0.001334548,-0.0008831024,-0.00010681152,-4.5776367e-05,-0.00010681152
2019-07-01T19:10:25.173Z,-0.012306372,0.0036774692,-0.20257972,-0.028717041,-0.2536316,9.796219,-5.4992676,16.548157,-44.081116,-0.02172935,-0.2509552,9.803415,0.0021101013,-0.001689285,0.0005235672,-0.00010681152,0.0001373291,-3.0517578e-05
2019-07-01T19:10:25.370Z,-0.012295109,0.0037283234,-0.20270425,-0.03111267,-0.2536316,9.7986145,-5.9310913,16.091919,-45.36438,-0.022718836,-0.25094384,9.803413,-0.0012043118,0.00092715025,-0.00091457367,-0.00016784668,1.5258789e-05,3.0517578e-05
2019-07-01T19:10:25.571Z,-0.012342845,0.0037355828,-0.20274845,-0.026321411,-0.24885559,9.793823,-4.803467,16.168213,-45.54596,-0.022657048,-0.25189027,9.803388,0.0011141635,-0.0017132461,-0.00012874603,-4.5776367e-05,0.0001373291,3.0517578e-05
2019-07-01T19:10:25.777Z,-0.012347719,0.003708895,-0.20268254,-0.01914978,-0.24885559,9.812973,-5.633545,15.45105,-44.75403,-0.02214211,-0.2518763,9.8033905,0.0015609022,0.00042915344,0.00039577484,-0.00016784668,0.0002593994,-0.00016784668
2019-07-01T19:10:25.979Z,-0.012340841,0.003701486,-0.20265983,-0.01675415,-0.25125122,9.805786,-5.673218,16.397095,-44.859314,-0.022033002,-0.25171426,9.803394,0.0009783208,0.0009792745,-0.0003604889,-0.00016784668,0.00019836426,9.1552734e-05
2019-07-01T19:10:26.180Z,-0.012322885,0.0036596972,-0.20254293,-0.01914978,-0.2416687,9.8033905,-4.8721313,16.377258,-44.97223,-0.021331858,-0.25120085,9.803409,0.0012389701,0.0011896789,0.0005540848,-0.00010681152,1.5258789e-05,3.0517578e-05
2019-07-01T19:10:26.379Z,-0.012325921,0.0036651827,-0.20255864,-0.026321411,-0.2632141,9.805786,-4.483032,15.888977,-44.332886,-0.021421112,-0.2512813,9.803407,0.0003656,-0.00042399764,-0.0012292862,1.5258789e-05,0.0001373291,0.00015258789
2019-07-01T19:10:26.590Z,-0.012397164,0.003666349,-0.20259975,-0.0143585205,-0.25602722,9.808182,-5.508423,16.404724,-44.488525,-0.0211498,-0.25265482,9.803372,0.0010573287,-0.0021421611,0.0015764236,1.5258789e-05,7.6293945e-05,7.6293945e-05
2019-07-01T19:10:26.784Z,-0.012419459,0.003670776,-0.20262305,-0.026321411,-0.24406433,9.810577,-4.144287,16.122437,-43.318176,-0.021140182,-0.25310102,9.803361,0.00080403127,-0.0007290244,0.0004119873,-0.00010681152,0.0002593994,-4.5776367e-05
2019-07-01T19:10:26.987Z,-0.012356366,0.003695206,-0.20265202,-0.01914978,-0.26081848,9.7986145,-5.8929443,16.740417,-44.102478,-0.02185269,-0.25198722,9.803388,-0.0015974753,0.002200216,-0.0011606216,-4.5776367e-05,1.5258789e-05,1.5258789e-05
2019-07-01T19:10:27.190Z,-0.012337655,0.003698851,-0.20265137,-0.026321411,-0.23928833,9.805786,-5.2978516,15.687561,-44.26422,-0.021997249,-0.2516424,9.803396,0.00022486784,0.0004130602,-0.0006132126,1.5258789e-05,7.6293945e-05,9.1552734e-05
2019-07-01T19:10:27.398Z,-0.012334486,0.0036951539,-0.20264018,-0.01914978,-0.25602722,9.8033905,-5.2856445,15.904236,-43.84308,-0.02194172,-0.25156662,9.803398,0.0004128199,0.0005739033,-0.0005674362,1.5258789e-05,7.6293945e-05,-0.00010681152
2019-07-01T19:10:27.597Z,-0.0123396935,0.0036600325,-0.20255278,-0.03111267,-0.24885559,9.808182,-6.086731,16.072083,-44.380188,-0.02126898,-0.25152516,9.803401,0.0011736173,-0.00019362569,-0.00069618225,-4.5776367e-05,7.6293945e-05,0.00015258789
2019-07-01T19:10:27.801Z,-0.012334921,0.003711679,-0.20268284,-0.021530151,-0.24885559,9.800995,-6.1203003,15.419006,-44.966125,-0.022246381,-0.2516416,9.803395,-0.0014492851,-6.869435e-05,0.0006570816,1.5258789e-05,-9.1552734e-05,-0.00016784668
2019-07-01T19:10:28.003Z,-0.01229262,0.0037206006,-0.20268309,-0.021530151,-0.26560974,9.810577,-5.366516,16.053772,-45.092773,-0.022585846,-0.25086483,9.803415,-0.00015025027,0.0020036697,-0.0014705658,-4.5776367e-05,0.00019836426,-0.00010681152
2019-07-01T19:10:28.215Z,-0.012312756,0.0037243122,-0.2027034,-0.011962891,-0.23928833,9.805786,-5.5130005,16.255188,-43.91327,-0.02257185,-0.2512667,9.803405,0.0005551148,-0.00091168284,0.0018882751,-4.5776367e-05,0.00019836426,-0.00016784668
2019-07-01T19:10:28.413Z,-0.012347205,0.0037058955,-0.20267457,-0.01914978,-0.25842285,9.812973,-5.66864,16.392517,-44.33136,-0.022088602,-0.25185433,9.803391,0.00078988634,-0.00031381845,0.00078868866,-4.5776367e-05,7.6293945e-05,-3.0517578e-05
2019-07-01T19:10:28.619Z,-0.012285212,0.003687577,-0.20259435,-0.01914978,-0.25125122,9.793823,-5.6243896,15.670776,-44.859314,-0.022003815,-0.25058934,9.803423,0.00023187324,0.0020046532,-0.00011920929,-0.00010681152,-4.5776367e-05,0.00015258789
2019-07-01T19:10:28.821Z,-0.012302496,0.003671114,-0.20256133,-0.023925781,-0.24645996,9.7986145,-5.9677124,15.136719,-44.802856,-0.021627417,-0.25085512,9.803418,0.0012902189,-0.000837028,0.00039672852,7.6293945e-05,7.6293945e-05,3.0517578e-05
2019-07-01T19:10:29.021Z,-0.012270105,0.003689051,-0.20259006,-0.01675415,-0.24645996,9.7986145,-6.362915,15.254211,-44.38629,-0.022093263,-0.25030503,9.803431,-0.00039475225,0.0017325282,0.00058555603,7.6293945e-05,0.0001373291,0.00015258789
2019-07-01T19:10:29.223Z,-0.01226713,0.0037205557,-0.20266934,-0.021530151,-0.25125122,9.808182,-6.07605,16.444397,-45.211792,-0.022689851,-0.25037488,9.803427,-0.0007620137,0.0020021796,-0.0008955002,-0.00010681152,0.0001373291,-0.00022888184
2019-07-01T19:10:29.418Z,-0.01227814,0.003728569,-0.2026958,-0.021530151,-0.24645996,9.796219,-4.7851562,16.227722,-43.496704,-0.022793196,-0.25061873,9.80342,0.00030473433,-0.0003554523,0.0017957687,-0.00022888184,7.6293945e-05,-3.0517578e-05
2019-07-01T19:10:29.626Z,-0.012286286,0.0037171668,-0.20267089,-0.01675415,-0.24885559,9.808182,-5.819702,14.779663,-44.203186,-0.022548212,-0.25072926,9.803418,0.0010047574,-0.00025606155,-0.00087833405,0.0001373291,0.0001373291,-0.00022888184
2019-07-01T19:10:29.826Z,-0.012283851,0.003725711,-0.20269153,-0.026321411,-0.25125122,9.808182,-5.3588867,16.122437,-44.474792,-0.022716695,-0.25071695,9.803418,-0.00026176125,0.0006853044,-0.000579834,-0.00016784668,0.0001373291,3.0517578e-05
2019-07-01T19:10:30.038Z,-0.012259077,0.0037217583,-0.20266812,-0.021530151,-0.24406433,9.8033905,-5.706787,15.438843,-43.771362,-0.022745274,-0.250225,9.803431,-0.00023216195,0.00043341517,0.0008907318,-4.5776367e-05,-4.5776367e-05,9.1552734e-05
2019-07-01T19:10:30.231Z,-0.012264162,0.003715153,-0.20265388,-0.01914978,-0.25842285,9.793823,-6.903076,15.725708,-43.963623,-0.02260185,-0.2502961,9.80343,0.0008301567,-0.0002092123,0.00026798248,1.5258789e-05,7.6293945e-05,3.0517578e-05
2019-07-01T19:10:30.436Z,-0.012271288,0.0037370098,-0.2027138,-0.026321411,-0.25602722,9.812973,-5.0323486,16.139221,-43.881226,-0.022977939,-0.25052115,9.803423,-0.00022986904,-0.00023293495,-0.0015687943,7.6293945e-05,0.0001373291,9.1552734e-05
2019-07-01T19:10:30.642Z,-0.012278036,0.0037353106,-0.20271306,-0.021530151,-0.24885559,9.791428,-4.798889,15.859985,-43.344116,-0.022918662,-0.25064394,9.803419,0.00018451177,0.00061395764,0.00055885315,-0.00010681152,0.0001373291,1.5258789e-05
2019-07-01T19:10:30.838Z,-0.012318823,0.0037200514,-0.20269571,-0.021530151,-0.25842285,9.7986145,-5.9890747,16.369629,-44.17267,-0.02246787,-0.25136605,9.803402,0.0018863622,-0.0012904406,0.0010061264,-0.00016784668,7.6293945e-05,-0.00016784668
2019-07-01T19:10:31.045Z,-0.012353526,0.0036951462,-0.20265034,-0.021530151,-0.25602722,9.805786,-5.735779,16.601562,-43.608093,-0.02186326,-0.2519324,9.803389,0.0012817476,-0.00072324276,4.386902e-05,-0.00010681152,0.00019836426,1.5258789e-05
2019-07-01T19:10:31.243Z,-0.012323607,0.0037308868,-0.2027261,-0.021530151,-0.24645996,9.800995,-5.6488037,16.830444,-44.16809,-0.022649134,-0.2515017,9.803399,-0.001028901,0.0012518167,0.00082683563,-0.00010681152,-4.5776367e-05,0.00015258789
2019-07-01T19:10:31.448Z,-0.012268017,0.0037309814,-0.20269658,-0.026321411,-0.2368927,9.800995,-5.014038,16.50238,-43.50586,-0.022879578,-0.25043398,9.803425,-0.001043288,0.002327472,-0.00056648254,-0.00010681152,-4.5776367e-05,0.00015258789
2019-07-01T19:10:31.650Z,-0.012269595,0.0037427559,-0.20272765,-0.01675415,-0.24885559,9.7986145,-4.562378,15.803528,-43.515015,-0.023091476,-0.25051183,9.803423,-0.00011446141,0.000495106,-0.00020885468,-4.5776367e-05,1.5258789e-05,3.0517578e-05
2019-07-01T19:10:31.848Z,-0.012285585,0.0037197687,-0.20267719,-0.021530151,-0.24885559,9.810577,-5.734253,15.083313,-45.124817,-0.022599356,-0.2507263,9.803419,0.0013003629,-1.1354685e-05,-0.00029850006,-4.5776367e-05,7.6293945e-05,0.00021362305
2019-07-01T19:10:32.068Z,-0.012292578,0.0036834972,-0.20258783,-0.021530151,-0.25125122,9.7986145,-5.1879883,16.427612,-44.721985,-0.021897864,-0.25071445,9.803421,0.00084271096,0.00020301342,-0.00019741058,-4.5776367e-05,-4.5776367e-05,0.00015258789
2019-07-01T19:10:32.265Z,-0.012318065,0.0036757821,-0.20258166,-0.0143585205,-0.25602722,9.805786,-4.9728394,15.936279,-45.359802,-0.02164998,-0.25117305,9.803409,0.00035124645,-0.00052177906,0.0005121231,-0.00022888184,-9.1552734e-05,0.0002746582
2019-07-01T19:10:32.464Z,-0.012285167,0.0036672538,-0.20254216,-0.026321411,-0.2416687,9.815353,-5.343628,16.488647,-44.55414,-0.021627046,-0.2505066,9.803427,0.00057437085,0.0012295544,0.0017757416,-4.5776367e-05,1.5258789e-05,0.0002746582
2019-07-01T19:10:32.666Z,-0.012295993,0.0036433241,-0.20248652,-0.01914978,-0.25602722,9.810577,-6.478882,16.189575,-43.6615,-0.021138709,-0.25061825,9.803425,0.0012773946,-7.7962875e-05,0.0011854172,1.5258789e-05,7.6293945e-05,3.0517578e-05
2019-07-01T19:10:32.866Z,-0.012322121,0.0036828995,-0.20260209,-0.021530151,-0.2536316,9.8033905,-5.290222,15.908813,-44.371033,-0.021765307,-0.25127968,9.803407,-0.0007217359,-0.0015837848,-0.0012865067,7.6293945e-05,0.0001373291,1.5258789e-05
2019-07-01T19:10:33.076Z,-0.012311744,0.003677418,-0.20258246,-0.028717041,-0.24645996,9.808182,-5.26886,16.499329,-45.158386,-0.021706317,-0.2510582,9.803412,-6.259419e-05,0.0008305013,0.0009050369,-4.5776367e-05,1.5258789e-05,3.0517578e-05
2019-07-01T19:10:33.278Z,-0.012299019,0.003720157,-0.20268539,-0.0143585205,-0.24885559,9.808182,-5.1651,16.938782,-44.696045,-0.022551296,-0.25098598,9.8034115,-0.0016119797,0.00029698014,0.0009202957,-0.00010681152,0.0001373291,9.1552734e-05
2019-07-01T19:10:33.482Z,-0.012307919,0.0036750745,-0.2025744,-0.023925781,-0.24406433,9.800995,-5.1208496,16.065979,-44.421387,-0.021678576,-0.25097522,9.803413,0.002303796,0.00048610568,-0.002251625,-4.5776367e-05,-4.5776367e-05,0.0002746582
2019-07-01T19:10:33.682Z,-0.012319594,0.003633509,-0.20247392,-0.01675415,-0.2536316,9.800995,-5.57251,16.766357,-44.335938,-0.020859685,-0.25103217,9.803414,0.0017130431,0.0007800162,-0.00053691864,-0.00016784668,0.0001373291,0.00021362305
2019-07-01T19:10:33.890Z,-0.012310025,0.0036493745,-0.20250955,-0.0143585205,-0.2536316,9.805786,-5.1101685,16.20636,-43.788147,-0.02119326,-0.25091222,9.803417,-0.0008222014,0.00018447638,-0.00019550323,-0.00022888184,-4.5776367e-05,0.00021362305
2019-07-01T19:10:34.092Z,-0.012355714,0.0036886267,-0.20263478,-0.021530151,-0.24885559,9.800995,-6.085205,16.30249,-45.466614,-0.021733366,-0.25194818,9.803389,-0.0009992681,-0.0018932521,-0.00012874603,7.6293945e-05,1.5258789e-05,0.00015258789
2019-07-01T19:10:34.292Z,-0.012291432,0.0037197503,-0.20268027,-0.0143585205,-0.2536316,9.805786,-5.937195,15.794373,-44.44275,-0.022574957,-0.25083858,9.803415,-0.001350848,0.0022268593,-0.0026388168,-4.5776367e-05,1.5258789e-05,0.00021362305
2019-07-01T19:10:34.498Z,-0.01226177,0.0037302147,-0.20269127,-0.026321411,-0.24406433,9.8033905,-6.201172,15.341187,-44.825745,-0.022891056,-0.25031087,9.803429,-0.00031725876,0.0014586151,0.0003194809,-4.5776367e-05,7.6293945e-05,0.00033569336
2019-07-01T19:10:34.698Z,-0.012257523,0.0037158788,-0.2026522,-0.021530151,-0.26081848,9.800995,-5.6671143,16.467285,-44.470215,-0.022642616,-0.25017142,9.803432,0.00015390478,0.00040009618,0.0021266937,1.5258789e-05,1.5258789e-05,0.0002746582
2019-07-01T19:10:34.901Z,-0.012266055,0.0037252656,-0.20268086,-0.021530151,-0.2536316,9.810577,-6.401062,16.195679,-44.11621,-0.022781633,-0.2503732,9.803427,-0.00019831769,-0.00016319752,-0.002568245,-4.5776367e-05,1.5258789e-05,3.0517578e-05
2019-07-01T19:10:35.100Z,-0.012286391,0.00374335,-0.20273817,-0.01914978,-0.24406433,9.793823,-4.962158,16.079712,-44.72809,-0.023033392,-0.25083694,9.803414,-0.0006601028,-0.0003619492,0.0030736923,-0.00010681152,-9.1552734e-05,0.00021362305
2019-07-01T19:10:35.305Z,-0.012268265,0.00371801,-0.20266342,-0.01675415,-0.24885559,9.8033905,-5.4122925,15.106201,-45.436096,-0.02190589,-0.25040984,9.803428,0.00109528,0.0015609562,-0.00049877167,-0.00022888184,-4.5776367e-05,0.00015258789
2019-07-01T19:10:35.529Z,-0.012277343,0.0036805535,-0.20257212,-0.033493042,-0.24885559,9.810577,-4.4067383,16.127014,-46.02356,-0.021736283,-0.25066507,9.803422,0.0013236906,0.00014171004,-0.0006465912,-4.5776367e-05,1.5258789e-05,0.00045776367
2019-07-01T19:10:35.711Z,-0.01231112,0.0036651192,-0.20255056,-0.023925781,-0.25125122,9.805786,-5.604553,16.108704,-44.770813,-0.02148078,-0.25099665,9.803414,-0.00029294007,0.00024038553,-0.0007581711,-4.5776367e-05,-0.00016784668,0.00033569336
2019-07-01T19:10:35.910Z,-0.0123104425,0.003680487,-0.20258965,-0.026321411,-0.2536316,9.796219,-5.5633545,15.235901,-44.725037,-0.021768581,-0.25104555,9.803412,-0.0002489686,0.0010099411,0.0002975464,-0.000289917,-0.00015258789,0.00021362305
2019-07-01T19:10:36.122Z,-0.012293845,0.0036956912,-0.2026198,-0.026321411,-0.24885559,9.8033905,-5.314636,15.324402,-44.413757,-0.022118816,-0.25078794,9.803418,-0.0006174594,0.0004903376,-0.0013895035,-0.00022888184,0.0001373291,0.00033569336
2019-07-01T19:10:36.321Z,-0.012296943,0.0036913545,-0.20261033,-0.01914978,-0.24645996,9.805786,-6.6192627,16.76941,-44.519043,-0.022025649,-0.25082996,9.803417,0.0002517812,0.00030073524,0.0009899139,1.5258789e-05,-9.1552734e-05,9.1552734e-05
2019-07-01T19:10:36.522Z,-0.012284553,0.0036767535,-0.20256622,-0.026321411,-0.24645996,9.8033905,-5.7418823,16.76178,-45.236206,-0.021805776,-0.25053304,9.803425,0.0005057994,0.0012193024,0.00081825256,-0.00010681152,7.6293945e-05,0.00015258789
2019-07-01T19:10:36.728Z,-0.012242049,0.0036721507,-0.20253168,-0.021530151,-0.25125122,9.7986145,-5.267334,16.270447,-43.618774,-0.021895092,-0.24969783,9.803446,0.00012283027,0.0022996962,0.00071430206,-0.00010681152,1.5258789e-05,1.5258789e-05
2019-07-01T19:10:36.931Z,-0.012352698,0.0036401695,-0.20250873,-0.023925781,-0.2416687,9.7986145,-5.857849,15.873718,-44.883728,-0.02084716,-0.25169504,9.803397,0.0021876786,-0.0031176507,5.722046e-06,-0.000289917,-4.5776367e-05,0.00021362305
2019-07-01T19:10:37.131Z,-0.012335458,0.0036329639,-0.20248102,-0.01914978,-0.24885559,9.8033905,-5.9936523,16.223145,-43.823242,-0.020784384,-0.2513348,9.803407,0.00020326115,0.0020422637,0.0009717941,-0.00022888184,0.00019836426,0.00033569336
2019-07-01T19:10:37.329Z,-0.012365197,0.0036555126,-0.20255482,-0.023925781,-0.2536316,9.8033905,-5.2124023,15.843201,-44.53888,-0.021080308,-0.25199696,9.803389,-0.0009357333,-0.0011330247,-0.0006227493,-0.000289917,1.5258789e-05,9.1552734e-05
2019-07-01T19:10:37.533Z,-0.012358432,0.0036379297,-0.20250605,-0.021530151,-0.25125122,9.7986145,-5.2383423,17.077637,-44.36035,-0.020782055,-0.2517962,9.803394,0.00068864226,0.00057417154,6.389618e-05,1.5258789e-05,-9.1552734e-05,0.00021362305
2019-07-01T19:10:37.740Z,-0.012338712,0.0036868472,-0.2026211,-0.023925781,-0.25125122,9.800995,-5.117798,16.21399,-44.844055,-0.021770291,-0.25161433,9.803397,-0.0016823746,-0.00010883808,-0.0022001266,-4.5776367e-05,-9.1552734e-05,0.00021362305
2019-07-01T19:10:37.942Z,-0.012349591,0.0036566695,-0.20254944,-0.0143585205,-0.24885559,9.810577,-5.2093506,15.684509,-43.28766,-0.021165926,-0.2517018,9.803397,0.0010706615,0.00045725703,0.00045108795,7.6293945e-05,0.0001373291,9.1552734e-05
2019-07-01T19:10:38.149Z,-0.012348172,0.003634454,-0.20249164,-0.01675415,-0.25125122,9.808182,-6.2713623,15.553284,-44.630432,-0.020759769,-0.2515851,9.803401,0.00089504384,0.00013187528,0.0015821457,-4.5776367e-05,-9.1552734e-05,0.00045776367
2019-07-01T19:10:38.348Z,-0.01233891,0.003643012,-0.20250866,-0.021530151,-0.25125122,9.8033905,-5.3237915,15.255737,-45.106506,-0.020956548,-0.2514416,9.803405,0.00037441216,0.0011753142,-0.00021839142,-0.00016784668,0.0001373291,0.00015258789
2019-07-01T19:10:38.551Z,-0.012347708,0.0036344244,-0.20249131,-0.01914978,-0.25125122,9.805786,-5.545044,15.675354,-44.937134,-0.020761121,-0.25157604,9.8034,0.00089700334,-0.00011396408,0.00082302094,-0.00016784668,0.00019836426,-3.0517578e-05
2019-07-01T19:10:38.749Z,-0.012341584,0.0036621918,-0.20255934,-0.021530151,-0.25602722,9.7986145,-5.256653,16.563416,-43.86139,-0.021301249,-0.25157017,9.803399,-0.0016737897,0.00014555454,0.0016584396,-4.5776367e-05,-9.1552734e-05,-3.0517578e-05
2019-07-01T19:10:38.953Z,-0.012378215,0.0036673592,-0.20259221,-0.01914978,-0.25602722,9.793823,-5.609131,15.962219,-44.65027,-0.02124646,-0.2522948,9.803381,0.00043853745,-0.0015207529,0.0003118515,1.5258789e-05,7.6293945e-05,1.5258789e-05
2019-07-01T19:10:39.159Z,-0.012333551,0.0036683835,-0.20257095,-0.021530151,-0.24885559,9.805786,-4.966736,15.777588,-43.655396,-0.021449104,-0.2514408,9.803403,-0.0005654376,0.0019136369,-0.0010728836,-4.5776367e-05,-9.1552734e-05,0.00033569336
2019-07-01T19:10:39.357Z,-0.012301461,0.0036354116,-0.20246913,-0.01914978,-0.24885559,9.7986145,-6.239319,16.20636,-44.12079,-0.020969478,-0.2506914,9.803422,0.0011070669,0.0018900037,0.00073337555,1.5258789e-05,7.6293945e-05,0.00021362305
2019-07-01T19:10:39.567Z,-0.012282702,0.0036481917,-0.20249191,-0.01914978,-0.25125122,9.808182,-5.7174683,15.371704,-44.68994,-0.021283606,-0.25038245,9.80343,-0.0009613726,0.0010813177,-0.0020608902,-0.00016784668,1.5258789e-05,0.0001373291
2019-07-01T19:10:39.768Z,-0.012284461,0.0036246243,-0.20243233,-0.026321411,-0.24885559,9.815353,-6.3171387,16.19873,-43.667603,-0.020839235,-0.2503214,9.803432,0.00097463466,5.9634447e-05,6.0081482e-05,-4.5776367e-05,-0.00015258789,0.00021362305
2019-07-01T19:10:39.964Z,-0.01229663,0.0036510727,-0.20250675,-0.01914978,-0.24885559,9.796219,-5.5999756,16.030884,-44.033813,-0.02127981,-0.2506617,9.803424,-0.0009638388,-0.00030219555,0.001162529,-4.5776367e-05,3.0517578e-05,0.0002746582
2019-07-01T19:10:40.178Z,-0.012285545,0.0036117295,-0.2023998,-0.023925781,-0.25125122,9.8033905,-6.326294,16.055298,-44.22455,-0.020595595,-0.2502903,9.803433,0.0012180861,0.00097572803,-0.0022554398,-4.5776367e-05,-4.5776367e-05,0.00045776367
2019-07-01T19:10:40.374Z,-0.012314337,0.0036234676,-0.20244534,-0.01914978,-0.24885559,9.800995,-5.7403564,16.760254,-45.0119,-0.020695046,-0.25089076,9.803418,-0.00011581741,-0.0010518432,0.0008878708,-0.00016784668,-4.5776367e-05,0.00015258789
2019-07-01T19:10:40.578Z,-0.012298005,0.0036411139,-0.20248191,-0.021530151,-0.25125122,9.805786,-6.5689087,16.038513,-44.140625,-0.021089448,-0.250648,9.803424,-0.00068154745,0.0008703172,0.0010738373,1.5258789e-05,0.0001373291,0.00033569336
2019-07-01T19:10:40.780Z,-0.012274373,0.0036367243,-0.20245801,-0.026321411,-0.25125122,9.800995,-7.1502686,15.943909,-45.94879,-0.02110512,-0.25017628,9.803436,-0.00019297749,0.0013583004,-8.4877014e-05,-0.00010681152,-9.1552734e-05,0.00032043457
2019-07-01T19:10:40.983Z,-0.012322152,0.0036479586,-0.2025124,-0.0143585205,-0.24885559,9.815353,-6.7855835,14.788818,-44.311523,-0.02111716,-0.2511395,9.803411,6.267242e-05,-0.0012705028,-0.00052928925,-0.00010681152,-4.5776367e-05,0.0002746582
2019-07-01T19:10:41.182Z,-0.012322452,0.003627,-0.20245874,-0.021530151,-0.2536316,9.805786,-6.42395,15.608215,-43.85681,-0.020727217,-0.2510609,9.803414,0.0011069607,0.0008018315,-2.193451e-05,-0.00022888184,0.0001373291,0.00033569336
2019-07-01T19:10:41.389Z,-0.012321056,0.003659711,-0.20254199,-0.026321411,-0.24885559,9.805786,-5.36499,16.12854,-45.230103,-0.021339633,-0.25116578,9.803411,-0.0013930146,0.00019341707,0.0003042221,-0.00010681152,-9.1552734e-05,0.00021362305
2019-07-01T19:10:41.594Z,-0.012293721,0.003688563,-0.20260145,-0.021530151,-0.2536316,9.793823,-5.567932,16.912842,-44.60907,-0.02198712,-0.25075683,9.80342,-0.0007452499,0.0016939044,0.00021076202,-0.00010681152,0.0001373291,0.00015258789
2019-07-01T19:10:41.797Z,-0.012331853,0.003678719,-0.20259658,-0.028717041,-0.24885559,9.800995,-5.693054,16.035461,-45.463562,-0.02164776,-0.2514498,9.803402,0.0003487952,-0.00072073936,-0.00081062317,-0.00022888184,-4.5776367e-05,0.00033569336
2019-07-01T19:10:41.999Z,-0.012323949,0.0037534288,-0.20278415,-0.021530151,-0.25602722,9.805786,-5.899048,16.746521,-44.854736,-0.023065751,-0.25159925,9.803395,-0.0020619407,0.001103729,0.0016069412,1.5258789e-05,7.6293945e-05,0.00015258789
2019-07-01T19:10:42.254Z,-0.012304227,0.003748924,-0.20276202,-0.0143585205,-0.25125122,9.808182,-4.9972534,15.274048,-44.740295,-0.02306338,-0.25120214,9.803406,0.000102728605,0.0011980534,0.00028133392,-0.00010681152,-9.1552734e-05,0.00033569336
2019-07-01T19:10:42.444Z,-0.012286574,0.0037143265,-0.20266376,-0.023925781,-0.25125122,9.796219,-5.453491,17.340088,-42.4881,-0.022494351,-0.25072336,9.803419,0.00096994825,0.0009705126,0.0017852783,4.5776367e-05,7.6293945e-05,0.00012207031
2019-07-01T19:10:42.644Z,-0.012284284,0.0037506514,-0.20275578,-0.01914978,-0.25125122,9.7986145,-6.1904907,15.635681,-45.069885,-0.023177478,-0.25082594,9.803415,-0.0019484852,-0.0003683269,-0.0005712509,-1.5258789e-05,-0.00015258789,6.1035156e-05
2019-07-01T19:10:42.844Z,-0.01227477,0.0037371272,-0.20271596,-0.023925781,-0.24885559,9.817749,-5.9173584,16.078186,-43.556213,-0.022965787,-0.25058857,9.803422,0.00070704333,9.62913e-05,-0.0011777878,0.00010681152,1.5258789e-05,0.0
2019-07-01T19:10:43.063Z,-0.012292797,0.003707445,-0.20264941,-0.023925781,-0.2536316,9.810577,-5.5114746,16.329956,-44.351196,-0.022341125,-0.25081518,9.803417,0.0015316997,-0.0006249249,-0.00015544891,4.5776367e-05,-4.5776367e-05,-0.00012207031
2019-07-01T19:10:43.260Z,-0.012308672,0.0036905205,-0.20261447,-0.026321411,-0.24645996,9.800995,-4.5776367,15.588379,-44.08722,-0.02196195,-0.251052,9.803412,0.00041923113,-0.00039735436,-0.0007343292,4.5776367e-05,1.5258789e-05,0.0
2019-07-01T19:10:43.465Z,-0.012299553,0.0036998922,-0.20263365,-0.01914978,-0.25125122,9.7986145,-5.9295654,15.937805,-44.26422,-0.02217326,-0.2509145,9.803414,-8.896366e-05,0.00038442016,-0.0020856857,-1.5258789e-05,-4.5776367e-05,0.00024414062
2019-07-01T19:10:43.671Z,-0.012292079,0.0036879894,-0.2025991,-0.01914978,-0.2536316,9.812973,-6.0165405,15.861511,-44.578552,-0.021983234,-0.25072294,9.80342,0.00043839775,-3.3468008e-05,0.00020313263,-1.5258789e-05,0.0001373291,0.00018310547
2019-07-01T19:10:43.880Z,-0.01230882,0.0036672803,-0.20255488,-0.01914978,-0.25125122,9.817749,-4.7088623,16.08429,-43.302917,-0.021530315,-0.25096118,9.803415,0.00070505403,0.00023305416,0.0022172928,4.5776367e-05,-4.5776367e-05,-6.1035156e-05
2019-07-01T19:10:44.078Z,-0.01229891,0.0036790546,-0.20257981,-0.011962891,-0.24645996,9.796219,-6.4071655,16.201782,-45.021057,-0.021789433,-0.2508182,9.803418,-0.00022541173,9.6559525e-05,0.00051021576,-0.0001373291,1.5258789e-05,-0.00012207031
2019-07-01T19:10:44.279Z,-0.0122651085,0.0036418673,-0.20246626,-0.021530151,-0.25125122,9.8033905,-5.3726196,15.83252,-44.5343,-0.021238582,-0.25001895,9.803439,0.0018627048,0.0014402866,-0.0006170273,0.00010681152,0.0001373291,-6.1035156e-05
2019-07-01T19:10:44.481Z,-0.012272344,0.0036708568,-0.20254456,-0.021530151,-0.24645996,9.800995,-5.4367065,16.26587,-44.744873,-0.021746585,-0.25027475,9.803432,-0.0007417537,-0.00022342801,0.00023174286,-7.6293945e-05,0.00019836426,6.1035156e-05
2019-07-01T19:10:44.680Z,-0.012206972,0.003704617,-0.20259625,-0.023925781,-0.24645996,9.800995,-5.796814,15.367126,-44.610596,-0.022641545,-0.24915472,9.803458,-0.0015235301,0.002030924,0.0014352798,-1.5258789e-05,1.5258789e-05,-0.00044250488
2019-07-01T19:10:44.885Z,-0.012234751,0.0037088802,-0.20262206,-0.026321411,-0.24406433,9.8033905,-6.668091,15.823364,-45.239258,-0.022606427,-0.24970566,9.803444,0.00011891872,-0.0012578368,-0.00080394745,4.5776367e-05,0.0001373291,-6.1035156e-05
2019-07-01T19:10:45.084Z,-0.012231377,0.003694251,-0.2025827,-0.028717041,-0.25602722,9.808182,-6.587219,15.829468,-45.466614,-0.022348922,-0.24958184,9.803448,0.0005789958,0.00053086877,0.00042247772,-1.5258789e-05,-4.5776367e-05,-0.00012207031
2019-07-01T19:10:45.290Z,-0.012233455,0.0037024922,-0.20260496,-0.023925781,-0.24406433,9.7986145,-5.192566,16.201782,-43.937683,-0.022493262,-0.249655,9.803446,-0.00023704767,-0.00082041323,0.0007543564,4.5776367e-05,-4.5776367e-05,0.00012207031
2019-07-01T19:10:45.491Z,-0.012241927,0.0037226288,-0.20266117,-0.021530151,-0.25602722,9.8033905,-6.303406,16.566467,-44.12079,-0.022831956,-0.249899,9.803439,-0.00013007969,-0.00083720684,-0.0025320053,0.00016784668,0.0001373291,0.0
2019-07-01T19:10:45.698Z,-0.012239795,0.0036870816,-0.2025688,-0.021530151,-0.25842285,9.796219,-5.11322,16.210938,-44.16504,-0.02218133,-0.24971472,9.803446,0.0016002003,0.00064849854,0.00055217743,-1.5258789e-05,-4.5776367e-05,0.00012207031
2019-07-01T19:10:45.888Z,-0.01226924,0.0036952063,-0.2026054,-0.021530151,-0.25125122,9.800995,-6.2957764,16.712952,-43.789673,-0.022210991,-0.25031322,9.803431,-3.2885e-05,-0.0016163886,0.00036525726,-1.5258789e-05,0.00019836426,0.0
2019-07-01T19:10:46.112Z,-0.012262964,0.0037342855,-0.20270236,-0.01914978,-0.25125122,9.800995,-6.668091,15.748596,-44.799805,-0.022961648,-0.25035024,9.803428,-0.001207592,-0.00089353323,-0.0024795532,0.00010681152,1.5258789e-05,-0.00032043457
2019-07-01T19:10:46.309Z,-0.012260923,0.003743649,-0.20272529,-0.026321411,-0.24645996,9.808182,-5.456543,15.753174,-44.395447,-0.023143714,-0.2503488,9.803427,0.00016479567,-0.00017639995,0.00010585785,0.00016784668,7.6293945e-05,0.0
2019-07-01T19:10:46.530Z,-0.012226337,0.0037150343,-0.20263335,-0.01914978,-0.24885559,9.808182,-4.6966553,16.452026,-43.756104,-0.022755189,-0.2495688,9.803448,0.0002678912,0.0005146861,0.0026988983,0.00016784668,0.0001373291,-6.1035156e-05
2019-07-01T19:10:46.712Z,-0.012234356,0.0037174239,-0.20264377,-0.023925781,-0.2416687,9.7986145,-5.604553,15.957642,-43.971252,-0.022766536,-0.24973255,9.803444,3.5541132e-05,-0.0007510334,0.00036144257,4.5776367e-05,1.5258789e-05,6.1035156e-05
2019-07-01T19:10:46.914Z,-0.012265413,0.0037116944,-0.20264567,-0.021530151,-0.24406433,9.808182,-5.102539,16.581726,-44.84558,-0.022532556,-0.25030616,9.80343,0.000519529,-0.000869751,0.00072193146,4.5776367e-05,-4.5776367e-05,-0.00012207031
2019-07-01T19:10:47.112Z,-0.012246781,0.0037176076,-0.20265089,-0.021530151,-0.24885559,9.810577,-5.963135,15.284729,-44.9234,-0.022718852,-0.249972,9.803437,-0.00072772615,0.00071138144,0.00064373016,-0.0001373291,-9.1552734e-05,0.0
2019-07-01T19:10:47.313Z,-0.01228058,0.003722766,-0.20268221,-0.021530151,-0.2416687,9.800995,-5.2261353,15.626526,-45.03479,-0.022675531,-0.2506422,9.80342,-0.00028371997,-0.0010242462,-0.0008401871,-1.5258789e-05,1.5258789e-05,0.0
2019-07-01T19:10:47.523Z,-0.012275835,0.0036945555,-0.20260726,-0.026321411,-0.25125122,9.805786,-5.11322,16.209412,-44.16504,-0.022171805,-0.2504373,9.803427,0.00064774044,-0.00025689602,0.0008583069,-1.5258789e-05,-0.00015258789,-0.00018310547
2019-07-01T19:10:47.723Z,-0.012257104,0.003680931,-0.20256226,-0.021530151,-0.25602722,9.805786,-6.034851,15.196228,-43.42804,-0.02199609,-0.2500225,9.803438,-1.9257888e-05,0.00095784664,-0.002612114,0.00016784668,-0.00015258789,-0.00018310547
2019-07-01T19:10:47.930Z,-0.0122974925,0.00371229,-0.20266438,-0.023925781,-0.2536316,9.815353,-6.149292,16.20636,-42.99164,-0.022411669,-0.25092492,9.803413,-0.001038421,-0.0022037625,-0.00047397614,-1.5258789e-05,1.5258789e-05,-0.00032043457
2019-07-01T19:10:48.132Z,-0.012289638,0.003691445,-0.20260666,-0.026321411,-0.25125122,9.808182,-5.430603,16.33606,-44.277954,-0.022057364,-0.25068998,9.803421,0.0014787484,0.00046247244,0.0025644302,0.00010681152,7.6293945e-05,-0.00012207031
2019-07-01T19:10:48.333Z,-0.012290381,0.0036931026,-0.20261131,-0.021530151,-0.2536316,9.8033905,-6.436157,15.467834,-44.488525,-0.02208505,-0.25071093,9.80342,-0.0004005991,0.00024276972,0.00027751923,-7.6293945e-05,-4.5776367e-05,0.00016784668
2019-07-01T19:10:48.540Z,-0.012253742,0.0036716314,-0.2025366,-0.021530151,-0.24645996,9.8033905,-5.5236816,16.036987,-44.184875,-0.021837406,-0.24992043,9.803441,0.00029841624,0.0016265959,0.0006532669,-1.5258789e-05,7.6293945e-05,-6.1035156e-05
2019-07-01T19:10:48.741Z,-0.012233457,0.0036642284,-0.20250675,-0.01675415,-0.24645996,9.8033905,-5.4519653,15.901184,-44.743347,-0.021783438,-0.24950084,9.803452,-0.00023024902,0.0006995946,-0.0014791489,4.5776367e-05,-0.00015258789,-0.00012207031
2019-07-01T19:10:48.937Z,-0.0122208325,0.0036380293,-0.20243275,-0.023925781,-0.2536316,9.800995,-5.381775,15.686035,-44.865417,-0.021349266,-0.24915276,9.803461,5.015731e-05,0.0012836903,-0.0022535324,-7.6293945e-05,-0.00021362305,6.1035156e-05
2019-07-01T19:10:49.141Z,-0.012242505,0.0036143707,-0.2023836,-0.0143585205,-0.24885559,9.808182,-5.784607,15.583801,-44.34204,-0.020821344,-0.249474,9.803454,0.00023861974,-0.0012723804,-0.00071525574,-7.6293945e-05,-9.1552734e-05,0.00012207031
2019-07-01T19:10:49.353Z,-0.012248682,0.0036337366,-0.20243661,-0.023925781,-0.2632141,9.805786,-6.0791016,16.29486,-44.63806,-0.021155238,-0.24967058,9.803448,-0.0006167721,-0.0001193881,0.00080776215,0.00016784668,-0.00021362305,0.0
2019-07-01T19:10:49.547Z,-0.012259944,0.003649923,-0.20248419,-0.021530151,-0.24406433,9.796219,-6.17218,16.149902,-45.492554,-0.021409234,-0.24995217,9.803441,-0.0008346513,-0.0002977252,0.0010194778,-0.0001373291,1.5258789e-05,0.00012207031
2019-07-01T19:10:49.743Z,-0.01229938,0.003674896,-0.20256938,-0.01914978,-0.25125122,9.810577,-5.6991577,15.585327,-43.740845,-0.021710364,-0.25081047,9.803418,-6.266311e-05,-0.0013721883,-0.0020332336,-7.6293945e-05,-4.5776367e-05,0.00012207031
2019-07-01T19:10:49.952Z,-0.012344556,0.0036930565,-0.20264018,-0.01914978,-0.2536316,9.805786,-4.9957275,15.270996,-44.361877,-0.021861408,-0.25175166,9.803394,-0.0006270241,-0.0023333728,0.0015096664,-1.5258789e-05,-4.5776367e-05,0.00012207031
2019-07-01T19:10:50.159Z,-0.012323352,0.0037106448,-0.20267399,-0.028717041,-0.25125122,9.793823,-5.683899,15.872192,-43.15338,-0.022274794,-0.25141513,9.803401,-0.0011735745,0.0007017553,0.0011692047,0.00010681152,0.0001373291,0.00022888184
2019-07-01T19:10:50.361Z,-0.0123186,0.0037363183,-0.20273736,-0.021530151,-0.24885559,9.808182,-4.727173,15.948486,-44.76471,-0.02277046,-0.2514274,9.8034,-0.0006769113,0.0004798174,0.0007839203,-0.0001373291,-0.00015258789,0.00012207031
2019-07-01T19:10:50.574Z,-0.012319233,0.0037153952,-0.20268399,-0.028717041,-0.24645996,9.8033905,-5.4611206,15.679932,-44.71283,-0.022379834,-0.25135517,9.803403,0.0008561108,0.00017616153,0.001001358,-7.6293945e-05,7.6293945e-05,0.00035095215
2019-07-01T19:10:50.783Z,-0.012284948,0.0036937662,-0.2026101,-0.0143585205,-0.25842285,9.808182,-5.773926,15.802002,-43.995667,-0.022119699,-0.25060922,9.803423,0.0010680128,0.0015711486,-0.0007658005,4.5776367e-05,7.6293945e-05,0.00012207031
2019-07-01T19:10:50.973Z,-0.012333119,0.0036746168,-0.20258671,-0.01675415,-0.24406433,9.808182,-5.7678223,16.099548,-44.917297,-0.021566479,-0.2514576,9.803402,0.00075880624,-0.0016389787,-3.2424927e-05,-0.0001373291,1.5258789e-05,6.1035156e-05
2019-07-01T19:10:51.174Z,-0.012298633,0.0036642803,-0.20254172,-0.023925781,-0.2536316,9.7986145,-6.5811157,15.899658,-44.999695,-0.021516547,-0.25075334,9.80342,-0.0002526585,0.00076684356,-0.00018024445,0.00016784668,-4.5776367e-05,0.00012207031
2019-07-01T19:10:51.379Z,-0.012325455,0.0036797577,-0.20259582,-0.0143585205,-0.24645996,9.829712,-6.265259,15.774536,-44.963074,-0.02169333,-0.2513311,9.803406,0.0001669582,-0.00059351325,-0.0012340546,-1.5258789e-05,-9.1552734e-05,-0.00012207031
2019-07-01T19:10:51.578Z,-0.012303285,0.0036769474,-0.20257674,-0.009567261,-0.24645996,9.808182,-5.618286,15.666199,-44.25659,-0.02173236,-0.25089377,9.803416,0.00043641217,0.00066530704,0.0014038086,-1.5258789e-05,0.0001373291,-6.1035156e-05
2019-07-01T19:10:51.779Z,-0.012234248,0.0036803405,-0.20254853,-0.023925781,-0.25602722,9.78186,-6.134033,14.9002075,-43.862915,-0.022079077,-0.24958095,9.803449,-0.0006515607,0.0024598837,-0.00033664703,0.00010681152,7.6293945e-05,-0.00018310547
2019-07-01T19:10:51.981Z,-0.01220286,0.0036901669,-0.20255697,-0.023925781,-0.25125122,9.812973,-4.9942017,15.423584,-45.236206,-0.022390367,-0.24901748,9.803463,-0.00033993833,0.00070899725,0.00025081635,-1.5258789e-05,0.0001373291,-0.00012207031
2019-07-01T19:10:52.191Z,-0.01221081,0.003694417,-0.20257212,-0.011962891,-0.2536316,9.808182,-5.278015,16.125488,-44.17572,-0.022436539,-0.24918735,9.803458,0.00018075667,-0.0007829815,0.001282692,0.00010681152,-4.5776367e-05,-6.1035156e-05
2019-07-01T19:10:52.392Z,-0.0122439,0.0037119559,-0.20263484,-0.023925781,-0.24645996,9.812973,-5.027771,16.362,-44.29016,-0.022625865,-0.24989387,9.80344,0.00038292445,-0.0010648966,-0.0021734238,4.5776367e-05,0.00019836426,-0.00018310547
2019-07-01T19:10:52.592Z,-0.012292198,0.0036664435,-0.20254384,-0.01675415,-0.2536316,9.789032,-5.5633545,15.237427,-44.94934,-0.02158312,-0.25063843,9.803423,0.0017226543,-0.0014836192,0.0020608902,-7.6293945e-05,1.5258789e-05,-0.00012207031
2019-07-01T19:10:52.793Z,-0.0123016285,0.0036729607,-0.20256561,-0.021530151,-0.24645996,9.800995,-5.206299,15.988159,-44.66095,-0.021665232,-0.25084588,9.803418,-0.00010349974,-0.0005698502,-0.0008649826,0.00010681152,-4.5776367e-05,0.0
2019-07-01T19:10:53.000Z,-0.01230605,0.0036481612,-0.2025043,-0.01675415,-0.24645996,9.812973,-6.2805176,15.408325,-44.885254,-0.021187097,-0.25083095,9.803419,0.00060694106,0.00035890937,-0.001367569,-0.0001373291,-4.5776367e-05,0.00012207031
2019-07-01T19:10:53.201Z,-0.012295316,0.0036529666,-0.20251091,-0.021530151,-0.24885559,9.793823,-6.6604614,15.815735,-44.18335,-0.02132034,-0.25064406,9.803424,-0.00044907816,0.00041145086,0.0008382797,4.5776367e-05,-4.5776367e-05,-0.00012207031
2019-07-01T19:10:53.457Z,-0.012271733,0.0036043918,-0.2023736,-0.028717041,-0.24885559,9.812973,-6.967163,16.16211,-44.40155,-0.020516207,-0.24999546,9.803442,0.0008982662,0.00048193336,0.00026607513,0.00010681152,-4.5776367e-05,0.00012207031
2019-07-01T19:10:53.648Z,-0.012260929,0.0036381825,-0.20245457,-0.01675415,-0.24406433,9.800995,-6.362915,15.405273,-45.03479,-0.021187404,-0.24992381,9.803442,-0.0012979861,0.0001784563,0.0009717941,-0.0001373291,-4.5776367e-05,0.00012207031
2019-07-01T19:10:53.849Z,-0.0123154055,0.003666112,-0.2025554,-0.023925781,-0.2536316,9.810577,-6.6314697,14.729309,-44.784546,-0.021481574,-0.251083,9.8034115,-0.00028719008,-0.0020109713,-0.000620842,0.00010681152,-4.5776367e-05,-0.00019836426
2019-07-01T19:10:54.044Z,-0.0122846,0.0036737772,-0.2025586,-0.021530151,-0.25602722,9.8033905,-5.696106,15.733337,-44.01245,-0.021750376,-0.250522,9.803426,-0.00049325265,0.0009917021,-0.0016965866,-1.5258789e-05,0.0001373291,0.0
2019-07-01T19:10:54.247Z,-0.012310918,0.0036894314,-0.20261288,-0.01914978,-0.2536316,9.812973,-4.7668457,16.896057,-45.09735,-0.021932513,-0.25109074,9.803411,-0.00031124242,-0.0013099015,-0.00017642975,0.00010681152,-4.5776367e-05,-0.00012207031
2019-07-01T19:10:54.489Z,-0.012307613,0.003677978,-0.2025817,-0.021530151,-0.2536316,9.8033905,-5.381775,15.533447,-43.914795,-0.021733683,-0.2509811,9.803414,0.0009253379,-0.00068953633,0.0009946823,0.00010681152,0.0001373291,-0.00018310547
2019-07-01T19:10:54.664Z,-0.012296432,0.003677475,-0.20257443,-0.023925781,-0.25125122,9.7986145,-5.317688,15.402222,-45.22705,-0.021770328,-0.25076422,9.80342,-3.632158e-07,0.0005157888,-0.00093364716,4.5776367e-05,7.6293945e-05,0.00012207031
2019-07-01T19:10:54.878Z,-0.012282042,0.0036727719,-0.20255466,-0.01914978,-0.24885559,9.8033905,-4.4570923,16.394043,-43.551636,-0.021742247,-0.2504688,9.803428,-0.0005179588,0.00020617247,-0.0011043549,-1.5258789e-05,7.6293945e-05,0.00012207031
2019-07-01T19:10:55.073Z,-0.012263315,0.0037308717,-0.20269378,-0.023925781,-0.2536316,9.7986145,-6.1065674,15.562439,-44.181824,-0.022896884,-0.2503432,9.803428,-0.0022321567,0.0005501807,-0.00025558472,0.00010681152,-0.00021362305,0.00024414062
2019-07-01T19:10:55.280Z,-0.012319098,0.0037068664,-0.202662,-0.021530151,-0.24885559,9.810577,-5.79834,15.2908325,-44.40155,-0.022222215,-0.2513182,9.803404,0.0018824246,-0.0020825565,-0.0017690659,4.5776367e-05,7.6293945e-05,0.0
2019-07-01T19:10:55.481Z,-0.012299809,0.0036961527,-0.20262419,-0.0143585205,-0.2536316,9.796219,-5.2200317,15.620422,-44.3573,-0.022102853,-0.25090435,9.803414,8.5216016e-05,0.0013406277,0.00058460236,-7.6293945e-05,1.5258789e-05,0.00012207031
2019-07-01T19:10:55.686Z,-0.01227569,0.003685898,-0.20258495,-0.021530151,-0.25602722,9.7986145,-6.335449,15.913391,-44.630432,-0.022011817,-0.25039962,9.803428,0.0004815925,0.0017873347,-0.00072193146,-0.00019836426,1.5258789e-05,0.00024414062
2019-07-01T19:10:55.884Z,-0.012270673,0.0036641383,-0.2025264,-0.01914978,-0.24645996,9.800995,-5.2093506,15.838623,-44.010925,-0.021628829,-0.25021556,9.803433,0.0012896694,-6.502867e-05,0.0007972717,-0.0001373291,7.6293945e-05,-6.1035156e-05
2019-07-01T19:10:56.085Z,-0.012286957,0.0036371448,-0.20246582,-0.03111267,-0.2536316,9.810577,-5.961609,15.283203,-44.47174,-0.02106122,-0.25041974,9.80343,0.001194613,-0.00033921003,-0.00042438507,0.00010681152,0.0001373291,0.0
2019-07-01T19:10:56.292Z,-0.012291128,0.0037247,-0.20269282,-0.01914978,-0.24645996,9.796219,-6.1920166,15.483093,-44.2688,-0.022668015,-0.2508527,9.803415,-0.0026896317,-0.0010884702,0.00178051,-1.5258789e-05,7.6293945e-05,0.0
2019-07-01T19:10:56.495Z,-0.012290878,0.0037225094,-0.20268707,-0.01914978,-0.2536316,9.800995,-5.7495117,16.31012,-43.667603,-0.022628412,-0.25083908,9.803416,-0.00010481849,-0.00038591027,-8.869171e-05,0.00010681152,1.5258789e-05,-0.00012207031
2019-07-01T19:10:56.697Z,-0.0122580975,0.0037229944,-0.20267077,-0.028717041,-0.24645996,9.800995,-5.6777954,16.249084,-44.51294,-0.022772234,-0.25021115,9.803431,-0.00043632463,0.0011273324,-0.0019731522,4.5776367e-05,-4.5776367e-05,6.1035156e-05
2019-07-01T19:10:56.898Z,-0.012245683,0.0037547676,-0.20274568,-0.023925781,-0.25125122,9.805786,-5.064392,15.332031,-43.36548,-0.023412645,-0.25010085,9.803432,-0.0007578451,0.00029316545,-0.00052165985,4.5776367e-05,1.5258789e-05,0.00016784668
2019-07-01T19:10:57.102Z,-0.012264459,0.0037444334,-0.20272921,-0.026321411,-0.24885559,9.805786,-5.342102,16.410828,-43.888855,-0.023143714,-0.2504199,9.803425,0.00017884187,-0.00034728646,0.00013256073,-7.6293945e-05,7.6293945e-05,0.0
2019-07-01T19:10:57.310Z,-0.012296442,0.0037452492,-0.20274842,-0.01914978,-0.2536316,9.8033905,-6.5612793,15.9591675,-43.025208,-0.02302726,-0.25103772,9.80341,0.00029142015,-0.0016504824,8.4877014e-05,-1.5258789e-05,-4.5776367e-05,-6.1035156e-05
2019-07-01T19:10:57.511Z,-0.01226565,0.003695443,-0.20260409,-0.01675415,-0.24645996,9.800995,-6.5078735,15.609741,-44.5343,-0.022230143,-0.25024518,9.8034315,0.0023635123,0.001866132,0.0005378723,0.00010681152,7.6293945e-05,6.1035156e-05
2019-07-01T19:10:57.709Z,-0.012234255,0.0036695823,-0.20252092,-0.01675415,-0.24885559,9.800995,-6.6223145,14.872742,-44.526672,-0.021879476,-0.24953772,9.80345,0.00035141595,0.0016673058,0.0016431808,-7.6293945e-05,7.6293945e-05,0.00012207031
2019-07-01T19:10:57.912Z,-0.012245533,0.003701502,-0.20260888,-0.023925781,-0.25602722,9.800995,-6.562805,15.957642,-42.874146,-0.022425238,-0.24988307,9.80344,-0.00078142993,-0.00062923133,-0.00018596649,-1.5258789e-05,1.5258789e-05,-6.1035156e-05
2019-07-01T19:10:58.122Z,-0.012225105,0.0037194288,-0.20264396,-0.021530151,-0.25842285,9.800995,-5.506897,14.961243,-46.365356,-0.022862753,-0.25060374,9.803421,0.00035094097,0.0014313459,-8.392334e-05,4.5776367e-05,0.00019836426,0.0
2019-07-01T19:10:58.333Z,-0.012229164,0.0037240437,-0.20265798,-0.01914978,-0.25842285,9.7986145,-5.795288,15.289307,-43.873596,-0.022910684,-0.24965948,9.803445,-6.791204e-05,-0.00061799586,0.00041866302,0.00016784668,7.6293945e-05,0.00012207031
2019-07-01T19:10:58.523Z,-0.012286743,0.003680237,-0.20257634,-0.026321411,-0.23928833,9.810577,-5.755615,15.785217,-41.584778,-0.02186138,-0.25058916,9.803423,0.0017677154,-0.0018274486,0.0009202957,0.00010681152,-9.1552734e-05,0.00012207031
2019-07-01T19:10:58.720Z,-0.01230072,0.0036924968,-0.20261529,-0.01914978,-0.2536316,9.7986145,-5.859375,15.724182,-44.233704,-0.0220313,-0.25090715,9.803415,-0.00070266426,-0.0007984936,-0.00050735474,-7.6293945e-05,-4.5776367e-05,0.00012207031
2019-07-01T19:10:58.929Z,-0.012307982,0.0037048475,-0.20265087,-0.026321411,-0.24406433,9.810577,-5.5633545,15.238953,-44.874573,-0.022230497,-0.25109646,9.80341,-0.0005016476,-0.0008329153,0.0015707016,0.00010681152,-0.00021362305,0.00012207031
2019-07-01T19:10:59.131Z,-0.012297702,0.0037300074,-0.20270997,-0.01675415,-0.24885559,9.800995,-4.5303345,15.0177,-45.26367,-0.022739403,-0.2510004,9.803411,-0.0009395238,0.00026741624,-0.0007019043,0.00016784668,0.0001373291,6.1035156e-05
2019-07-01T19:10:59.336Z,-0.0122719705,0.0037167547,-0.20266217,-0.026321411,-0.25602722,9.8033905,-6.5719604,15.892029,-43.867493,-0.022599442,-0.25045255,9.803425,0.0008278247,0.0011535585,1.04904175e-05,-0.0001373291,1.5258789e-05,0.000289917
2019-07-01T19:10:59.540Z,-0.012277512,0.003717543,-0.20266716,-0.021530151,-0.2536316,9.810577,-5.670166,16.394043,-44.483948,-0.022591278,-0.25056222,9.803423,-0.00014127232,6.1929226e-05,0.00032520294,-1.5258789e-05,0.0001373291,0.00012207031
2019-07-01T19:10:59.734Z,-0.012308526,0.003681938,-0.20259236,-0.028717041,-0.25125122,9.810577,-5.078125,15.344238,-45.17517,-0.021803372,-0.2510146,9.803413,0.0009951834,-0.001127392,0.0016489029,-1.5258789e-05,-0.00021362305,0.00018310547
2019-07-01T19:10:59.949Z,-0.01227932,0.003701558,-0.2026271,-0.01914978,-0.24406433,9.808182,-5.609131,15.962219,-44.65027,-0.02228736,-0.2505325,9.803425,-0.0009160228,0.0005455911,0.00030231476,0.00010681152,-4.5776367e-05,0.0
2019-07-01T19:11:00.147Z,-0.012267881,0.0036993227,-0.20261525,-0.026321411,-0.24885559,9.810577,-5.3466797,16.567993,-45.368958,-0.02229293,-0.2503037,9.80343,4.9801543e-05,0.00030490756,-0.00091838837,-1.5258789e-05,1.5258789e-05,6.1035156e-05
2019-07-01T19:11:00.352Z,-0.012246498,0.003704675,-0.20261754,-0.01914978,-0.2536316,9.805786,-5.9692383,15.138245,-44.952393,-0.022480126,-0.24991441,9.803439,-0.00072517805,0.0006226301,-0.00077724457,0.00016784668,-9.1552734e-05,-6.1035156e-05
2019-07-01T19:11:00.611Z,-0.012263371,0.0037156474,-0.20265473,-0.01675415,-0.25602722,9.800995,-5.041504,15.995789,-44.288635,-0.022614272,-0.25028288,9.803431,-0.0010793228,-0.00044348836,-3.8146973e-05,-7.6293945e-05,-0.00015258789,0.0
2019-07-01T19:11:00.809Z,-0.012308625,0.0036983173,-0.20263445,-0.023925781,-0.25125122,9.8033905,-5.19104,16.352844,-44.587708,-0.022106748,-0.25108248,9.803411,0.0010534003,-0.0013159811,0.00045490265,-0.0001373291,-9.1552734e-05,-0.0001373291
2019-07-01T19:11:01.010Z,-0.012306113,0.0037052985,-0.20265104,-0.021530151,-0.25602722,9.800995,-5.3131104,16.992188,-43.392944,-0.022246549,-0.2510624,9.8034115,2.834946e-06,0.0003400743,-0.00017261505,-7.6293945e-05,1.5258789e-05,0.0
2019-07-01T19:11:01.214Z,-0.012340436,0.0037182933,-0.20270276,-0.028717041,-0.24406433,9.808182,-5.4382324,15.965271,-43.44635,-0.022346351,-0.25177422,9.803391,0.00033090077,-0.0013507605,-0.00059223175,4.5776367e-05,0.0001373291,-6.1035156e-05
2019-07-01T19:11:01.415Z,-0.012330292,0.0037369474,-0.20274523,-0.01914978,-0.2536316,9.812973,-5.656433,16.68396,-44.273376,-0.022734012,-0.2516546,9.803394,-0.00023982301,0.00046870112,0.0024871826,-0.0001373291,0.0001373291,0.0
2019-07-01T19:11:01.619Z,-0.012324226,0.0037106655,-0.20267451,-0.026321411,-0.24645996,9.8033905,-5.7647705,15.945435,-43.740845,-0.022271581,-0.25143203,9.803401,0.00074762106,0.00049486756,0.00037670135,-7.6293945e-05,0.0001373291,0.00012207031
2019-07-01T19:11:01.814Z,-0.012263529,0.0037151745,-0.2026536,-0.023925781,-0.23928833,9.812973,-5.7266235,16.899109,-44.2276,-0.022604853,-0.25028402,9.803431,-0.0001279246,0.0026650727,-0.002940178,4.5776367e-05,1.5258789e-05,0.0
2019-07-01T19:11:02.010Z,-0.01221283,0.0036944756,-0.20257336,-0.021530151,-0.25842285,9.812973,-6.6818237,15.380859,-44.573975,-0.022429325,-0.24922638,9.803456,0.0004165098,0.0016386658,0.0025129318,-0.0001373291,7.6293945e-05,0.00012207031
2019-07-01T19:11:02.213Z,-0.012236776,0.0036892346,-0.2025727,-0.021530151,-0.25125122,9.810577,-6.3812256,16.635132,-44.02771,-0.022233676,-0.24966538,9.803447,0.0007084813,-0.0010418892,-0.0005636215,0.00010681152,1.5258789e-05,6.1035156e-05
2019-07-01T19:11:02.429Z,-0.012242797,0.0036654477,-0.20251487,-0.023925781,-0.2536316,9.800995,-5.522156,15.962219,-43.896484,-0.021767674,-0.24968521,9.803447,0.00096214004,-0.00027506053,0.002339363,0.00010681152,1.5258789e-05,0.00018310547
2019-07-01T19:11:02.631Z,-0.012252326,0.0036913953,-0.20258658,-0.021530151,-0.25602722,9.7986145,-5.0735474,15.339661,-44.570923,-0.022209834,-0.24997285,9.803438,-0.0012371615,-8.076429e-06,-0.0016298294,-1.5258789e-05,1.5258789e-05,-0.00032043457
2019-07-01T19:11:02.831Z,-0.0122860875,0.0037007232,-0.20262858,-0.01914978,-0.25125122,9.805786,-5.415344,16.473389,-43.118286,-0.021253016,-0.2502236,9.803434,0.0011605173,0.0009341836,-0.00014400482,-7.6293945e-05,-4.5776367e-05,6.1035156e-05
2019-07-01T19:11:03.058Z,-0.012268271,0.0036079125,-0.20238078,-0.021530151,-0.24885559,9.8033905,-6.6085815,15.162659,-44.317627,-0.020595731,-0.24994309,9.803443,0.00097520277,0.00064207613,-0.00088977814,0.00010681152,-4.5776367e-05,6.1035156e-05
2019-07-01T19:11:03.249Z,-0.012273235,0.003652414,-0.20249769,-0.01675415,-0.25125122,9.817749,-5.6610107,16.386414,-43.351746,-0.021400826,-0.25021756,9.803433,-0.0010875072,-3.5852194e-05,0.0006933212,-7.6293945e-05,-9.1552734e-05,0.00012207031
2019-07-01T19:11:03.502Z,-0.012286122,0.0036542588,-0.20250931,-0.026321411,-0.25602722,9.810577,-6.425476,15.838623,-45.32013,-0.021382088,-0.2504726,9.803428,0.00032964908,-0.0011966825,0.0014133453,-0.0001373291,1.5258789e-05,-0.00012207031
2019-07-01T19:11:03.697Z,-0.012296198,0.003716267,-0.20267388,-0.026321411,-0.24885559,9.7986145,-6.504822,17.274475,-42.985535,-0.022490751,-0.2509161,9.803413,-0.0023939554,-0.0005374849,-0.0022497177,0.00022888184,1.5258789e-05,0.00012207031
2019-07-01T19:11:03.900Z,-0.012310568,0.003712017,-0.20267066,-0.021530151,-0.25602722,9.8033905,-4.550171,16.098022,-43.684387,-0.022352826,-0.25117508,9.803408,0.0008119028,-0.0007428825,0.0018453598,-7.6293945e-05,0.0001373291,-6.1035156e-05
2019-07-01T19:11:04.101Z,-0.012279939,0.0036673741,-0.20253967,-0.023925781,-0.24406433,9.808182,-6.1431885,16.503906,-43.91327,-0.021650767,-0.25040665,9.80343,0.001070546,0.0018401742,-0.0003643036,-1.5258789e-05,1.5258789e-05,0.00012207031
2019-07-01T19:11:04.297Z,-0.012272795,0.0037082622,-0.20264082,-0.026321411,-0.25602722,9.808182,-6.6329956,16.400146,-44.14215,-0.02243854,-0.25043416,9.803427,-0.002198996,-2.425909e-05,0.0012016296,-7.6293945e-05,-9.1552734e-05,-7.6293945e-05
2019-07-01T19:11:04.508Z,-0.012305811,0.0037347272,-0.20272642,-0.028717041,-0.25125122,9.805786,-6.239319,16.131592,-43.75763,-0.02279357,-0.25117528,9.803407,-0.00065290555,-0.0014410317,0.0006389618,-1.5258789e-05,-0.00015258789,-0.00012207031
2019-07-01T19:11:04.711Z,-0.012295952,0.0036893694,-0.20260471,-0.021530151,-0.25125122,9.8033905,-6.465149,16.40625,-43.39142,-0.021992901,-0.25080293,9.803418,0.0014142338,0.00081917644,-0.00052928925,-1.5258789e-05,-9.1552734e-05,0.0
2019-07-01T19:11:04.910Z,-0.012275022,0.0036950118,-0.20260799,-0.021530151,-0.24885559,9.7986145,-6.3980103,16.119385,-43.37616,-0.022183608,-0.25042352,9.803427,-0.00030512176,0.00040850043,-0.0024309158,0.00010681152,7.6293945e-05,-0.00012207031
2019-07-01T19:11:05.111Z,-0.012287466,0.0036666412,-0.20254181,-0.021530151,-0.2536316,9.805786,-6.349182,15.620422,-44.68994,-0.021606239,-0.2505483,9.803426,0.0010249447,-0.00089916587,0.00012302399,4.5776367e-05,-4.5776367e-05,6.1035156e-05
2019-07-01T19:11:05.316Z,-0.012272089,0.0036411765,-0.20246822,-0.033493042,-0.2416687,9.805786,-6.1935425,15.332031,-43.618774,-0.02119709,-0.25015026,9.803435,0.0013333354,0.00014209747,0.00040245056,0.00016784668,7.6293945e-05,-0.00012207031
2019-07-01T19:11:05.512Z,-0.01228694,0.0037027404,-0.20263422,-0.01675415,-0.24885559,9.7986145,-5.41687,16.552734,-43.85681,-0.022277953,-0.25068367,9.80342,-0.0016446915,-0.0005322397,-0.00020503998,0.00010681152,0.00019836426,-6.1035156e-05
2019-07-01T19:11:05.732Z,-0.012306387,0.0036617222,-0.20253931,-0.021530151,-0.25602722,9.796219,-6.50177,15.7547,-44.126892,-0.02143723,-0.250892,9.803416,0.001343241,-0.00056657195,-0.0010948181,-0.0001373291,1.5258789e-05,-0.00012207031
2019-07-01T19:11:05.921Z,-0.012347688,0.0036695665,-0.20258154,-0.01914978,-0.24885559,9.808182,-6.791687,16.540527,-44.633484,-0.021412918,-0.25171718,9.803396,0.000115508214,-0.0016401708,0.0018138885,0.00010681152,-4.5776367e-05,0.00012207031
2019-07-01T19:11:06.135Z,-0.012334365,0.003654206,-0.20253497,-0.021530151,-0.2536316,9.810577,-6.199646,15.338135,-44.52362,-0.021182828,-0.25139934,9.803405,-0.00011401437,0.00044479966,0.00057697296,-1.5258789e-05,-4.5776367e-05,0.00024414062
2019-07-01T19:11:06.331Z,-0.012308849,0.0036902546,-0.20261388,-0.023925781,-0.24885559,9.796219,-6.503296,15.757751,-44.654846,-0.02195629,-0.2510543,9.8034115,-0.00077643245,8.007884e-05,-0.0015325546,-1.5258789e-05,-4.5776367e-05,0.0
2019-07-01T19:11:06.538Z,-0.012307442,0.0036787565,-0.20258361,-0.023925781,-0.25842285,9.8033905,-6.564331,16.186523,-44.337463,-0.021748822,-0.2509809,9.803413,0.00022055954,-0.0004774034,-0.00087451935,0.00022888184,7.6293945e-05,-6.1035156e-05
2019-07-01T19:11:06.740Z,-0.012338813,0.0036745663,-0.20258963,-0.021530151,-0.25125122,9.805786,-5.621338,15.592957,-44.119263,-0.021542126,-0.2515668,9.803399,0.00024283864,-0.0020569265,5.054474e-05,0.00022888184,1.5258789e-05,-7.6293945e-05
2019-07-01T19:11:06.942Z,-0.012314217,0.0036884388,-0.20261209,-0.023925781,-0.24645996,9.808182,-5.949402,15.423584,-43.914795,-0.021900538,-0.25115013,9.80341,-0.0005883407,0.00017261505,0.00050640106,0.00022888184,-4.5776367e-05,0.00012207031
2019-07-01T19:11:07.135Z,-0.012274933,0.0036824367,-0.20257567,-0.021530151,-0.2536316,9.805786,-5.130005,15.9210205,-44.602966,-0.02195073,-0.25037113,9.803429,0.00018114224,0.0015691817,0.0019350052,4.5776367e-05,3.0517578e-05,0.0
2019-07-01T19:11:07.345Z,-0.012280495,0.0036896006,-0.20259704,-0.021530151,-0.2416687,9.800995,-4.876709,16.152954,-44.413757,-0.022060744,-0.25050688,9.803426,0.00076423027,-0.00091922283,2.861023e-06,-1.5258789e-05,0.0001373291,-0.0002593994
2019-07-01T19:11:07.547Z,-0.012253535,0.0036378754,-0.20244983,-0.026321411,-0.2536316,9.8033905,-6.1813354,15.625,-43.788147,-0.021212084,-0.2497805,9.803446,0.0008783769,0.0014716387,0.0015993118,0.00022888184,7.6293945e-05,-6.1035156e-05
