timestamp,rotationVector_x,rotationVector_y,rotationVector_z,accelerometer_x,accelerometer_y,accelerometer_z,magneticField_x,magneticField_y,magneticField_z,gravity_x,gravity_y,gravity_z,linearAcceleration_x,linearAcceleration_y,linearAcceleration_z,gyroscope_x,gyroscope_y,gyroscope_z
2019-07-01T18:51:47.483Z,0.12828407,0.122317,0.09981136,-1.0980682,2.2157593,8.443787,16.529846,5.6289673,-43.634033,-2.0977461,2.702917,9.190434,0.8984109,-0.35667682,-0.3029871,0.11981201,-0.26667786,-0.55397034
2019-07-01T18:51:47.537Z,0.11022663,0.10403159,0.1159944,-1.611084,2.9240265,9.417679,14.527893,6.9992065,-39.953613,-1.7521257,2.358842,9.356084,0.09424722,0.6281829,0.31147003,-0.34126282,-0.13961792,0.016647339
2019-07-01T18:51:47.746Z,0.08666533,0.05000548,0.13281798,-0.1375885,2.4016724,9.480835,11.117554,10.209656,-41.197205,-0.74135417,1.8063914,9.610293,0.58748657,0.6349468,0.081570625,-0.41487122,-0.4205475,0.05140686
2019-07-01T18:51:47.946Z,0.08378599,0.052912217,0.12629832,-0.89419556,2.3203278,9.650497,9.90448,11.878967,-41.33606,-0.816775,1.7530768,9.614052,-0.08944392,0.59305716,0.17796993,-0.09649658,0.019577026,-0.06629944
2019-07-01T18:51:48.151Z,0.0935591,0.06888739,0.15511675,-1.0018768,2.2913666,9.677292,11.552429,10.8932495,-41.075134,-1.0408528,2.0097914,9.541895,0.029473782,0.29992306,0.22250748,0.08982849,0.16459656,0.20454407
2019-07-01T18:51:48.356Z,0.07834571,0.034652933,0.18575667,-0.61686707,0.49388123,10.514069,11.705017,10.377502,-39.14795,-0.37984943,1.630376,9.66271,-0.2364206,-1.1390573,0.83617115,-0.111083984,-0.315979,0.26332092
2019-07-01T18:51:48.561Z,0.060104426,0.016906114,0.18655886,-0.14883423,0.3014984,9.264053,7.7835083,9.176636,-39.987183,-0.10518061,1.2176689,9.73019,-0.044287995,-0.90882623,-0.40745068,-0.15361023,-0.15104675,-0.024520874
2019-07-01T18:51:48.766Z,0.054456312,0.022239685,0.1343453,-0.5773926,0.7515869,9.385132,5.57251,10.047913,-39.793396,-0.2879872,1.1151197,9.738786,-0.29220656,-0.3526864,-0.2589283,-0.024719238,0.016342163,-0.49720764
2019-07-01T18:51:48.970Z,0.046808556,0.009843025,0.08565739,-0.2280426,0.8841553,10.071625,4.823303,11.157227,-38.62915,-0.11348338,0.9301778,9.761776,-0.115199365,-0.040775478,0.364913,-0.081100464,-0.14859009,-0.48101807
2019-07-01T18:51:49.177Z,0.055776272,0.0041928757,-0.004144327,0.051452637,0.27230835,9.820862,1.6433716,12.191772,-39.723206,-0.08664039,1.0918939,9.745288,0.1376319,-0.8137742,0.12744045,0.13563538,-0.10467529,-0.92915344
2019-07-01T18:51:49.421Z,0.051122863,0.0029547089,-0.10094705,-0.1552887,0.48718262,9.56723,-0.8514404,11.94458,-38.54065,-0.15879755,0.9903938,9.7552185,0.002411604,-0.49636787,-0.12058258,-0.018600464,-0.069000244,-0.9546356
2019-07-01T18:51:49.585Z,0.05382078,-0.011704061,-0.14285024,0.20864868,0.74464417,10.295364,-3.2333374,10.990906,-39.466858,0.07605578,1.0759503,9.74715,0.13277444,-0.32873797,0.57147884,0.06562805,-0.16123962,-0.4233551
2019-07-01T18:51:49.790Z,0.06857516,-0.009523429,-0.123146325,0.7822113,0.44674683,9.591629,-3.0136108,10.418701,-38.912964,0.019282524,1.3544978,9.712639,0.7630065,-0.90229166,-0.08186245,0.18078613,0.07345581,0.0900116
2019-07-01T18:51:49.997Z,0.07077026,0.01578417,-0.09628876,0.7123413,1.0009155,9.44519,-1.0864258,10.630798,-40.309143,-0.44097498,1.348109,9.703531,1.1505773,-0.3388201,-0.19807053,0.0039367676,0.3068695,0.15959167
2019-07-01T18:51:50.065Z,0.07071085,0.011974503,-0.003110656,-0.2720642,0.17324829,9.240845,1.9088745,9.608459,-42.52777,-0.23856772,1.3825648,9.705771,-0.03585002,-1.195677,-0.3691759,0.019500732,0.029830933,0.950119
2019-07-01T18:51:50.283Z,0.012080811,-0.013569505,0.13007182,1.0415955,0.92674255,10.883759,4.324341,15.167236,-43.003845,0.29465726,0.2002745,9.800176,0.7477008,0.7269864,1.1089478,-0.6378479,-0.14486694,1.239914
2019-07-01T18:51:50.467Z,0.011683391,-0.028053168,0.1727803,0.022964478,0.70635986,10.030228,3.640747,16.522217,-44.96765,0.58127475,0.13052973,9.788537,-0.55759364,0.57599103,0.25375843,-0.03289795,-0.16319275,0.4931183
2019-07-01T18:51:50.668Z,0.020305028,-0.0052993535,0.18703915,-0.3254242,-0.015075684,9.062576,5.302429,15.678406,-44.148254,0.17656834,0.37169078,9.798013,-0.50106657,-0.3848172,-0.6840534,0.14413452,0.19917297,0.1613617
2019-07-01T18:51:50.872Z,0.035099443,0.009445141,0.18187405,0.15505981,1.2478638,9.715332,6.944275,16.595459,-45.08667,-0.056831274,0.710164,9.780738,0.21159972,0.5413407,-0.015260696,0.16122437,0.1242218,-0.04284668
2019-07-01T18:51:51.062Z,0.023630101,-0.0115598785,0.20820913,0.17826843,2.0683594,10.084305,5.932617,19.075012,-44.467163,0.31817576,0.40593645,9.793077,-0.13892171,1.6636804,0.32156372,-0.1990509,-0.1798706,0.3469391
2019-07-01T18:51:51.274Z,0.016515864,-0.00940668,0.23884091,0.06341553,1.6749725,9.933563,8.349609,20.602417,-41.91284,0.25649005,0.27043018,9.799565,-0.19253188,1.4051145,0.15473175,-0.095214844,0.038269043,0.40490723
2019-07-01T18:51:51.468Z,0.002394351,-0.029835822,0.29424593,-0.056228638,1.0377655,9.552383,9.092712,20.785522,-40.62195,0.57281667,-0.12732638,9.789078,-0.6270389,1.1646459,-0.20240593,-0.209198,-0.17755127,0.6907959
2019-07-01T18:51:51.671Z,0.005239622,-0.0051654526,0.35308155,0.5024872,1.1935425,9.330093,13.668823,18.984985,-41.85486,0.1310683,0.06037315,9.805589,0.37216735,1.133514,-0.41949844,0.094955444,0.23135376,0.6921997
2019-07-01T18:51:51.873Z,0.00089269213,0.018646125,0.40507978,0.13568115,1.4854584,9.832108,18.588257,15.292358,-40.39154,-0.32720158,0.16414703,9.799815,0.4611638,1.3221737,0.08377552,0.010772705,0.25610352,0.6427307
2019-07-01T18:51:52.068Z,0.021873245,0.01819644,0.41931602,0.35437012,1.2308655,9.624405,17.233276,11.923218,-40.646362,-0.14395268,0.5389287,9.7907715,0.49750355,0.6950039,-0.11064625,0.16929626,-0.077194214,0.17962646
2019-07-01T18:51:52.265Z,-0.038272772,0.008233639,0.36943522,0.90615845,-0.6316986,10.785416,17.256165,15.698242,-38.368225,-0.42724988,-0.6372724,9.776591,1.3331506,0.005189419,1.0147219,-0.5920868,0.18792725,-0.6106415
2019-07-01T18:51:52.472Z,0.018137943,0.039145745,0.29592013,0.22421265,0.13041687,9.235092,14.805603,13.284302,-39.73999,-0.62737006,0.566666,9.770143,0.8492556,-0.43414718,-0.4988098,0.6846924,0.14328003,-0.85621643
2019-07-01T18:51:52.672Z,0.036150306,0.017314168,0.21085267,1.2093353,0.41706848,9.7495575,9.432983,10.241699,-40.89508,-0.18217391,0.76410645,9.775139,1.3907893,-0.3440181,0.013051033,0.16221619,-0.2693634,-0.9779053
2019-07-01T18:51:52.871Z,0.020799711,-0.0026452865,0.173723,-0.6431885,0.39697266,11.23645,3.3798218,11.204529,-38.259888,0.12195279,0.39264363,9.798028,-0.7655701,0.0029482245,1.403966,-0.18946838,-0.20602417,-0.3794403
2019-07-01T18:51:53.061Z,0.035425346,-0.01079632,0.10573804,0.007904053,0.27876282,8.369858,-1.663208,15.005493,-35.995483,0.28388593,0.6680433,9.77975,-0.2748447,-0.3866045,-1.370717,0.13490295,-0.12452698,-0.6752777
2019-07-01T18:51:53.263Z,0.016925119,-0.060930252,0.05297327,0.7187958,1.4483795,9.344208,-6.8756104,16.751099,-33.161926,1.2085551,0.26752067,9.728218,-0.4826126,1.1824408,-0.32648277,-0.2683258,-0.5158539,-0.40734863
2019-07-01T18:51:53.462Z,0.0566119,-0.03184149,0.009074569,1.2303925,0.75971985,10.440598,-5.5496216,16.27655,-35.954285,0.63324815,1.1022886,9.7239065,0.5984114,-0.34036326,0.7361479,0.4020996,0.2895813,-0.4312439
2019-07-01T18:51:53.661Z,0.045298517,0.02674044,0.0003178292,0.517334,0.48861694,9.037689,-4.7821045,17.276001,-36.009216,-0.52345973,0.88738996,9.752379,1.0376494,-0.39344263,-0.65610886,-0.107299805,0.61779785,-0.11779785
2019-07-01T18:51:53.911Z,0.04507079,0.049188256,0.04282479,-0.14213562,0.96406555,9.517212,0.05645752,19.044495,-34.565735,-0.92385113,0.92251974,9.719355,0.7751638,0.048088074,-0.1332159,-0.028686523,0.27687073,0.516098
2019-07-01T18:51:54.102Z,0.047827274,0.03830843,0.1343777,-1.639801,0.80973816,10.869644,3.1585693,18.379211,-34.90143,-0.6170621,1.0287291,9.733003,-1.0232258,-0.21817923,1.1443205,-0.018539429,-0.0834198,1.0181732
2019-07-01T18:51:54.299Z,0.047021896,0.062377706,0.19645287,-1.5608368,0.70277405,9.853409,5.281067,17.433167,-35.9375,-1.0145994,1.1417553,9.686969,-0.5461259,-0.4391067,0.16537666,0.020004272,0.27113342,0.6929321
2019-07-01T18:51:54.496Z,0.045366965,0.073829524,0.2040577,-0.8003998,1.5603638,8.804871,4.0512085,15.322876,-37.374878,-1.2304382,1.1631383,9.659375,0.4248376,0.40214193,-0.8136749,-0.024047852,0.14523315,0.19068909
2019-07-01T18:51:54.662Z,0.08426528,0.01256496,0.22028424,-1.5720825,0.9834442,9.839294,-2.558899,13.514709,-39.283752,0.12460017,1.6602483,9.664287,-1.3012773,-0.6278515,0.043013573,0.26031494,-0.7075958,0.27851868
2019-07-01T18:51:54.863Z,0.0576698,0.009043619,0.19392622,0.6460571,1.8137665,8.530411,-7.0907593,13.302612,-41.630554,0.045649372,1.1420541,9.739817,-0.09328827,-0.31957972,0.043869972,-0.26472473,0.025314331,-0.095443726
2019-07-01T18:51:55.069Z,0.05480928,0.008932415,0.19329807,0.68673706,1.6917267,11.42334,-9.3688965,12.561035,-40.559387,0.036179204,1.0868905,9.746165,0.15331663,0.7984946,-0.3844309,-0.050979614,0.03466797,0.23716736
2019-07-01T18:51:55.272Z,0.082201615,0.034344327,0.21166563,-1.2299042,1.2131653,6.5970154,-6.364441,13.4262085,-41.789246,-0.31434557,1.7117343,9.650987,0.057021588,0.092793345,0.6802006,0.32237244,0.24882507,0.44773865
2019-07-01T18:51:55.471Z,0.05387585,0.02689856,0.22392894,-0.026321411,1.208374,9.28894,-4.8843384,15.852356,-41.20331,-0.27656782,1.1460197,9.73553,-1.3821887,-0.1940831,0.10642433,-0.3050995,0.015975952,0.4664917
2019-07-01T18:51:55.670Z,0.045206897,0.017745592,0.2388364,-1.3495483,1.076767,10.042679,-0.642395,18.89801,-40.304565,-0.12578821,0.943046,9.760391,-0.08190827,0.2254315,-0.7165737,-0.12312317,-0.036071777,0.434906
2019-07-01T18:51:55.876Z,0.07246386,0.03515628,0.23304527,-0.8063812,1.1844482,9.485153,3.6621094,16.34674,-41.37726,-0.33702442,1.5380659,9.6794195,-0.3626392,-0.52380395,0.4709654,0.3249359,0.11846924,0.15660095
2019-07-01T18:51:56.078Z,0.04269712,0.026308803,0.23667769,-0.62213135,1.8664093,8.080566,8.106995,16.33606,-39.071655,-0.3024722,0.9346801,9.7573185,-0.43057135,-0.32536417,0.90106297,-0.3108368,-0.002960205,0.19000244
2019-07-01T18:51:56.276Z,0.0644329,0.03324315,0.27678588,-0.81355286,2.617752,9.274582,10.610962,13.005066,-39.398193,-0.27496323,1.3913743,9.703548,-0.23026785,0.37198043,-1.1662188,0.20930481,0.035705566,0.5125427
2019-07-01T18:51:56.483Z,0.08950487,0.03948549,0.32991016,-2.6105652,1.8999023,11.54776,13.887024,9.002686,-40.574646,-0.14799285,1.9037739,9.618947,-0.33784938,0.2917037,0.084466934,0.24864197,0.031661987,0.6341095
2019-07-01T18:51:56.683Z,0.07678914,0.048577838,0.3907111,-1.9621124,2.4430695,9.710068,15.72876,7.0892334,-41.192627,-0.28431028,1.751862,9.644714,-1.3775764,0.2283802,0.62349606,-0.09484863,0.17216492,0.707901
2019-07-01T18:51:56.888Z,0.10605343,0.052404188,0.4446744,-2.2947235,1.3208313,6.7908325,17.567444,1.5350342,-42.47284,0.012402994,2.3038163,9.53219,-0.8616319,-0.42009664,0.40157986,0.29605103,-0.048721313,0.6440582
2019-07-01T18:51:57.095Z,0.091977924,0.058329556,0.4919981,1.3543396,-0.8805542,7.922638,16.445923,1.5274048,-41.749573,-0.10060796,2.121072,9.573992,-0.7647134,-1.0286691,-1.0888786,-0.075424194,0.15585327,0.48823547
2019-07-01T18:51:57.296Z,0.023733728,0.01763016,0.5351607,-0.26560974,0.55274963,8.252853,18.215942,3.779602,-44.232178,-0.04280794,0.57803845,9.789506,-0.34479496,-0.6347734,-0.8494148,-0.7964783,0.032287598,0.46936035
2019-07-01T18:51:57.497Z,0.022914557,0.022477183,0.5735019,0.76091003,-1.557724,10.291534,16.233826,2.4734497,-43.359375,-0.10312128,0.6207216,9.786442,-0.32381058,-0.15330946,-0.7581978,0.022323608,0.043029785,0.43478394
2019-07-01T18:51:57.703Z,-0.014977303,0.006418077,0.63533807,0.39482117,-2.9551392,10.468597,15.0177,4.295349,-44.296265,-0.28382027,-0.14682049,9.801443,0.08495718,-0.3381806,-0.3189373,-0.40296936,0.11779785,0.7524414
2019-07-01T18:51:57.908Z,-0.07171347,-0.043301057,0.66673344,-0.73220825,-2.8498535,10.164719,14.0060425,9.663391,-49.430847,-0.3088342,-1.6078852,9.669007,-0.28231144,-1.3754126,0.5345526,-0.4514618,0.091293335,0.3881073
2019-07-01T18:51:58.121Z,-0.029564697,0.0061758393,0.66680014,0.5144501,-2.9694977,9.190826,12.567139,16.697693,-56.925964,-0.4768469,-0.3510103,9.788759,0.67334735,-1.1806593,0.52785015,-0.26435852,-0.10070801,-0.01524353
2019-07-01T18:51:58.313Z,-0.009494098,0.0011436462,0.65714765,0.124420166,-0.033493042,9.88475,14.338684,11.123657,-56.243896,-0.13927387,-0.12560688,9.804856,0.07267234,0.11476815,0.16784191,0.112854004,-0.17364502,0.02960205
2019-07-01T18:51:58.518Z,-0.009008005,0.00088359637,0.643648,0.100494385,-0.098098755,9.817749,12.72583,11.3220215,-57.798767,-0.12697989,-0.124050476,9.805043,0.23865087,0.06464152,0.0005722046,-0.0009613037,0.0001373291,0.00033569336
2019-07-01T18:51:58.720Z,-0.008494172,0.00062260445,0.62992525,0.1268158,-0.035888672,9.820145,12.837219,11.830139,-56.944275,-0.114428185,-0.12168988,9.805227,0.22850457,0.055113696,0.008284569,-0.000289917,-0.0002746582,0.000579834
2019-07-01T18:51:58.925Z,-0.008047575,0.00035925675,0.6174772,0.098098755,-0.08135986,9.7986145,12.31842,11.216736,-57.502747,-0.10300447,-0.11979741,9.805377,0.21397384,0.061827995,0.002869606,-0.0007171631,-9.1552734e-05,0.0008392334
2019-07-01T18:51:59.132Z,-0.005053506,-0.0019177999,0.6049199,0.124420166,-0.028717041,9.815353,12.013245,11.637878,-58.08258,-0.030006064,-0.10167652,9.806076,0.14605471,0.037510954,0.0052757263,-0.00035095215,3.0517578e-05,0.0005950928
2019-07-01T18:51:59.351Z,-0.0031148808,-0.0033860756,0.58149445,0.112457275,-0.07896423,9.8033905,11.694336,11.309814,-55.947876,0.018503444,-0.08831979,9.806235,0.09684147,0.029204711,0.002732277,-0.00065612793,-4.5776367e-05,0.00064086914
2019-07-01T18:51:59.534Z,-0.0020287656,-0.004425922,0.56157875,0.114852905,-0.026321411,9.812973,12.744141,11.454773,-56.111145,0.04947918,-0.081672184,9.806185,0.06132367,0.014412209,0.00038051605,-0.000289917,-0.00016784668,0.0008392334
2019-07-01T18:51:59.733Z,-0.0011664518,-0.005131997,0.54307485,0.105285645,-0.088531494,9.800995,11.756897,11.25946,-58.000183,0.072092645,-0.07387331,9.806107,0.04444185,0.017885618,0.0024995804,-0.0005950928,-0.00021362305,0.0008392334
2019-07-01T18:51:59.932Z,-0.0007037184,-0.0057144556,0.54367155,0.117248535,-0.052642822,9.805786,13.20343,11.280823,-58.055115,0.086561866,-0.07251827,9.806,0.02830065,0.0050358474,-0.0015201569,-0.0005950928,-0.00016784668,0.00076293945
2019-07-01T18:52:00.131Z,-0.00034369677,-0.0059940373,0.52922255,0.107681274,-0.07896423,9.7986145,12.771606,10.673523,-58.76465,0.09618008,-0.06793641,9.805943,0.018445037,0.010989845,0.0018625259,-0.00047302246,-0.00021362305,0.0005187988
2019-07-01T18:52:00.343Z,-0.0002814397,-0.006210518,0.51816607,0.117248535,-0.052642822,9.800995,13.314819,11.86676,-57.485962,0.101317585,-0.06783815,9.805892,0.009474039,0.0022727698,0.00061893463,-0.0005340576,-0.00021362305,0.000579834
2019-07-01T18:52:00.609Z,-0.00013700969,-0.006313424,0.5054558,0.112457275,-0.047851562,9.800995,13.192749,11.140442,-58.761597,0.10548338,-0.06490772,9.805868,0.007931963,0.0067584664,9.059906e-05,-0.00022888184,-0.00010681152,0.00039672852
2019-07-01T18:52:00.747Z,-0.0001613271,-0.006503787,0.496959,0.119644165,-0.06939697,9.810577,13.40332,10.72998,-60.59265,0.10911832,-0.06613815,9.80582,0.0062222704,9.846687e-05,-0.0005607605,-0.00065612793,-0.0002746582,0.00064086914
2019-07-01T18:52:00.949Z,-9.4167284e-05,-0.006515786,0.4907845,0.112457275,-0.057434082,9.810577,12.628174,11.024475,-58.233643,0.11043673,-0.06432948,9.805818,0.0022572055,0.004992403,0.0012273788,-0.00035095215,-0.00010681152,0.0007019043
2019-07-01T18:52:01.152Z,-0.0002059295,-0.006635248,0.48357767,0.119644165,-0.062210083,9.8033905,13.670349,11.180115,-59.906006,0.11195454,-0.066467576,9.805786,0.0024119392,-0.0022042766,0.0009775162,-0.0005340576,-0.00016784668,0.00045776367
2019-07-01T18:52:01.391Z,-0.00010405637,-0.0066622864,0.47840792,0.114852905,-0.052642822,9.808182,13.926697,11.56311,-60.064697,0.113766074,-0.06430542,9.805779,0.0029938594,0.005934097,0.00034236908,-0.0004119873,-0.00016784668,0.0005187988
2019-07-01T18:52:01.555Z,-0.00022827504,-0.006759746,0.47384742,0.117248535,-0.07417297,9.796219,11.936951,10.037231,-59.010315,0.11462672,-0.06676569,9.805753,0.00069164485,-0.0023738518,0.0011940002,-0.00065612793,-0.0002746582,0.000579834
2019-07-01T18:52:01.765Z,-0.00013999567,-0.0067621414,0.46996757,0.122039795,-0.047851562,9.812973,13.453674,11.520386,-58.54492,0.115774624,-0.0647544,9.805753,0.0014631599,0.004945956,-0.002067566,-0.00022888184,-0.00021362305,0.000579834
2019-07-01T18:52:01.959Z,-0.0002147529,-0.006823289,0.465598,0.119644165,-0.0765686,9.808182,12.730408,11.392212,-57.632446,0.11647196,-0.066037185,9.805736,0.0014786348,-0.00048256665,0.0007009506,-0.0005340576,1.5258789e-05,0.00064086914
2019-07-01T18:52:02.167Z,-0.00011677739,-0.0067593176,0.46529686,0.117248535,-0.04547119,9.810577,12.414551,11.515808,-57.44629,0.11627806,-0.06371287,9.805754,-0.001192838,0.0062852725,-0.00049209595,-0.0004119873,-0.00021362305,0.0009613037
2019-07-01T18:52:02.362Z,-0.00018127778,-0.006786677,0.46545672,0.114852905,-0.062210083,9.808182,13.912964,10.73761,-57.211304,0.11615261,-0.06510328,9.805746,-0.0010654405,-0.0009312257,-0.00032138824,-0.00047302246,-0.00021362305,0.0005187988
2019-07-01T18:52:02.568Z,-0.00016064357,-0.0068129967,0.4654968,0.124420166,-0.055038452,9.805786,12.64801,11.387634,-57.781982,0.11679489,-0.06499066,9.805739,0.00067676604,0.0018309727,0.0018672943,-0.0004119873,-0.00016784668,0.00065612793
2019-07-01T18:52:02.773Z,-0.00019914337,-0.006826594,0.4655851,0.114852905,-0.07417297,9.800995,11.7126465,11.90033,-56.73523,0.116672836,-0.065794736,9.805736,-0.0006362796,1.1131167e-05,0.0001411438,-0.0004119873,-0.00010681152,0.0007019043
2019-07-01T18:52:02.967Z,-0.00014996073,-0.006781268,0.4653996,0.110076904,-0.057434082,9.805786,13.009644,10.462952,-57.684326,0.11634879,-0.06450277,9.805748,-0.0012747198,0.0039686337,0.0002527237,-0.00035095215,-0.00016784668,0.0007019043
2019-07-01T18:52:03.179Z,-0.00014326953,-0.0067798467,0.4653867,0.110076904,-0.071777344,9.8033905,12.980652,11.625671,-57.67212,0.11638613,-0.06437194,9.805748,0.00012499094,0.0004945919,-0.00046253204,-6.1035156e-05,1.5258789e-05,-0.00012207031
2019-07-01T18:52:03.392Z,-0.00013692582,-0.006699015,0.4651677,0.114852905,-0.052642822,9.800995,13.301086,11.650085,-58.058167,0.11505664,-0.06349555,9.80577,-0.0026126131,0.0012927726,-0.0011129379,0.00012207031,1.5258789e-05,6.1035156e-05
2019-07-01T18:52:03.579Z,-0.0001424405,-0.0066689504,0.46509707,0.117248535,-0.06939697,9.810577,12.512207,11.961365,-57.810974,0.114489436,-0.06330786,9.805778,-0.00036624074,-8.547306e-05,-0.000104904175,0.00012207031,0.00019836426,0.00019836426
2019-07-01T18:52:03.784Z,-0.00012188061,-0.0066765826,0.46508867,0.119644165,-0.07417297,9.8033905,13.394165,11.949158,-58.151245,0.114810094,-0.063019425,9.805776,0.0009751022,-0.0001360327,0.002796173,0.00018310547,7.6293945e-05,0.0002593994
2019-07-01T18:52:03.995Z,-0.00012931891,-0.0066849,0.46512052,0.110076904,-0.062210083,9.8033905,12.757874,12.051392,-57.650757,0.114884354,-0.06322857,9.805773,0.0009066239,-0.00040305406,-0.0010080338,0.0,0.00019836426,0.00019836426
2019-07-01T18:52:04.192Z,-0.00013382535,-0.0066577108,0.46505597,0.117248535,-0.06939697,9.805786,12.1521,11.061096,-57.52716,0.114375815,-0.06305044,9.80578,-0.00097356737,0.0003610775,-0.0011501312,0.0,1.5258789e-05,-6.1035156e-05
2019-07-01T18:52:04.398Z,-9.297901e-05,-0.006648737,0.4649765,0.114852905,-0.050247192,9.805786,13.148499,11.8637085,-58.38623,0.114598185,-0.062249098,9.805783,-0.00022216141,0.0002699904,-0.0015172958,0.0,1.5258789e-05,0.00038146973
2019-07-01T18:52:04.597Z,-7.481055e-05,-0.006647044,0.4649471,0.112457275,-0.071777344,9.805786,12.24823,11.434937,-57.759094,0.11473653,-0.061914377,9.805783,0.0005802512,0.00042639673,0.0008993149,6.1035156e-05,7.6293945e-05,-4.5776367e-05
2019-07-01T18:52:04.805Z,-9.3178074e-05,-0.0067071067,0.46512863,0.117248535,-0.062210083,9.808182,13.703918,11.605835,-58.084106,0.115599014,-0.06280473,9.805767,0.0016309619,-0.0015467554,0.0015573502,-6.1035156e-05,-3.0517578e-05,0.00019836426
2019-07-01T18:52:05.002Z,-8.532158e-05,-0.0067178356,0.46514574,0.114852905,-0.06700134,9.810577,12.905884,11.845398,-58.229065,0.115855746,-0.062768444,9.805765,-0.0003047511,8.041412e-05,8.4877014e-05,0.0,-0.00021362305,0.00018310547
2019-07-01T18:52:05.209Z,-0.00011926839,-0.0067789094,0.46535125,0.117248535,-0.052642822,9.810577,11.911011,11.122131,-58.10852,0.1165915,-0.063942075,9.805749,0.0011151284,-0.0023339167,-0.0007457733,0.0,-9.1552734e-05,0.00019836426
2019-07-01T18:52:05.413Z,-9.229923e-05,-0.0067336173,0.46519637,0.114852905,-0.06939697,9.808182,14.080811,10.8932495,-57.037354,0.11606246,-0.063040204,9.80576,-0.0005127266,0.0027485192,0.0009469986,-0.00024414062,0.0001373291,0.00019836426
2019-07-01T18:52:05.613Z,-0.00010197438,-0.006736869,0.46521813,0.114852905,-0.057434082,9.8033905,12.564087,11.2335205,-57.357788,0.116029084,-0.0632407,9.805759,3.3080578e-06,-0.0008778423,0.00094509125,0.00012207031,1.5258789e-05,0.0
2019-07-01T18:52:05.814Z,-0.00010987349,-0.0067035207,0.46514225,0.114852905,-0.06700134,9.805786,12.1536255,11.212158,-58.250427,0.11538348,-0.06306366,9.805768,-0.00077485293,0.00014482439,-0.0017633438,6.1035156e-05,0.0001373291,0.00032043457
2019-07-01T18:52:06.018Z,-6.959331e-05,-0.0067061707,0.46509376,0.105285645,-0.059814453,9.815353,13.209534,11.428833,-58.250427,0.115800396,-0.06238216,9.805769,0.00047455728,0.00089586154,-0.0005340576,0.00012207031,-9.1552734e-05,0.0
2019-07-01T18:52:06.221Z,-5.8257843e-05,-0.0066788876,0.46500722,0.112457275,-0.06700134,9.805786,12.081909,11.425781,-58.28247,0.11543617,-0.06192518,9.805775,-0.0008306578,0.00044219568,0.001077652,0.00012207031,-3.0517578e-05,0.00012207031
2019-07-01T18:52:06.423Z,-9.934547e-05,-0.0067053162,0.46513245,0.117248535,-0.059814453,9.810577,12.272644,12.095642,-58.303833,0.1155114,-0.062895976,9.805768,-0.00091692805,-0.0017019585,-0.00072193146,-6.1035156e-05,-0.0002746582,0.0
2019-07-01T18:52:06.637Z,-5.7558456e-05,-0.006658166,0.46495235,0.110076904,-0.052642822,9.810577,13.691711,11.462402,-58.792114,0.1150866,-0.061716918,9.80578,-0.0012044162,0.0019075125,-0.00079631805,0.00012207031,-9.1552734e-05,0.00032043457
2019-07-01T18:52:06.827Z,-7.153612e-05,-0.0066830874,0.4650364,0.114852905,-0.055038452,9.808182,13.96637,12.133789,-58.06122,0.115385935,-0.06219784,9.805774,0.0011334047,-0.0004940368,0.00042438507,-0.00012207031,0.0001373291,0.0
2019-07-01T18:52:07.027Z,-8.440232e-05,-0.0066689025,0.46501717,0.114852905,-0.06939697,9.805786,12.162781,11.357117,-57.995605,0.11502366,-0.06228936,9.805778,-0.0006565079,-0.000875134,0.00012874603,0.00018310547,1.5258789e-05,0.00032043457
2019-07-01T18:52:07.234Z,-0.00011352016,-0.006688067,0.46510705,0.117248535,-0.06939697,9.812973,12.797546,11.103821,-57.54547,0.11508444,-0.06298142,9.805773,1.2218952e-06,-0.0016180649,-0.00023937225,6.1035156e-05,-3.0517578e-05,0.0
2019-07-01T18:52:07.438Z,-0.00010484726,-0.0066773677,0.4650673,0.114852905,-0.059814453,9.7986145,12.8845215,11.408997,-58.392334,0.114980616,-0.06272807,9.805776,0.00033207238,0.0002810657,0.0003156662,6.1035156e-05,0.0001373291,0.0002593994
2019-07-01T18:52:07.643Z,-0.000108592096,-0.006678558,0.46507552,0.114852905,-0.06700134,9.805786,11.610413,11.459351,-57.196045,0.11496653,-0.06280501,9.805775,-0.00012907386,-0.0010750964,0.00037193298,0.00024414062,-3.0517578e-05,0.00050354004
2019-07-01T18:52:07.843Z,-8.3076244e-05,-0.0066967495,0.4650878,0.114852905,-0.059814453,9.808182,11.679077,11.250305,-57.54547,0.11551424,-0.06252953,9.80577,0.00028295815,0.00032865256,0.00025081635,6.1035156e-05,-0.00021362305,0.00032043457
2019-07-01T18:52:08.048Z,-0.00012978776,-0.006692466,0.46514085,0.112457275,-0.06939697,9.810577,13.131714,11.346436,-57.659912,0.11500998,-0.06330837,9.805771,-0.0023132637,-0.00057759136,-0.0020637512,-0.00024414062,-0.00033569336,0.0005645752
2019-07-01T18:52:08.253Z,-0.00014262513,-0.0066806185,0.46512768,0.119644165,-0.057434082,9.812973,13.43689,11.004639,-57.89337,0.11468813,-0.063421465,9.805774,-9.0919435e-05,-0.00021655113,0.0011758804,0.0,0.0001373291,0.00038146973
2019-07-01T18:52:08.455Z,-0.00010209612,-0.0066884467,0.46509233,0.110076904,-0.059814453,9.808182,13.209534,11.273193,-57.15027,0.11519627,-0.06278461,9.805772,0.0010918304,0.0010553896,0.0004682541,6.1035156e-05,1.5258789e-05,0.00044250488
2019-07-01T18:52:08.655Z,-7.9152946e-05,-0.006693912,0.46507502,0.124420166,-0.06700134,9.815353,13.215637,11.575317,-58.21991,0.11550167,-0.06243386,9.805771,0.0005300492,0.0007111989,0.0020723343,0.0,-3.0517578e-05,0.00050354004
2019-07-01T18:52:08.857Z,-0.000118392585,-0.0067229136,0.46520442,0.107681274,-0.057434082,9.805786,12.666321,11.828613,-57.995605,0.115637995,-0.06339661,9.805763,-8.768588e-05,-0.0016712919,-0.0011796951,-6.1035156e-05,-9.1552734e-05,0.0002593994
2019-07-01T18:52:09.063Z,-0.00015846043,-0.0067073703,0.46521905,0.117248535,-0.06939697,9.805786,12.545776,10.870361,-57.733154,0.11500152,-0.06395233,9.805768,-0.001849547,-0.00039675087,0.00049877167,-0.00018310547,-0.00015258789,0.0002593994
2019-07-01T18:52:09.265Z,-0.00011883686,-0.0067276745,0.4652174,0.117248535,-0.06460571,9.810577,12.95929,11.343384,-59.013367,0.11571565,-0.06344946,9.805761,0.0019755736,0.00029470026,0.0012845993,0.00018310547,0.0001373291,7.6293945e-05
2019-07-01T18:52:09.468Z,-0.00010667041,-0.0066978727,0.46512315,0.119644165,-0.057434082,9.808182,11.936951,11.552429,-57.040405,0.11531602,-0.06295404,9.805771,-0.00025513023,0.00051955134,0.0010156631,0.00012207031,0.0001373291,0.00012207031
2019-07-01T18:52:09.673Z,-6.8334426e-05,-0.006717675,0.46512195,0.117248535,-0.06700134,9.812973,12.411499,11.51886,-57.89795,0.1160096,-0.06246893,9.805764,0.0014492571,0.0012231059,-0.0004415512,-6.1035156e-05,1.5258789e-05,0.00032043457
2019-07-01T18:52:09.877Z,-5.106825e-05,-0.006706069,0.46506804,0.110076904,-0.062210083,9.812973,11.753845,11.180115,-57.562256,0.11596942,-0.062056225,9.805769,-0.0004332289,0.0008255765,2.193451e-05,0.0,-9.1552734e-05,0.0
2019-07-01T18:52:10.074Z,-0.00011004731,-0.00672817,0.4652066,0.117248535,-0.07417297,9.808182,12.605286,10.5911255,-58.84857,0.11580524,-0.06329998,9.805762,-2.69562e-05,-0.002720423,0.00033855438,6.1035156e-05,7.6293945e-05,0.00012207031
2019-07-01T18:52:10.275Z,-0.000118919226,-0.006757733,0.4652957,0.112457275,-0.06700134,9.8033905,12.5442505,10.871887,-57.96051,0.11623109,-0.06373544,9.805755,0.00026660413,-0.001324825,-0.00041389465,0.00012207031,-0.00015258789,0.00032043457
2019-07-01T18:52:10.486Z,-0.00016342437,-0.0067399535,0.46531063,0.114852905,-0.059814453,9.810577,11.587524,11.022949,-57.5119,0.11551521,-0.06434776,9.805758,-0.0009270087,-0.0012078062,-0.00219059,0.0,0.0001373291,6.1035156e-05
2019-07-01T18:52:10.686Z,-0.00016755411,-0.0067319865,0.4652956,0.117248535,-0.06700134,9.8033905,12.297058,10.705566,-57.60498,0.11534031,-0.06434478,9.80576,-3.168732e-05,-0.00024276227,0.0020475388,6.1035156e-05,7.6293945e-05,0.0
2019-07-01T18:52:10.885Z,-0.0001763572,-0.006716275,0.46526682,0.112457275,-0.071777344,9.810577,13.2369995,11.935425,-57.543945,0.114989325,-0.064350486,9.805764,-0.00016840547,-0.00023732334,-8.201599e-05,6.1035156e-05,0.0001373291,0.00019836426
2019-07-01T18:52:11.086Z,-0.00015614227,-0.0067200037,0.46524873,0.114852905,-0.06460571,9.815353,13.156128,11.856079,-57.33185,0.11523984,-0.06403121,9.805764,0.0007904768,0.0011195466,-0.00068569183,-0.00012207031,7.6293945e-05,0.00012207031
2019-07-01T18:52:11.293Z,-0.00013167536,-0.006726215,0.46523124,0.117248535,-0.06460571,9.810577,13.165283,11.997986,-56.92444,0.115572184,-0.063660845,9.805762,0.0009393543,0.0007445216,-0.001414299,0.0,7.6293945e-05,-0.00012207031
2019-07-01T18:52:11.487Z,-0.0001106706,-0.006771938,0.4653213,0.112457275,-0.071777344,9.810577,12.753296,12.055969,-58.255005,0.1165511,-0.06372524,9.80575,0.0016280785,9.7595155e-05,0.0017747879,-6.1035156e-05,-9.1552734e-05,6.1035156e-05
2019-07-01T18:52:11.709Z,-0.00011582046,-0.0067758653,0.4653386,0.117248535,-0.062210083,9.808182,12.419128,11.512756,-56.993103,0.11657103,-0.063852765,9.805749,-0.0005446151,-1.8291175e-05,0.0002193451,-6.1035156e-05,-0.00015258789,6.1035156e-05
2019-07-01T18:52:11.896Z,-0.00010006317,-0.0067647723,0.46528807,0.110076904,-0.06460571,9.810577,11.714172,11.824036,-56.297302,0.1165259,-0.063471325,9.805752,-2.5436282e-05,7.262826e-05,-0.0001707077,0.00018310547,1.5258789e-05,0.00032043457
2019-07-01T18:52:12.109Z,-9.078194e-05,-0.006720595,0.46516043,0.110076904,-0.06939697,9.810577,12.158203,11.207581,-57.647705,0.115852796,-0.06289034,9.805764,-0.0014915168,0.000934504,-0.002026558,6.1035156e-05,-3.0517578e-05,-0.00012207031
2019-07-01T18:52:12.308Z,-6.352858e-05,-0.0067300354,0.46514753,0.117248535,-0.059814453,9.800995,12.359619,12.017822,-56.811523,0.116266236,-0.06250161,9.805761,0.00071611255,0.0003033802,0.0005607605,0.00012207031,-3.0517578e-05,0.0
2019-07-01T18:52:12.511Z,-4.359818e-05,-0.0067233345,0.4651027,0.124420166,-0.06700134,9.812973,12.319946,11.218262,-57.652283,0.11633487,-0.062088557,9.805763,0.00018268079,0.0010760352,-0.0013856888,-6.1035156e-05,1.5258789e-05,0.00012207031
2019-07-01T18:52:12.716Z,-8.396769e-05,-0.006729619,0.46517453,0.112457275,-0.057434082,9.808182,12.445068,10.426331,-57.743835,0.11607062,-0.06285621,9.805761,-0.00025725365,-0.0022220612,-0.0021982193,0.00018310547,7.6293945e-05,0.00012207031
2019-07-01T18:52:12.915Z,-7.103268e-05,-0.0067478786,0.46520424,0.122039795,-0.062210083,9.808182,13.137817,11.489868,-57.63092,0.11650352,-0.06280214,9.805757,0.0007471442,0.000590913,-0.0005083084,-0.00012207031,-3.0517578e-05,0.00019836426
2019-07-01T18:52:13.113Z,-6.613449e-05,-0.0067445273,0.4651888,0.105285645,-0.06700134,9.800995,12.496948,11.520386,-57.373047,0.116491124,-0.06268449,9.8057575,4.0598214e-05,0.000474222,0.00030231476,-6.1035156e-05,1.5258789e-05,0.00012207031
2019-07-01T18:52:13.318Z,-9.135103e-05,-0.0067233844,0.46516845,0.114852905,-0.057434082,9.8033905,11.990356,10.977173,-57.38678,0.11589546,-0.062926725,9.805763,0.00015603006,0.0011933893,-8.4877014e-05,-0.00012207031,7.6293945e-05,0.00012207031
2019-07-01T18:52:13.519Z,-9.2666145e-05,-0.0067209257,0.46516386,0.114852905,-0.052642822,9.78186,12.962341,11.187744,-57.60956,0.1158411,-0.06292652,9.805764,-3.91379e-05,-0.0007112399,0.00090789795,0.00018310547,1.5258789e-05,0.0
2019-07-01T18:52:13.724Z,-7.4777425e-05,-0.0067557856,0.46522996,0.124420166,-0.06939697,9.805786,12.812805,11.470032,-57.92389,0.1166048,-0.06294269,9.805755,0.0013695285,-0.0004774928,-0.003545761,0.00012207031,-3.0517578e-05,6.1035156e-05
2019-07-01T18:52:13.935Z,-3.7951522e-05,-0.006705812,0.46504936,0.112457275,-0.057434082,9.810577,12.854004,12.345886,-57.444763,0.116085894,-0.06182368,9.805768,-0.00073897094,0.0017620325,0.00050258636,0.00012207031,7.6293945e-05,-4.5776367e-05
2019-07-01T18:52:14.134Z,-3.9311166e-05,-0.0067002405,0.46503672,0.110076904,-0.06460571,9.808182,12.306213,10.852051,-57.348633,0.11597765,-0.06179482,9.80577,8.253008e-05,-0.00018735602,0.00065898895,6.1035156e-05,7.6293945e-05,-0.00012207031
2019-07-01T18:52:14.340Z,-6.239131e-05,-0.006730953,0.46514833,0.124420166,-0.059814453,9.800995,11.923218,11.264038,-57.40204,0.116292484,-0.062490344,9.805761,0.0007072985,-0.0011515878,0.0010700226,-6.1035156e-05,1.5258789e-05,0.00024414062
2019-07-01T18:52:14.536Z,-2.4146757e-05,-0.00675869,0.4651679,0.117248535,-0.071777344,9.8033905,12.310791,10.923767,-57.258606,0.11712156,-0.06208199,9.805755,0.0015522987,-0.00012332574,0.0007123947,0.00024414062,-3.0517578e-05,0.00012207031
2019-07-01T18:52:14.744Z,-5.6145785e-05,-0.0067120106,0.46509048,0.119644165,-0.055038452,9.810577,12.902832,11.5448,-56.930542,0.11602467,-0.062201515,9.805766,-0.0014170259,-0.00048806518,0.0012750626,6.1035156e-05,0.00019836426,-0.00012207031
2019-07-01T18:52:14.945Z,-8.423567e-05,-0.006694212,0.4650828,0.112457275,-0.06939697,9.810577,13.497925,12.162781,-56.52771,0.11545997,-0.06252586,9.805771,-0.00084498525,-0.0003964901,-0.0012254715,-6.1035156e-05,7.6293945e-05,0.00019836426
2019-07-01T18:52:15.151Z,-7.8856e-05,-0.0067014853,0.46509433,0.117248535,-0.062210083,9.805786,12.953186,10.894775,-57.366943,0.1156345,-0.062500305,9.805769,0.00041300058,5.1945448e-05,0.00030231476,0.0,1.5258789e-05,6.1035156e-05
2019-07-01T18:52:15.346Z,-9.114026e-05,-0.00671855,0.4651556,0.107681274,-0.071777344,9.800995,12.773132,10.520935,-57.737732,0.115814365,-0.062877275,9.805765,0.00070681423,-0.00076159835,-0.00012493134,0.0,9.1552734e-05,-0.00018310547
2019-07-01T18:52:15.560Z,-8.787925e-05,-0.006692126,0.46508238,0.112457275,-0.057434082,9.817749,12.864685,10.971069,-58.63037,0.115390554,-0.06257004,9.805772,-0.00078175217,0.0003682077,0.000872612,6.1035156e-05,1.5258789e-05,-0.00012207031
2019-07-01T18:52:15.859Z,-0.000106908614,-0.006712323,0.46516106,0.117248535,-0.071777344,9.815353,14.503479,11.740112,-59.220886,0.11556201,-0.063094944,9.805766,-0.00024729967,-0.0015046373,-0.00068855286,0.00012207031,-0.00015258789,0.0002593994
2019-07-01T18:52:15.973Z,-0.00010584275,-0.0067241057,0.46519026,0.119644165,-0.057434082,9.7986145,12.857056,11.129761,-60.26001,0.11577422,-0.06318776,9.805764,0.00073633343,0.00027187914,0.001616478,-0.00012207031,7.6293945e-05,-6.1035156e-05
2019-07-01T18:52:16.155Z,-0.00016597833,-0.006712546,0.46524286,0.119644165,-0.06460571,9.800995,12.739563,11.7630005,-58.46405,0.11502104,-0.06413316,9.805766,-0.0018545389,-0.001893945,0.0004377365,0.0,-9.1552734e-05,0.0
2019-07-01T18:52:16.358Z,-9.2520895e-05,-0.006696456,0.46510002,0.119644165,-0.050247192,9.812973,13.261414,11.080933,-60.136414,0.11542213,-0.062692426,9.80577,0.0008467287,0.0026438087,-0.0008277893,6.1035156e-05,1.5258789e-05,-0.00018310547
2019-07-01T18:52:16.567Z,-0.000118249685,-0.006706961,0.4651627,0.114852905,-0.071777344,9.8033905,13.078308,10.708618,-60.8078,0.11536534,-0.06324314,9.805768,0.00018395483,-0.0011070371,0.00040340424,0.0,7.6293945e-05,-6.1035156e-05
2019-07-01T18:52:16.773Z,-8.087651e-05,-0.0066974796,0.46508667,0.124420166,-0.059814453,9.815353,12.922668,10.6918335,-59.899902,0.11554707,-0.06249785,9.80577,0.00024566054,0.0010165498,0.00011539459,0.00012207031,-3.0517578e-05,-6.1035156e-05
2019-07-01T18:52:16.977Z,-0.00012838561,-0.006734831,0.46524915,0.112457275,-0.062210083,9.808182,12.64801,11.689758,-59.30786,0.115750484,-0.06368469,9.80576,4.824996e-05,-0.0025909767,-0.0010414124,6.1035156e-05,-9.1552734e-05,0.0002593994
2019-07-01T18:52:17.173Z,-9.599646e-05,-0.006683306,0.46507058,0.112457275,-0.06460571,9.808182,13.482666,10.508728,-59.50775,0.115164205,-0.062628984,9.805774,-0.0020036995,0.0021049455,-0.00021266937,0.0,-0.00021362305,-0.00018310547
2019-07-01T18:52:17.374Z,-0.000119351,-0.0066832937,0.46510264,0.110076904,-0.059814453,9.800995,12.393188,11.080933,-57.911682,0.11494868,-0.063038535,9.805774,-0.00035080314,-0.0013087019,0.002084732,0.00012207031,1.5258789e-05,-0.00012207031
2019-07-01T18:52:17.573Z,-9.431974e-05,-0.0066666505,0.46502495,0.114852905,-0.057434082,9.808182,13.124084,11.198425,-57.614136,0.11489356,-0.06244203,9.8057785,0.00042083114,0.0011925548,0.00011634827,0.0,0.0001373291,0.0
2019-07-01T18:52:17.780Z,-0.00012586772,-0.0066593727,0.46504936,0.117248535,-0.06939697,9.8033905,12.567139,11.308289,-57.569885,0.11447773,-0.06292658,9.80578,0.00013495237,-0.0014287606,-0.0026435852,0.00012207031,0.0002593994,-0.00012207031
2019-07-01T18:52:17.984Z,-0.00010512527,-0.006672673,0.46505547,0.119644165,-0.057434082,9.8033905,12.696838,12.559509,-58.151245,0.11489741,-0.06268854,9.805777,0.0009035319,0.00024154782,0.0003118515,6.1035156e-05,1.5258789e-05,6.1035156e-05
2019-07-01T18:52:18.191Z,-0.000100302146,-0.0066898954,0.46509364,0.114852905,-0.06460571,9.808182,12.17041,11.576843,-58.17566,0.1152377,-0.06276685,9.805772,8.0265105e-05,0.0003169626,-0.00090789795,-0.00012207031,-0.00015258789,-6.1035156e-05
2019-07-01T18:52:18.393Z,-0.00010860974,-0.0066886134,0.46510172,0.122039795,-0.06460571,9.805786,13.063049,11.555481,-57.08618,0.1151391,-0.062900454,9.805773,-0.00054127723,-0.0002649501,0.00051498413,0.0,-9.1552734e-05,0.00012207031
2019-07-01T18:52:18.600Z,-0.00012702348,-0.006705895,0.465172,0.117248535,-0.06460571,9.810577,13.195801,11.288452,-59.109497,0.11526612,-0.063386954,9.805768,0.0007800609,-0.0014562085,0.00018787384,0.00012207031,0.0001373291,-0.00024414062
2019-07-01T18:52:18.802Z,-9.280598e-05,-0.006727555,0.4651813,0.114852905,-0.059814453,9.815353,13.197327,10.9817505,-57.208252,0.11595367,-0.062991716,9.805762,0.0012742803,7.5660646e-05,0.0013952255,0.00018310547,-3.0517578e-05,0.0
2019-07-01T18:52:19.059Z,-4.432985e-05,-0.0067133736,0.4650778,0.112457275,-0.06460571,9.810577,13.484192,12.025452,-57.461548,0.11615701,-0.06200713,9.805766,-0.00038019568,0.0012513362,0.0028448105,0.00018310547,-0.00021362305,0.00012207031
2019-07-01T18:52:19.200Z,-3.856214e-05,-0.0067050606,0.46504825,0.117248535,-0.059814453,9.805786,12.513733,11.885071,-57.22351,0.11606736,-0.061827283,9.805768,-0.00029418617,0.000112086535,0.0006246567,6.1035156e-05,-3.0517578e-05,-0.00018310547
2019-07-01T18:52:19.407Z,-4.454841e-05,-0.0067156823,0.4650841,0.124420166,-0.06460571,9.8033905,11.755371,11.180115,-57.487488,0.11619466,-0.06203281,9.805765,0.00030160695,-0.0008756928,-0.0010194778,0.00012207031,1.5258789e-05,0.0
2019-07-01T18:52:19.613Z,-7.297033e-05,-0.00666813,0.46499944,0.112457275,-0.06700134,9.808182,12.93335,10.682678,-58.618164,0.11511576,-0.06208152,9.8057785,-0.0017258376,-0.001074411,0.0009241104,6.1035156e-05,0.00019836426,0.00019836426
2019-07-01T18:52:19.811Z,-8.6003754e-05,-0.0067250947,0.46516556,0.117248535,-0.062210083,9.805786,12.814331,11.697388,-58.784485,0.11597414,-0.06284911,9.805763,0.0017488748,-0.0017491207,-0.0025787354,6.1035156e-05,1.5258789e-05,0.00012207031
2019-07-01T18:52:20.010Z,-9.803198e-05,-0.0067645395,0.46528468,0.122039795,-0.06700134,9.805786,12.632751,10.945129,-57.26776,0.116540655,-0.0634335,9.805753,0.0019000322,-0.0006919578,-0.00012397766,-0.00012207031,0.00019836426,0.00012207031
2019-07-01T18:52:20.220Z,-0.00010194165,-0.006755962,0.46526775,0.117248535,-0.062210083,9.808182,12.329102,11.436462,-57.458496,0.11635729,-0.06342087,9.805755,0.00016038865,-0.00021607429,6.771088e-05,6.1035156e-05,0.0001373291,-0.00012207031
2019-07-01T18:52:20.422Z,-0.0001019477,-0.00677176,0.46530885,0.117248535,-0.06460571,9.805786,13.130188,11.497498,-58.61206,0.11662853,-0.06357055,9.805751,0.0008453205,-0.00030773878,0.00084781647,0.0,7.6293945e-05,-6.1035156e-05
2019-07-01T18:52:20.626Z,-0.0001371004,-0.006759224,0.46532458,0.114852905,-0.06460571,9.8033905,13.48114,11.877441,-57.113647,0.116088964,-0.06406847,9.805754,-0.0010149404,-0.0012417063,0.0007276535,6.1035156e-05,1.5258789e-05,-0.00012207031
2019-07-01T18:52:20.826Z,-0.00010302379,-0.0067658057,0.46529484,0.119644165,-0.057434082,9.800995,12.368774,10.646057,-58.602905,0.116516344,-0.063533045,9.805752,0.00071948767,0.0015587732,-0.0017518997,-0.00012207031,-3.0517578e-05,0.00012207031
2019-07-01T18:52:21.029Z,-0.00012033369,-0.0067538293,0.46528748,0.114852905,-0.06700134,9.800995,12.200928,12.158203,-57.681274,0.11615101,-0.063723296,9.805756,-0.0008306131,0.00031917542,0.0013875961,-0.00018310547,-3.0517578e-05,6.1035156e-05
2019-07-01T18:52:21.232Z,-8.935642e-05,-0.0067929304,0.46534657,0.122039795,-0.059814453,9.7986145,12.1521,11.062622,-57.60193,0.11710823,-0.06355017,9.805745,0.0013172328,-0.0005753264,-0.0013132095,0.00024414062,-0.00015258789,0.00024414062
2019-07-01T18:52:21.434Z,-0.00013059861,-0.0067694522,0.46534222,0.112457275,-0.06460571,9.815353,12.200928,12.158203,-57.6828,0.116324574,-0.06405126,9.805751,-0.001251556,-0.0010142475,0.0018396378,0.0,7.6293945e-05,0.0
2019-07-01T18:52:21.636Z,-0.00013277165,-0.006758823,0.46531758,0.122039795,-0.062210083,9.815353,12.185669,11.86676,-57.89337,0.11612202,-0.063988745,9.805755,-0.00033716112,0.00011636317,0.000910759,0.0,1.5258789e-05,-6.1035156e-05
2019-07-01T18:52:21.839Z,-0.00015979476,-0.006788819,0.46543276,0.112457275,-0.06460571,9.808182,12.480164,11.154175,-57.44629,0.11638766,-0.06474676,9.805745,0.0013017133,-0.0015195087,0.0004415512,0.0,0.00019836426,0.0
2019-07-01T18:52:22.045Z,-0.00018070237,-0.0067783627,0.4654343,0.114852905,-0.062210083,9.808182,12.309265,10.923767,-57.258606,0.116015196,-0.06501445,9.805749,-0.00022727251,-0.00029369444,-0.0009784698,-6.1035156e-05,0.0001373291,0.0
2019-07-01T18:52:22.244Z,-0.00013532967,-0.0067714253,0.46535388,0.114852905,-0.071777344,9.820145,13.201904,11.131287,-57.40509,0.116314806,-0.06415293,9.805751,0.0011440217,0.0012443513,0.0012569427,0.00012207031,0.0001373291,0.0
2019-07-01T18:52:22.449Z,-0.00012864704,-0.006764351,0.46532628,0.114852905,-0.062210083,9.805786,12.394714,11.230469,-58.410645,0.11625498,-0.063968726,9.805752,0.00022157282,0.00035448372,0.0035429,0.0,7.6293945e-05,0.00019836426
2019-07-01T18:52:22.657Z,-0.000120288685,-0.0067267222,0.4652169,0.117248535,-0.057434082,9.812973,13.252258,12.225342,-57.182312,0.11568592,-0.063465916,9.805762,-0.0011020601,0.0010337308,-0.0024194717,0.0,1.5258789e-05,0.0002593994
2019-07-01T18:52:22.855Z,-7.547159e-05,-0.006748448,0.4652118,0.117248535,-0.059814453,9.808182,12.826538,11.608887,-56.762695,0.11647237,-0.0628854,9.805757,0.0014548674,0.0011691153,-0.00034046173,0.0,-3.0517578e-05,0.00012207031
2019-07-01T18:52:23.054Z,-0.00010087027,-0.006719556,0.46517158,0.110076904,-0.059814453,9.8033905,12.672424,11.972046,-57.81555,0.11574192,-0.063057475,9.805764,-0.001169987,-0.0012840331,-0.00022983551,0.00024414062,7.6293945e-05,0.0
2019-07-01T18:52:23.257Z,-5.763565e-05,-0.0067275735,0.465133,0.114852905,-0.062210083,9.800995,13.09967,10.614014,-57.580566,0.11627828,-0.062374935,9.805762,0.00046777725,0.0013708323,-0.0012693405,0.0,-0.00015258789,-6.1035156e-05
2019-07-01T18:52:23.504Z,-0.00010006771,-0.0066937683,0.4651034,0.117248535,-0.06700134,9.808182,12.031555,11.849976,-56.983948,0.115306385,-0.06279938,9.805771,-0.0011929572,-0.0010770187,-0.00116539,6.1035156e-05,0.00019836426,0.0
2019-07-01T18:52:23.667Z,-0.00010047311,-0.0067060054,0.46513578,0.112457275,-0.052642822,9.805786,12.487793,11.375427,-57.702637,0.11551284,-0.06292228,9.805768,0.00028445572,-0.00023990124,-0.0009288788,0.0,-3.0517578e-05,0.0
2019-07-01T18:52:23.868Z,-9.1905225e-05,-0.006714133,0.46514514,0.110076904,-0.062210083,9.805786,12.666321,11.750793,-57.55768,0.11573145,-0.062848896,9.805766,0.00031267852,-0.0005589053,-0.0004682541,0.00018310547,-3.0517578e-05,-6.1035156e-05
2019-07-01T18:52:24.072Z,-7.115936e-05,-0.006696955,0.46507195,0.119644165,-0.062210083,9.796219,12.969971,11.561584,-58.74176,0.11562763,-0.062322427,9.80577,-0.0007908344,-0.00012311712,0.00032901764,0.00030517578,-0.00015258789,6.1035156e-05
2019-07-01T18:52:24.273Z,-0.0001131776,-0.0067075025,0.46515715,0.114852905,-0.057434082,9.8033905,12.635803,11.016846,-57.17926,0.11542141,-0.063159294,9.805767,0.00012842566,-0.0019083694,0.0006952286,6.1035156e-05,0.0001373291,0.00012207031
2019-07-01T18:52:24.473Z,-9.5051e-05,-0.006699099,0.46511036,0.112457275,-0.06460571,9.8033905,13.05542,11.412048,-57.341003,0.11544421,-0.06276182,9.80577,0.00010573119,0.00056268275,-1.5258789e-05,6.1035156e-05,1.5258789e-05,6.1035156e-05
2019-07-01T18:52:24.676Z,-0.00013770562,-0.006718423,0.46521926,0.114852905,-0.06700134,9.810577,13.031006,10.826111,-57.081604,0.11538275,-0.063692875,9.805764,0.00016903132,-0.0020929277,-0.0003271103,6.1035156e-05,7.6293945e-05,6.1035156e-05
2019-07-01T18:52:24.880Z,-0.000117276504,-0.006695694,0.46513206,0.119644165,-0.059814453,9.815353,12.759399,11.973572,-57.139587,0.1151808,-0.06311946,9.805771,-0.00034479052,0.0009186417,-0.00021839142,6.1035156e-05,1.5258789e-05,0.00012207031
2019-07-01T18:52:25.086Z,-9.742657e-05,-0.0067171813,0.46516067,0.119644165,-0.071777344,9.8033905,12.510681,11.735535,-56.87561,0.11573288,-0.06297459,9.805764,0.0005296916,-0.00042752177,0.0012893677,0.00018310547,-0.00015258789,-6.1035156e-05
2019-07-01T18:52:25.294Z,-8.132406e-05,-0.0067042895,0.465105,0.110076904,-0.062210083,9.800995,12.968445,11.335754,-57.806396,0.115659915,-0.06257013,9.805768,0.00013682246,-0.00011878461,-0.0012187958,0.00024414062,7.6293945e-05,0.00012207031
2019-07-01T18:52:25.494Z,-9.0714166e-05,-0.006733085,0.46519282,0.107681274,-0.059814453,9.808182,12.501526,11.743164,-58.081055,0.11606794,-0.06300736,9.80576,0.0006938726,-0.0006296113,-0.00065898895,-6.1035156e-05,-3.0517578e-05,0.00012207031
2019-07-01T18:52:25.698Z,-6.830569e-05,-0.006704364,0.4650873,0.110076904,-0.059814453,9.7986145,13.08136,12.072754,-57.736206,0.115781225,-0.062342476,9.805769,-0.0006961152,0.0013290048,-0.00027561188,0.0,-3.0517578e-05,-6.1035156e-05
2019-07-01T18:52:25.900Z,-8.9011126e-05,-0.006687608,0.46507215,0.122039795,-0.057434082,9.800995,12.313843,11.071777,-57.53174,0.11530251,-0.062547155,9.805773,-0.00068083405,-0.000867106,-0.0016202927,0.00012207031,7.6293945e-05,6.1035156e-05
2019-07-01T18:52:26.098Z,-6.859044e-05,-0.0066718985,0.46500322,0.112457275,-0.059814453,9.817749,13.653564,12.255859,-57.79724,0.11522086,-0.062040325,9.805777,0.0005945489,0.00054675713,-0.0006055832,0.00012207031,0.00019836426,0.0
2019-07-01T18:52:26.292Z,-0.000102944214,-0.0067277304,0.4651957,0.114852905,-0.06939697,9.810577,13.296509,11.351013,-56.910706,0.11586319,-0.063171215,9.805762,0.0013805702,-0.00047058612,9.250641e-05,6.1035156e-05,0.00019836426,6.1035156e-05
2019-07-01T18:52:26.505Z,-0.00015647803,-0.006712648,0.46523005,0.117248535,-0.06460571,9.812973,11.886597,10.536194,-57.84912,0.115110435,-0.063967496,9.805766,-0.0007375777,-0.0020686463,0.00038337708,0.00012207031,0.00019836426,-6.1035156e-05
2019-07-01T18:52:26.706Z,-0.00011999487,-0.0066686827,0.4650655,0.114852905,-0.06939697,9.805786,13.143921,11.711121,-57.888794,0.11469179,-0.06291162,9.805778,-0.00078579783,0.0018922016,-0.0010271072,6.1035156e-05,1.5258789e-05,0.00019836426
2019-07-01T18:52:26.906Z,-0.00012872268,-0.006712511,0.46519154,0.110076904,-0.062210083,9.805786,12.387085,10.85968,-57.426453,0.115364075,-0.063479364,9.805766,0.0018808544,-0.0018415228,0.00043010712,0.00018310547,0.0001373291,6.1035156e-05
2019-07-01T18:52:27.109Z,-0.00012254255,-0.006679597,0.46509743,0.117248535,-0.06460571,9.805786,12.44812,10.501099,-57.954407,0.11485576,-0.063059546,9.805775,-0.00048107654,0.000608176,0.00028419495,6.1035156e-05,0.0001373291,0.00012207031
2019-07-01T18:52:27.320Z,-0.00015609065,-0.0067058164,0.46521175,0.112457275,-0.055038452,9.805786,12.747192,11.755371,-57.409668,0.11499669,-0.06389605,9.805768,0.0010542572,-0.0021398738,0.00034809113,0.00012207031,0.00019836426,0.0001373291
2019-07-01T18:52:27.520Z,-8.694033e-05,-0.006674049,0.46503404,0.117248535,-0.055038452,9.810577,12.744141,11.605835,-56.910706,0.11508868,-0.062382564,9.805777,0.00023417175,0.0023256391,-0.00072574615,0.00018310547,1.5258789e-05,0.0
2019-07-01T18:52:27.723Z,-5.6321674e-05,-0.0066832253,0.46501586,0.110076904,-0.057434082,9.8033905,12.091064,11.647034,-58.387756,0.11552853,-0.061932247,9.805774,0.00052671134,-0.0002761744,-6.67572e-06,0.00030517578,-9.1552734e-05,0.0
2019-07-01T18:52:27.926Z,-5.0180148e-05,-0.006679489,0.46499768,0.114852905,-0.06460571,9.8033905,13.435364,11.004639,-58.044434,0.11552094,-0.061789162,9.805775,0.00028640777,-0.00018836558,0.0006341934,0.00012207031,7.6293945e-05,0.0
2019-07-01T18:52:28.124Z,-9.474063e-05,-0.0066706673,0.46503597,0.117248535,-0.057434082,9.800995,11.6744995,11.253357,-58.30078,0.11495869,-0.06248741,9.805778,-0.0010707006,-0.0011550374,-0.00054359436,-6.1035156e-05,1.5258789e-05,6.1035156e-05
2019-07-01T18:52:28.328Z,-4.7261226e-05,-0.006665505,0.4649573,0.114852905,-0.06460571,9.7986145,13.467407,11.584473,-57.247925,0.115307584,-0.06160569,9.8057785,0.0009818524,0.0013017692,-0.0009946823,0.00012207031,7.6293945e-05,6.1035156e-05
2019-07-01T18:52:28.529Z,-5.483231e-05,-0.0066815624,0.46500948,0.117248535,-0.062210083,9.808182,13.256836,10.702515,-58.477783,0.1155137,-0.061890393,9.805775,0.00029999763,-0.00080769137,0.00045585632,6.1035156e-05,-3.0517578e-05,0.0
2019-07-01T18:52:28.740Z,-0.00010067342,-0.006692604,0.46510118,0.119644165,-0.071777344,9.8033905,13.702393,11.605835,-58.158875,0.11528081,-0.06279899,9.805771,0.00029159337,-0.0020521283,-0.00050354004,6.1035156e-05,0.00019836426,-6.1035156e-05
2019-07-01T18:52:28.937Z,-0.00014113585,-0.00668105,0.46512675,0.114852905,-0.06460571,9.8033905,12.757874,10.229492,-58.02307,0.11470929,-0.063399434,9.805775,-0.0008245483,-0.000729464,0.0015764236,-0.00012207031,7.6293945e-05,0.00024414062
2019-07-01T18:52:29.141Z,-8.654659e-05,-0.006690516,0.46507636,0.119644165,-0.057434082,9.805786,12.083435,11.427307,-58.20465,0.11537518,-0.062531434,9.805772,0.0016225725,0.00055383146,-6.198883e-05,0.00030517578,7.6293945e-05,-0.00012207031
2019-07-01T18:52:29.342Z,-9.862413e-05,-0.0066901078,0.46509188,0.117248535,-0.059814453,9.808182,12.2543335,11.427307,-56.854248,0.115256816,-0.062739424,9.805772,7.048249e-05,-0.00089742243,0.0012283325,0.00012207031,7.6293945e-05,-6.1035156e-05
2019-07-01T18:52:29.547Z,-9.478544e-05,-0.0067372527,0.46520925,0.1268158,-0.06700134,9.7986145,13.233948,11.784363,-57.04651,0.11610197,-0.06311823,9.805759,0.0015968233,-0.0002849251,0.001461029,-0.00012207031,-3.0517578e-05,0.0002593994
2019-07-01T18:52:29.750Z,-9.221862e-05,-0.0067108474,0.46513703,0.117248535,-0.06939697,9.805786,11.610413,11.532593,-57.408142,0.11567213,-0.0628233,9.805767,-0.00034425408,-9.6708536e-05,-0.0015830994,0.00018310547,0.0001373291,0.00019836426
2019-07-01T18:52:29.959Z,-0.00010967994,-0.006707848,0.46515325,0.112457275,-0.06700134,9.812973,12.138367,10.769653,-57.585144,0.11545959,-0.06310121,9.805767,0.000100545585,-0.0007819161,-0.000579834,6.1035156e-05,0.0001373291,0.00012207031
2019-07-01T18:52:30.156Z,-0.00015160587,-0.006758977,0.46534386,0.110076904,-0.06460571,9.812973,12.670898,11.898804,-57.756042,0.11595089,-0.06432056,9.805754,0.001285106,-0.0022008047,0.00040626526,-6.1035156e-05,7.6293945e-05,0.00012207031
2019-07-01T18:52:30.357Z,-0.00015563646,-0.0067611253,0.465355,0.110076904,-0.06939697,9.808182,12.739563,11.534119,-57.077026,0.11595058,-0.06441159,9.805753,8.508563e-05,-0.0001815185,0.0017156601,0.0,1.5258789e-05,0.0002593994
2019-07-01T18:52:30.562Z,-0.00015507813,-0.006751992,0.46533048,0.117248535,-0.06700134,9.7986145,13.027954,10.906982,-58.12378,0.11579891,-0.06431533,9.805756,-0.0002497062,-0.00027880073,-0.00030231476,0.00012207031,1.5258789e-05,-6.1035156e-05
2019-07-01T18:52:30.760Z,-0.00015625851,-0.006751542,0.46533093,0.117248535,-0.06700134,9.7986145,13.00354,10.470581,-58.589172,0.11578031,-0.06433178,9.805757,0.00048810244,-0.0007365048,-0.00035762787,0.00018310547,0.0001373291,0.0
2019-07-01T18:52:30.968Z,-0.000120521785,-0.0067359055,0.46524113,0.112457275,-0.057434082,9.817749,12.866211,10.971069,-58.555603,0.11584148,-0.063556924,9.80576,-2.9563904e-05,0.00085981935,-0.002793312,0.00018310547,-3.0517578e-05,-4.5776367e-05
2019-07-01T18:52:31.174Z,-7.829287e-05,-0.006724807,0.4651542,0.114852905,-0.06939697,9.810577,12.974548,11.482239,-57.77893,0.116040304,-0.06271113,9.805763,0.00047902763,0.0009805709,0.0016450882,0.00018310547,1.5258789e-05,0.00012207031
2019-07-01T18:52:31.373Z,-0.00010310853,-0.0067366855,0.46521923,0.114852905,-0.06460571,9.808182,12.158203,11.207581,-57.647705,0.11601547,-0.06325886,9.805759,0.0002541244,-0.0018102676,0.0009317398,0.00018310547,7.6293945e-05,-6.1035156e-05
2019-07-01T18:52:31.568Z,-9.050636e-05,-0.006764736,0.46527484,0.119644165,-0.062210083,9.8033905,12.709045,10.955811,-57.948303,0.11661344,-0.063303344,9.805752,0.00085490197,-9.896606e-05,0.0011005402,0.0,-9.1552734e-05,-6.1035156e-05
2019-07-01T18:52:31.775Z,-7.926051e-05,-0.0067553762,0.46523505,0.119644165,-0.057434082,9.7986145,13.154602,11.779785,-57.196045,0.11655642,-0.06301746,9.805755,0.00019041449,0.00033459812,0.0007314682,6.1035156e-05,7.6293945e-05,6.1035156e-05
2019-07-01T18:52:31.968Z,-8.056183e-05,-0.0067498167,0.4652224,0.117248535,-0.06460571,9.800995,14.311218,10.768127,-57.74994,0.11644894,-0.062987655,9.805757,0.00030451268,7.233769e-05,-0.0011110306,0.0,0.0001373291,0.00012207031
2019-07-01T18:52:32.174Z,-0.00010082865,-0.006709417,0.46514514,0.117248535,-0.062210083,9.820145,11.465454,10.069275,-57.626343,0.11556816,-0.062960796,9.805767,-0.0007459,-0.00019389391,0.0014925003,6.1035156e-05,0.0002593994,-6.1035156e-05
2019-07-01T18:52:32.394Z,-9.212285e-05,-0.006715461,0.4651489,0.124420166,-0.06460571,9.805786,13.722229,11.967468,-57.633972,0.11575225,-0.06286528,9.805765,0.00026763976,-0.00028521568,0.0013093948,0.00012207031,-3.0517578e-05,6.1035156e-05
2019-07-01T18:52:32.586Z,-9.661313e-05,-0.006738832,0.46521586,0.114852905,-0.06939697,9.812973,13.040161,11.273193,-58.42743,0.11611226,-0.06316525,9.80576,0.0011017919,-0.0014217123,-0.0004892349,6.1035156e-05,0.0002593994,0.0
2019-07-01T18:52:32.791Z,-8.44285e-05,-0.006710893,0.46512645,0.114852905,-0.059814453,9.8033905,13.1362915,11.49292,-57.781982,0.115744725,-0.06268708,9.805766,0.00027459115,9.857118e-06,0.0007867813,0.00024414062,0.0002593994,0.0
2019-07-01T18:52:32.994Z,-9.3713046e-05,-0.0067020287,0.46511614,0.117248535,-0.06460571,9.805786,11.636353,10.4522705,-58.61206,0.115506865,-0.06276607,9.805769,0.00027374178,-0.0006311983,-0.00091362,0.00012207031,0.00019836426,-0.00018310547
2019-07-01T18:52:33.198Z,-9.9082594e-05,-0.0067141494,0.46515507,0.114852905,-0.059814453,9.812973,12.838745,12.132263,-58.31909,0.11566555,-0.06297495,9.805766,0.00059438497,-0.0006545931,-0.0010890961,6.1035156e-05,7.6293945e-05,-0.00018310547
2019-07-01T18:52:33.400Z,-0.0001350263,-0.0066797636,0.465115,0.117248535,-0.059814453,9.808182,12.463379,10.713196,-57.156372,0.11474352,-0.0632801,9.805775,-0.000857532,-0.00084108114,-0.0010557175,6.1035156e-05,0.0002593994,-4.5776367e-05
2019-07-01T18:52:33.603Z,-0.000113713664,-0.006674147,0.4650711,0.114852905,-0.062210083,9.8033905,12.911987,11.917114,-57.913208,0.11484356,-0.062853135,9.805777,0.0007153079,-6.79791e-05,-0.0016641617,0.00024414062,0.0001373291,0.00019836426
2019-07-01T18:52:33.804Z,-0.000102257225,-0.0066899844,0.46509656,0.114852905,-0.062210083,9.8033905,13.124084,11.198425,-57.614136,0.1152212,-0.06280199,9.805772,0.00082199275,-0.0010783076,0.00064754486,0.00030517578,1.5258789e-05,0.0
2019-07-01T18:52:34.015Z,-9.090766e-05,-0.006689382,0.4650794,0.114852905,-0.059814453,9.805786,12.580872,11.5234375,-56.922913,0.11531549,-0.0625972,9.805772,0.00095496327,0.00064036995,0.00026607513,-6.1035156e-05,0.00019836426,-6.1035156e-05
2019-07-01T18:52:34.216Z,-7.432884e-05,-0.0066974484,0.46507758,0.110076904,-0.059814453,9.8033905,12.2543335,11.430359,-57.229614,0.1156069,-0.062382698,9.80577,0.0008981079,0.00018684193,0.0016098022,6.1035156e-05,7.6293945e-05,7.6293945e-05
2019-07-01T18:52:34.416Z,-4.746158e-05,-0.0066905716,0.46502277,0.122039795,-0.059814453,9.7986145,12.187195,11.714172,-56.866455,0.1157364,-0.061846316,9.805772,0.00053506345,0.0017961487,-0.0017948151,-0.00018310547,7.6293945e-05,0.00012207031
2019-07-01T18:52:34.617Z,-9.604473e-05,-0.0066892467,0.4650861,0.119644165,-0.062210083,9.7986145,13.020325,10.682678,-57.714844,0.11526581,-0.06268603,9.805772,-0.00042255223,-0.0016702935,-0.0010356903,0.0,0.0001373291,6.1035156e-05
2019-07-01T18:52:34.817Z,-3.391105e-05,-0.0067289006,0.46510386,0.117248535,-0.06939697,9.808182,12.42218,11.8133545,-58.216858,0.1165198,-0.0619713,9.805762,0.0019112825,0.00048244372,-0.000374794,0.00024414062,-0.00015258789,-0.00018310547
2019-07-01T18:52:35.025Z,-7.337345e-05,-0.0067399982,0.46518695,0.112457275,-0.059814453,9.810577,12.969971,11.483765,-58.306885,0.11634658,-0.06276861,9.805758,0.00017857552,-0.0013607293,-0.00025177002,-6.1035156e-05,0.0001373291,-6.1035156e-05
2019-07-01T18:52:35.228Z,-8.4322426e-05,-0.0067251157,0.4651633,0.119644165,-0.062210083,9.808182,12.6297,11.024475,-58.158875,0.115990005,-0.062819816,9.805763,0.00053051114,-0.0003456846,0.0007829666,6.1035156e-05,0.00032043457,-6.1035156e-05
2019-07-01T18:52:35.427Z,-6.7557405e-05,-0.00673408,0.46516356,0.114852905,-0.06939697,9.8033905,13.746643,12.554932,-57.817078,0.116298564,-0.06261057,9.80576,0.0011705756,-0.00030400604,0.0021152496,0.00018310547,0.0001373291,-6.1035156e-05
2019-07-01T18:52:35.633Z,-9.279662e-05,-0.0067917393,0.4653482,0.114852905,-0.06460571,9.805786,13.02948,10.903931,-57.821655,0.117056035,-0.06359923,9.805745,0.0011424646,-0.002190508,-0.0020990372,6.1035156e-05,-9.1552734e-05,0.00019836426
2019-07-01T18:52:35.913Z,-8.901416e-05,-0.0067830626,0.46532047,0.122039795,-0.059814453,9.815353,11.854553,11.625671,-57.77893,0.11694194,-0.06345071,9.805748,-0.00017599016,0.0005286485,-0.00029087067,-6.1035156e-05,1.5258789e-05,-0.00012207031
2019-07-01T18:52:36.037Z,-0.00012588252,-0.006754319,0.4652964,0.110076904,-0.059814453,9.810577,13.612366,11.610413,-59.213257,0.116108224,-0.06382526,9.805755,-0.0017536432,-0.00076654553,0.0026855469,0.0,-3.0517578e-05,0.0
2019-07-01T18:52:36.237Z,-0.00013277205,-0.006760489,0.4653219,0.119644165,-0.06700134,9.805786,13.621521,11.752319,-58.95691,0.116150625,-0.064004526,9.805754,0.0006040409,-0.0010627136,-0.00076675415,0.00018310547,0.0001373291,-6.1035156e-05
2019-07-01T18:52:36.439Z,-0.000111433765,-0.0067629144,0.4652989,0.119644165,-0.06460571,9.8033905,14.079285,11.126709,-58.80127,0.11638912,-0.06365319,9.805753,0.00012534857,1.8030405e-05,-0.00067424774,0.00018310547,-9.1552734e-05,0.00036621094
2019-07-01T18:52:36.694Z,-0.0001005025,-0.0067660073,0.4652919,0.114852905,-0.062210083,9.793823,11.569214,11.04126,-59.999084,0.11654306,-0.063490726,9.805752,-0.0002757758,-0.0003869608,0.00050735474,0.00018310547,-0.00015258789,-6.1035156e-05
2019-07-01T18:52:36.844Z,-6.601062e-05,-0.0067264442,0.4651416,0.117248535,-0.06460571,9.805786,13.414001,10.873413,-60.035706,0.116181664,-0.06251116,9.805762,-0.00085376203,0.0010253936,-0.0010976791,0.00024414062,-3.0517578e-05,0.0
2019-07-01T18:52:37.051Z,-7.510844e-05,-0.006741529,0.46519333,0.117248535,-0.055038452,9.812973,13.143921,12.094116,-60.076904,0.11635688,-0.062813535,9.805758,0.0004086569,-0.0008254871,-0.00056934357,6.1035156e-05,1.5258789e-05,0.00024414062
2019-07-01T18:52:37.256Z,-7.974342e-05,-0.006736706,0.46518716,0.110076904,-0.06939697,9.812973,13.719177,10.3012085,-58.87909,0.11623131,-0.062849194,9.80576,4.348904e-05,-0.00078849494,0.00041103363,0.00018310547,7.6293945e-05,-0.00018310547
2019-07-01T18:52:37.457Z,-8.7843655e-05,-0.0067402855,0.4652076,0.114852905,-0.057434082,9.805786,13.514709,11.161804,-58.84552,0.116218075,-0.06302516,9.805758,0.00028877705,-0.00060594827,0.00203228,6.1035156e-05,7.6293945e-05,-0.00012207031
2019-07-01T18:52:37.661Z,-0.000103544735,-0.0067167175,0.46516788,0.117248535,-0.06460571,9.8033905,12.986755,11.7752075,-57.94525,0.115668505,-0.063077524,9.805765,-0.00034552813,-0.0008010939,-0.0010499954,0.00018310547,0.00019836426,6.1035156e-05
2019-07-01T18:52:37.861Z,-3.8917875e-05,-0.0066873175,0.46500257,0.112457275,-0.059814453,9.8033905,12.886047,11.408997,-58.392334,0.11575924,-0.06166565,9.805773,0.0004979223,0.0018672161,0.0020132065,0.00024414062,7.6293945e-05,-6.1035156e-05
2019-07-01T18:52:38.063Z,-3.9960927e-05,-0.0066456436,0.46489558,0.117248535,-0.06460571,9.800995,11.64856,10.592651,-57.90558,0.11503358,-0.061289787,9.805784,-0.0011665598,5.4098666e-05,-0.0008878708,0.00018310547,7.6293945e-05,6.1035156e-05
2019-07-01T18:52:38.265Z,-6.2151565e-05,-0.006661504,0.46496734,0.105285645,-0.071777344,9.810577,13.105774,10.835266,-57.914734,0.115101635,-0.061829068,9.80578,0.00043980032,-0.00060977787,0.0006799698,-0.00012207031,7.6293945e-05,6.1035156e-05
2019-07-01T18:52:38.472Z,-9.228554e-05,-0.006703706,0.46511856,0.119644165,-0.059814453,9.808182,12.840271,12.054443,-57.502747,0.115548834,-0.062756896,9.805768,0.00095565617,-0.0020783618,-0.00034046173,6.1035156e-05,1.5258789e-05,0.00024414062
2019-07-01T18:52:38.675Z,-0.00010103887,-0.0066929795,0.46510267,0.107681274,-0.062210083,9.800995,12.34436,11.575317,-56.5979,0.115283884,-0.06280895,9.805771,0.0002522692,0.00012906641,0.0012044907,-6.1035156e-05,0.00019836426,0.00012207031
2019-07-01T18:52:38.877Z,-0.00010766152,-0.0066768774,0.4650699,0.114852905,-0.06460571,9.808182,13.2873535,11.358643,-58.192444,0.114804305,-0.062335856,9.805779,0.0002599433,0.0006166063,0.0017518997,0.00012207031,9.1552734e-05,0.0
2019-07-01T18:52:39.075Z,-0.0001315475,-0.0066992487,0.46516094,0.114852905,-0.06700134,9.8033905,12.24823,11.282349,-57.032776,0.11511024,-0.06340341,9.805769,0.0011417419,-0.0026172101,0.0003709793,0.00012207031,0.0001373291,-0.00018310547
2019-07-01T18:52:39.274Z,-0.00014239723,-0.0067133936,0.46521264,0.1268158,-0.057434082,9.810577,13.574219,10.580444,-58.514404,0.1152531,-0.063727565,9.805765,0.0010141879,-0.001584284,-0.0026369095,0.00024414062,0.00019836426,-0.00024414062
2019-07-01T18:52:39.479Z,-0.00013862412,-0.0067256107,0.46523923,0.114852905,-0.062210083,9.8033905,12.586975,11.592102,-56.53076,0.11549771,-0.06377701,9.805762,0.0017279238,-0.00034303963,0.0004749298,6.1035156e-05,0.00032043457,-0.00012207031
2019-07-01T18:52:39.684Z,-0.00014979967,-0.0067086015,0.46521035,0.119644165,-0.06939697,9.800995,12.11853,12.229919,-58.120728,0.11510254,-0.06381206,9.805767,-0.00026866794,-6.593019e-05,-0.0006418228,0.0,0.0001373291,0.0
2019-07-01T18:52:39.897Z,-0.0001232496,-0.0067436458,0.465265,0.110076904,-0.062210083,9.805786,12.306213,10.928345,-57.937622,0.11594923,-0.06367803,9.8057575,0.0017545894,4.336983e-05,-0.00026607513,6.1035156e-05,1.5258789e-05,0.00019836426
2019-07-01T18:52:40.088Z,-0.00014243725,-0.0067407903,0.46528396,0.117248535,-0.062210083,9.796219,12.495422,9.927368,-58.828735,0.1157232,-0.06398757,9.805758,-0.00016600639,-0.00061102957,-0.00081920624,0.0,7.6293945e-05,6.1035156e-05
2019-07-01T18:52:40.295Z,-0.00010843366,-0.0067588747,0.46528426,0.119644165,-0.062210083,9.808182,12.3703,10.644531,-58.37555,0.11634742,-0.06356232,9.805754,0.0011345223,0.00039680302,-0.00038433075,0.00012207031,-3.0517578e-05,0.00032043457
2019-07-01T18:52:40.496Z,-7.936067e-05,-0.0067823376,0.4653053,0.117248535,-0.06460571,9.812973,13.023376,10.679626,-57.414246,0.117018536,-0.0632745,9.805748,0.0014194921,0.00058476627,0.00085258484,0.0,1.5258789e-05,0.00032043457
2019-07-01T18:52:40.701Z,-3.6800167e-05,-0.006797806,0.46528703,0.119644165,-0.062210083,9.817749,12.805176,11.326599,-58.103943,0.117676765,-0.06267438,9.805744,0.0009817854,0.00119441,0.001373291,0.0,-9.1552734e-05,6.1035156e-05
2019-07-01T18:52:40.906Z,-3.1979886e-05,-0.006807107,0.46530458,0.112457275,-0.062210083,9.812973,13.508606,10.864258,-58.15277,0.11788096,-0.06267791,9.805741,5.8710575e-05,-0.00047963858,0.00027561188,0.00012207031,-9.1552734e-05,0.0
2019-07-01T18:52:41.107Z,-4.842395e-05,-0.006760192,0.4652052,0.112457275,-0.062210083,9.808182,12.460327,12.463379,-56.951904,0.11692351,-0.062522106,9.805754,-0.001611948,-0.000160411,0.0006599426,0.00012207031,7.6293945e-05,6.1035156e-05
2019-07-01T18:52:41.309Z,-8.7157976e-05,-0.006753725,0.4652416,0.119644165,-0.062210083,9.812973,12.904358,11.772156,-58.16803,0.11645523,-0.06314036,9.805756,-0.0004195422,-0.001697205,-0.0011606216,0.00012207031,0.0001373291,6.1035156e-05
2019-07-01T18:52:41.513Z,-8.649826e-05,-0.0067299292,0.46517882,0.110076904,-0.062210083,9.820145,13.50708,11.018372,-59.176636,0.11605261,-0.06290354,9.805761,-0.0007493794,0.00023273379,2.9563904e-05,6.1035156e-05,1.5258789e-05,-0.00012207031
2019-07-01T18:52:41.718Z,-0.000104875166,-0.00669588,0.4651155,0.117248535,-0.06460571,9.8033905,12.893677,11.552429,-57.98645,0.115298346,-0.062903695,9.805771,-0.0011954606,-0.0002497658,0.0017671585,6.1035156e-05,7.6293945e-05,-6.1035156e-05
2019-07-01T18:52:41.917Z,-8.457365e-05,-0.0067261877,0.46516642,0.122039795,-0.06700134,9.810577,12.104797,11.940002,-58.328247,0.1160061,-0.06283437,9.805762,0.0014595985,-0.00056654215,-0.0010519028,0.00018310547,1.5258789e-05,-0.00012207031
2019-07-01T18:52:42.120Z,-7.92927e-05,-0.006713807,0.46512696,0.107681274,-0.06460571,9.800995,12.068176,11.061096,-58.05359,0.11584214,-0.062624566,9.805766,0.00066453964,-0.0002893284,-0.00039196014,0.00018310547,0.0002593994,-0.00012207031
2019-07-01T18:52:42.321Z,-0.00010427703,-0.006720228,0.465178,0.117248535,-0.062210083,9.810577,12.484741,11.224365,-57.130432,0.115722045,-0.06312359,9.805764,0.0003046468,-0.0017089993,0.0011692047,0.00018310547,0.0001373291,6.1035156e-05
2019-07-01T18:52:42.524Z,-0.000110561865,-0.0067190067,0.46518347,0.114852905,-0.06939697,9.805786,12.342834,11.882019,-58.27484,0.11564312,-0.06322228,9.805765,-0.00010180473,-0.00089468807,-0.0004940033,0.00018310547,1.5258789e-05,0.00012207031
2019-07-01T18:52:42.728Z,-0.00011829899,-0.0067107575,0.46517265,0.117248535,-0.055038452,9.8033905,13.415527,12.310791,-57.32422,0.11543008,-0.06327993,9.805766,-0.00036258996,0.00012474507,0.0001487732,-6.1035156e-05,1.5258789e-05,0.00012207031
2019-07-01T18:52:42.934Z,-6.925189e-05,-0.006739672,0.46518046,0.122039795,-0.06460571,9.812973,12.428284,11.810303,-57.536316,0.11637899,-0.06269322,9.805759,0.0013149157,-0.00021912903,-0.00037956238,0.00036621094,-0.00015258789,0.00038146973
2019-07-01T18:52:43.162Z,-8.713927e-05,-0.006739325,0.46520412,0.112457275,-0.055038452,9.808182,12.895203,11.625671,-58.273315,0.116208084,-0.06300372,9.805759,-0.0004331693,-0.00086352974,0.0019750595,6.1035156e-05,-3.0517578e-05,0.00012207031
2019-07-01T18:52:43.335Z,-6.447527e-05,-0.0067023225,0.46507674,0.117248535,-0.057434082,9.7986145,12.406921,11.296082,-57.41577,0.11578146,-0.062255964,9.805769,-0.0012100711,0.0010272749,-0.00027942657,0.00012207031,-9.1552734e-05,0.0
2019-07-01T18:52:43.537Z,-8.564332e-05,-0.006703426,0.4651087,0.122039795,-0.062210083,9.805786,12.379456,10.635376,-57.170105,0.115605265,-0.06263773,9.805768,-6.674975e-05,-0.0005165562,-0.0009803772,-6.1035156e-05,7.6293945e-05,0.00012207031
2019-07-01T18:52:43.746Z,-0.00010056122,-0.0067280675,0.4651933,0.110076904,-0.06460571,9.800995,12.426758,11.734009,-57.250977,0.11589096,-0.06313261,9.805762,0.00085572153,-0.0017015412,-0.0004930496,0.00018310547,7.6293945e-05,-0.00018310547
2019-07-01T18:52:43.969Z,-9.098914e-05,-0.0067140283,0.46514362,0.114852905,-0.06460571,9.8033905,12.268066,11.642456,-56.20575,0.115738094,-0.062831834,9.805766,-0.0009063408,0.00014495105,-0.0012836456,0.00012207031,-0.00015258789,0.00012207031
2019-07-01T18:52:44.153Z,-0.00012749083,-0.006691932,0.46513632,0.124420166,-0.06460571,9.812973,12.593079,11.585999,-55.700684,0.115021996,-0.06326304,9.805771,-0.0013770685,-0.0010887459,-0.00054073334,6.1035156e-05,1.5258789e-05,0.00012207031
2019-07-01T18:52:44.351Z,-0.00011647653,-0.0067085098,0.4651643,0.117248535,-0.06700134,9.808182,12.541199,10.951233,-58.84857,0.11540829,-0.06322669,9.805767,0.0015652552,-0.0006449595,0.0021886826,0.00018310547,0.00019836426,6.1035156e-05
2019-07-01T18:52:44.578Z,-9.925899e-05,-0.0066961483,0.46510848,0.117248535,-0.06700134,9.805786,13.761902,11.099243,-57.888794,0.11535473,-0.06280772,9.805771,0.00018437207,0.00012622029,2.193451e-05,0.00018310547,7.6293945e-05,-0.00012207031
2019-07-01T18:52:44.756Z,-9.181907e-05,-0.006722661,0.46516722,0.119644165,-0.059814453,9.8033905,11.715698,10.38208,-58.251953,0.115878716,-0.06292809,9.805763,0.001340434,-0.0004714802,-0.00031280518,6.1035156e-05,7.6293945e-05,6.1035156e-05
2019-07-01T18:52:44.958Z,-0.00010033675,-0.0067240475,0.46518254,0.110076904,-0.07417297,9.82254,12.600708,11.961365,-56.90918,0.115823984,-0.06309062,9.805763,-3.9838254e-05,-0.00030852854,0.00011730194,0.0,1.5258789e-05,0.00038146973
2019-07-01T18:52:45.164Z,-0.00016031615,-0.0067262477,0.46527073,0.119644165,-0.059814453,9.812973,13.137817,11.338806,-56.83136,0.115308546,-0.06416351,9.805762,-0.00072232634,-0.0018639788,-0.0011758804,-6.1035156e-05,3.0517578e-05,0.0
2019-07-01T18:52:45.366Z,-0.000148571,-0.0067546065,0.46532834,0.112457275,-0.06460571,9.805786,13.017273,10.610962,-57.728577,0.11590384,-0.06422594,9.805755,0.0008479506,0.000594683,0.00017547607,-0.00018310547,-9.1552734e-05,0.00032043457
2019-07-01T18:52:45.562Z,-0.0001567083,-0.006777648,0.46539944,0.107681274,-0.06460571,9.805786,13.008118,10.466003,-58.06122,0.11622437,-0.06458684,9.805749,0.0005265996,-0.00024937838,0.000118255615,-0.00012207031,-3.0517578e-05,6.1035156e-05
2019-07-01T18:52:45.796Z,-0.00015920497,-0.0067234486,0.4652619,0.114852905,-0.06460571,9.808182,12.882996,11.030579,-56.65741,0.11527073,-0.06411753,9.805762,-0.0018693432,-5.595386e-06,-0.0011949539,0.00024414062,1.5258789e-05,-0.00024414062
2019-07-01T18:52:45.977Z,-0.00012340468,-0.006722026,0.46520898,0.114852905,-0.062210083,9.817749,12.64801,11.31134,-57.421875,0.11557652,-0.06347612,9.805763,0.0016415715,0.0010386184,0.0022306442,6.1035156e-05,0.0002593994,0.00012207031
2019-07-01T18:52:46.176Z,-9.543062e-05,-0.0067376527,0.46521118,0.114852905,-0.057434082,9.800995,13.969421,12.130737,-57.60956,0.116102904,-0.06313334,9.80576,0.0011156499,0.00069541484,-0.00010967255,0.0,1.5258789e-05,0.00019836426
2019-07-01T18:52:46.374Z,-9.7613556e-05,-0.0067177173,0.4651623,0.112457275,-0.06460571,9.805786,12.373352,10.794067,-58.724976,0.115740374,-0.06298295,9.805765,-0.00019973516,-0.00064545125,-7.724762e-05,0.00024414062,0.0001373291,-0.00012207031
2019-07-01T18:52:46.579Z,-8.6899534e-05,-0.006684007,0.4650599,0.114852905,-0.06460571,9.805786,12.9470825,11.128235,-59.35974,0.11526012,-0.062476046,9.805774,-0.0006678179,0.0010003261,0.00042533875,0.0,7.6293945e-05,-0.00024414062
2019-07-01T18:52:46.790Z,-0.00010601462,-0.00669001,0.46510178,0.119644165,-0.059814453,9.808182,12.858582,12.646484,-58.592224,0.115187004,-0.06286814,9.805772,0.0006021708,-0.0017239079,-0.0011558533,0.00024414062,0.00019836426,-0.00012207031
2019-07-01T18:52:47.089Z,-8.518928e-05,-0.00672257,0.46515787,0.119644165,-0.062210083,9.7986145,12.800598,11.332703,-58.8562,0.11593828,-0.06281093,9.805763,0.0022535995,0.00012229383,-0.0012521744,0.0,0.00019836426,0.0
2019-07-01T18:52:47.205Z,-0.00010811573,-0.006724968,0.46519563,0.122039795,-0.057434082,9.7986145,14.437866,12.025452,-59.010315,0.11576806,-0.06323579,9.805763,-0.00023833662,-0.001347892,0.0037927628,0.00012207031,1.5258789e-05,-6.1035156e-05
2019-07-01T18:52:47.390Z,-4.3921984e-05,-0.0067316163,0.4651247,0.119644165,-0.06939697,9.812973,13.374329,11.51123,-58.164978,0.11647416,-0.06217262,9.805761,0.001699008,0.0016605817,-0.000667572,0.00012207031,7.6293945e-05,0.0
2019-07-01T18:52:47.595Z,-7.932582e-05,-0.006759704,0.46524638,0.117248535,-0.055038452,9.815353,13.682556,11.4730835,-59.99756,0.11663016,-0.06305958,9.805755,0.0013013035,-0.0024889186,-0.00045108795,0.00018310547,0.0002593994,-0.00024414062
2019-07-01T18:52:47.798Z,-7.1850096e-05,-0.006743192,0.46519318,0.112457275,-0.06700134,9.836899,13.07373,10.78949,-61.697388,0.1164155,-0.062772125,9.805758,0.00032761693,-0.00013765693,-0.00030517578,0.00018310547,0.00019836426,-0.00018310547
2019-07-01T18:52:47.999Z,-0.00010477716,-0.006737815,0.46522444,0.112457275,-0.06939697,9.824936,12.945557,11.203003,-59.794617,0.11601949,-0.06329882,9.805759,-0.0004871264,-0.001530461,0.00091362,0.00012207031,7.6293945e-05,0.0
2019-07-01T18:52:48.206Z,-9.216916e-05,-0.006738995,0.4652102,0.122039795,-0.06460571,9.808182,13.746643,10.884094,-58.610535,0.11615604,-0.063088834,9.80576,0.00080695003,-6.006658e-05,0.0006055832,0.00012207031,0.0001373291,-0.00012207031
2019-07-01T18:52:48.409Z,-8.668215e-05,-0.0068019554,0.46536636,0.110076904,-0.06700134,9.800995,13.690186,9.794617,-59.735107,0.117287874,-0.06358873,9.805742,0.0027896613,-0.001468502,-0.00040340424,0.00012207031,0.0001373291,0.0
2019-07-01T18:52:48.607Z,-0.00011964399,-0.006834322,0.46549585,0.1268158,-0.06460571,9.808182,11.807251,10.681152,-58.572388,0.11753944,-0.06447356,9.805735,0.00038518012,-0.0010709241,0.00021076202,-0.00018310547,-3.0517578e-05,-0.00012207031
2019-07-01T18:52:48.813Z,-0.00011823257,-0.0068076896,0.46542466,0.110076904,-0.062210083,9.810577,12.554932,11.242676,-58.641052,0.11709521,-0.06419648,9.80574,-0.0006008148,-0.00014481694,-0.00065517426,0.00018310547,7.6293945e-05,6.1035156e-05
2019-07-01T18:52:49.242Z,-9.007051e-05,-0.0067980606,0.4653609,0.124420166,-0.06460571,9.808182,12.5564575,11.16333,-57.97577,0.11718974,-0.063611284,9.805744,0.00026096404,0.00093569607,0.000834465,6.1035156e-05,1.5258789e-05,0.00012207031
2019-07-01T18:52:49.248Z,0.0,0.0,0.0,0.0,0.0,0.0,0.0,0.0,0.0,0.0,0.0,0.0,0.0,0.0,0.0,0.0,0.0,0.0
2019-07-01T18:52:49.420Z,-8.541595e-05,-0.0067692734,0.46527964,0.112457275,-0.062210083,9.805786,11.911011,11.274719,-58.984375,0.11673831,-0.06325701,9.805751,-0.002147615,-0.0018036664,0.0001039505,0.00024414062,7.6293945e-05,0.0
2019-07-01T18:52:49.613Z,-0.00010087272,-0.006770708,0.46530464,0.122039795,-0.06460571,9.810577,13.034058,10.975647,-57.730103,0.11662038,-0.06354173,9.805751,-0.00036115944,-8.741021e-05,-0.00088596344,-0.00012207031,-3.0517578e-05,0.00012207031
2019-07-01T18:52:49.817Z,-0.000121909216,-0.006718048,0.46519658,0.114852905,-0.06460571,9.805786,13.208008,11.125183,-56.726074,0.11552199,-0.06341224,9.805764,-0.0018918514,-0.00021428615,0.0008420944,0.00012207031,7.6293945e-05,6.1035156e-05
2019-07-01T18:52:50.019Z,-0.00010580729,-0.0067137056,0.46516314,0.114852905,-0.059814453,9.815353,11.091614,10.777283,-58.14514,0.11559591,-0.06308871,9.805765,0.00019270182,0.000419572,-0.0011892319,6.1035156e-05,1.5258789e-05,0.0
2019-07-01T18:52:50.239Z,-0.00011944768,-0.0066910307,0.4651229,0.114852905,-0.062210083,9.812973,12.469482,11.012268,-58.003235,0.115080684,-0.06311343,9.805772,-0.00025698543,-0.00028607994,0.0006380081,6.1035156e-05,0.00019836426,6.1035156e-05
2019-07-01T18:52:50.436Z,-0.00014257511,-0.0067251674,0.46524352,0.114852905,-0.059814453,9.815353,13.101196,10.917664,-59.106445,0.11545366,-0.06384212,9.805763,0.0008035004,-0.0014641285,0.00010967255,0.0,1.5258789e-05,-0.00012207031
2019-07-01T18:52:50.638Z,-0.00014794958,-0.006733315,0.4652721,0.117248535,-0.06460571,9.808182,12.487793,11.529541,-58.65326,0.115543984,-0.064013496,9.80576,0.00024159998,-0.00033221394,-0.0002527237,0.0,1.5258789e-05,0.00019836426
2019-07-01T18:52:50.843Z,-0.000116477924,-0.0067199534,0.46519408,0.117248535,-0.055038452,9.812973,13.371277,11.439514,-58.406067,0.115604825,-0.06333502,9.805765,0.00089511275,0.0006538704,0.0004682541,0.00018310547,0.00019836426,0.00012207031
2019-07-01T18:52:51.045Z,-9.7400334e-05,-0.0067075635,0.4651356,0.114852905,-0.06460571,9.8033905,12.748718,11.984253,-58.57086,0.11556793,-0.06288312,9.805767,0.00021769106,-2.8572977e-05,-0.00048446655,0.00024414062,7.6293945e-05,0.00012207031
2019-07-01T18:52:51.236Z,-9.738116e-05,-0.00673414,0.46520472,0.112457275,-0.06460571,9.805786,12.625122,11.029053,-58.761597,0.116024576,-0.0631343,9.80576,0.00095769763,-0.00049807876,-0.0011262894,0.0,1.5258789e-05,-6.1035156e-05
2019-07-01T18:52:51.461Z,-9.574148e-05,-0.006746545,0.46523473,0.110076904,-0.06700134,9.810577,12.394714,11.152649,-57.97119,0.11625275,-0.06322296,9.8057575,0.0014500618,6.176531e-05,-0.0005912781,-6.1035156e-05,0.0002593994,0.0
2019-07-01T18:52:51.644Z,-0.0001004951,-0.0067108287,0.46514836,0.117248535,-0.071777344,9.812973,12.553406,11.09314,-58.06732,0.115595475,-0.0629683,9.805766,-0.0012393221,-0.00019016117,0.000875473,0.00018310547,1.5258789e-05,0.0002593994
2019-07-01T18:52:51.855Z,-6.997774e-05,-0.006764637,0.46524638,0.110076904,-0.062210083,9.8033905,12.910461,11.917114,-58.062744,0.1168011,-0.0629423,9.805754,0.0011384487,0.0009904578,-0.0012016296,0.00012207031,-3.0517578e-05,0.00012207031
2019-07-01T18:52:52.056Z,-8.758398e-05,-0.0067568305,0.46525028,0.119644165,-0.062210083,9.808182,12.980652,11.625671,-57.67212,0.11650463,-0.063177235,9.805755,-0.00071359426,-0.00022573024,-0.00048446655,-6.1035156e-05,-3.0517578e-05,0.00012207031
2019-07-01T18:52:52.256Z,-7.635953e-05,-0.0066855503,0.46504942,0.117248535,-0.062210083,9.817749,12.11853,10.560608,-59.062195,0.11538378,-0.062305752,9.805773,-0.0017335042,0.0010484345,-0.0017614365,0.00018310547,0.0001373291,0.0
2019-07-01T18:52:52.451Z,-9.724886e-05,-0.0067358315,0.46520895,0.110076904,-0.062210083,9.800995,12.869263,10.966492,-57.95288,0.116054855,-0.06314799,9.80576,0.0014188588,-0.0014474019,0.0010633469,-6.1035156e-05,1.5258789e-05,0.00019836426
2019-07-01T18:52:52.655Z,-0.00010866537,-0.0066981865,0.4651267,0.119644165,-0.062210083,9.812973,13.858032,11.315918,-57.017517,0.11530301,-0.062992,9.80577,-0.0014352053,0.00030662864,0.0008611679,0.0,1.5258789e-05,0.0
2019-07-01T18:52:52.861Z,-9.8537996e-05,-0.0067059146,0.4651329,0.105285645,-0.06700134,9.810577,13.60321,11.087036,-57.73163,0.11552913,-0.062887475,9.805768,0.0007373616,-2.848357e-05,-0.00053691864,6.1035156e-05,7.6293945e-05,-0.00012207031
2019-07-01T18:52:53.062Z,-0.00010833512,-0.0066553415,0.4650148,0.114852905,-0.055038452,9.800995,12.176514,11.647034,-57.78656,0.1145701,-0.06258092,9.805781,-0.0016391352,0.00037880987,-0.0010004044,6.1035156e-05,7.6293945e-05,-0.00012207031
2019-07-01T18:52:53.266Z,-0.00012063729,-0.006661003,0.4650464,0.112457275,-0.057434082,9.8033905,12.966919,11.33728,-57.95746,0.11455396,-0.06285026,9.80578,0.00075971335,-0.0005501732,0.0021982193,0.0,0.00019836426,6.1035156e-05
2019-07-01T18:52:53.468Z,-0.000116761184,-0.0066538667,0.4650225,0.114852905,-0.062210083,9.808182,12.614441,10.656738,-58.00476,0.11446709,-0.06271477,9.805781,0.00012741238,-0.00019630045,0.00034427643,0.00012207031,7.6293945e-05,0.00012207031
2019-07-01T18:52:53.666Z,-0.0001146541,-0.0066821445,0.4650932,0.114852905,-0.062210083,9.810577,12.574768,11.453247,-57.313538,0.11497225,-0.06294528,9.805774,0.0012913346,-0.00045730174,-0.0010433197,0.0,7.6293945e-05,-6.1035156e-05
2019-07-01T18:52:53.872Z,-0.000108758104,-0.006684388,0.46509093,0.112457275,-0.06460571,9.812973,11.862183,12.001038,-58.909607,0.11506515,-0.06286308,9.805774,0.0004824996,-0.00029605627,-0.0002193451,0.00012207031,7.6293945e-05,0.00019836426
2019-07-01T18:52:54.075Z,-9.189264e-05,-0.006683642,0.4650658,0.117248535,-0.06460571,9.800995,12.568665,11.381531,-57.85675,0.11520781,-0.06256018,9.805774,0.00033976883,0.00036230683,5.722046e-06,6.1035156e-05,1.5258789e-05,-0.00018310547
2019-07-01T18:52:54.277Z,-0.00012872659,-0.0066535617,0.46503818,0.122039795,-0.06700134,9.808182,12.75177,11.981201,-58.117676,0.114351556,-0.06292177,9.805781,-0.0016668141,-0.0004845783,-0.00095272064,-6.1035156e-05,1.5258789e-05,-6.1035156e-05
2019-07-01T18:52:54.481Z,-0.00010999866,-0.006688782,0.46510407,0.114852905,-0.06460571,9.808182,11.679077,11.250305,-57.54547,0.11512917,-0.062926404,9.805772,0.0020976663,-0.0009502843,0.0008058548,0.00024414062,0.0001373291,0.00012207031
2019-07-01T18:52:54.687Z,-0.000102568185,-0.0066689616,0.4650423,0.124420166,-0.071777344,9.812973,13.517761,10.932922,-57.382202,0.11485723,-0.06260858,9.805778,-2.156198e-05,0.00040789694,-0.000746727,6.1035156e-05,0.0001373291,6.1035156e-05
2019-07-01T18:52:54.903Z,-6.715684e-05,-0.006711881,0.46510527,0.124420166,-0.055038452,9.808182,12.315369,11.071777,-57.380676,0.11592094,-0.06239345,9.805766,0.0020225868,0.00019530207,0.0007839203,6.1035156e-05,-3.0517578e-05,0.00012207031
2019-07-01T18:52:55.093Z,-4.8697606e-05,-0.0067478996,0.4651736,0.119644165,-0.06700134,9.810577,12.7960205,11.181641,-58.36029,0.11670984,-0.062410533,9.8057575,0.0014735535,-2.9545277e-05,0.0006761551,0.0,-3.0517578e-05,0.00019836426
2019-07-01T18:52:55.308Z,-5.8477115e-05,-0.0067481487,0.46518767,0.122039795,-0.059814453,9.7986145,13.308716,11.795044,-57.878113,0.11662394,-0.062584445,9.805757,-0.00011599809,-0.0005743727,-0.00050640106,6.1035156e-05,1.5258789e-05,0.00012207031
2019-07-01T18:52:55.495Z,-5.2066804e-05,-0.0067466414,0.46517494,0.117248535,-0.06460571,9.808182,12.710571,11.029053,-58.00934,0.11665717,-0.06245773,9.8057575,0.0010486171,0.00025609136,-0.0012979507,0.0,0.0002593994,-0.00012207031
2019-07-01T18:52:55.697Z,-8.597414e-05,-0.0067001875,0.46510074,0.117248535,-0.06939697,9.8033905,13.162231,12.001038,-57.302856,0.115546584,-0.06261289,9.805769,-0.0016766861,-0.0005467385,0.0010442734,6.1035156e-05,0.0001373291,0.00012207031
2019-07-01T18:52:55.921Z,-0.00011149193,-0.0067220354,0.46519265,0.117248535,-0.059814453,9.8033905,13.061523,11.633301,-57.824707,0.11568655,-0.06326725,9.805763,0.0010602176,-0.0010785982,0.0011720657,-6.1035156e-05,0.00019836426,6.1035156e-05
2019-07-01T18:52:56.116Z,-9.233513e-05,-0.006711773,0.4651396,0.117248535,-0.062210083,9.8033905,12.513733,11.732483,-56.573486,0.11568694,-0.0628341,9.805766,-0.00013704598,0.00063497573,-0.0014467239,6.1035156e-05,-3.0517578e-05,-0.00012207031
2019-07-01T18:52:56.309Z,-0.000119979726,-0.0067228978,0.46520653,0.107681274,-0.06700134,9.8033905,12.362671,12.245178,-57.82318,0.11562308,-0.0634243,9.805763,0.00064113736,-0.0016570762,0.00046634674,0.00012207031,0.00019836426,-6.1035156e-05
2019-07-01T18:52:56.520Z,-8.415937e-05,-0.0067048115,0.46511024,0.119644165,-0.06460571,9.7986145,12.988281,11.773682,-57.71942,0.11564275,-0.06262481,9.805768,-8.992106e-05,0.0013701096,-0.00097084045,6.1035156e-05,-3.0517578e-05,0.0
2019-07-01T18:52:56.736Z,-8.676251e-05,-0.006694011,0.46508574,0.110076904,-0.059814453,9.805786,12.562561,11.083984,-56.861877,0.11543322,-0.062568285,9.805771,0.000118725,0.0001238808,0.00015449524,0.0,0.0001373291,0.0002593994
2019-07-01T18:52:56.913Z,-9.820095e-05,-0.0066772313,0.4650578,0.119644165,-0.059814453,9.817749,13.064575,11.555481,-56.93512,0.11503954,-0.062610194,9.805776,-0.0009167865,-8.109957e-05,-0.00085258484,0.0,-3.0517578e-05,-6.1035156e-05
2019-07-01T18:52:57.116Z,-8.029135e-05,-0.006721894,0.46514937,0.119644165,-0.059814453,9.808182,13.397217,11.795044,-57.051086,0.11597184,-0.062718615,9.805764,0.0015081242,-0.0011630654,-9.059906e-05,0.00024414062,-9.1552734e-05,-0.00012207031
2019-07-01T18:52:57.337Z,-7.5419906e-05,-0.006713241,0.46512017,0.112457275,-0.059814453,9.810577,11.210632,11.581421,-57.533264,0.115868114,-0.06255127,9.805766,-0.0003150478,-0.0001379177,0.0007324219,0.00012207031,-3.0517578e-05,6.1035156e-05
2019-07-01T18:52:57.523Z,-0.00010822588,-0.006691229,0.465108,0.110076904,-0.06460571,9.8033905,12.744141,11.682129,-57.273865,0.115187556,-0.06291846,9.805772,-0.0012976006,-0.0009608567,9.536743e-06,6.1035156e-05,1.5258789e-05,0.00019836426
2019-07-01T18:52:57.743Z,-0.000100627025,-0.0066475417,0.46498388,0.110076904,-0.055038452,9.808182,12.194824,10.342407,-58.354187,0.11450715,-0.062371947,9.805783,-0.00085186213,0.00039479136,-0.0015945435,0.00018310547,0.0001373291,-6.1035156e-05
2019-07-01T18:52:57.940Z,-0.00010242019,-0.006714156,0.46515965,0.112457275,-0.06700134,9.808182,13.554382,11.810303,-57.582092,0.11563488,-0.06303356,9.805766,0.0025631487,-0.0008485541,0.0006971359,-0.00012207031,7.6293945e-05,0.00019836426
2019-07-01T18:52:58.142Z,-6.981271e-05,-0.006712867,0.4651115,0.114852905,-0.06700134,9.805786,12.112427,11.932373,-57.273865,0.11591339,-0.06244937,9.805766,0.00085226446,0.0004734844,-0.0003414154,0.00018310547,7.6293945e-05,0.00019836426
2019-07-01T18:52:58.339Z,-0.0001103023,-0.006657777,0.46502382,0.117248535,-0.062210083,9.810577,12.471008,10.861206,-57.12738,0.1145938,-0.062638454,9.80578,-0.00023380667,0.000912264,0.0006990433,0.00012207031,-3.0517578e-05,0.0
2019-07-01T18:52:58.551Z,-0.00010735783,-0.0066734273,0.4650605,0.117248535,-0.071777344,9.805786,12.001038,11.193848,-57.191467,0.114889786,-0.062734835,9.805777,0.00089888275,-0.000666745,0.0009422302,0.00012207031,7.6293945e-05,6.1035156e-05
2019-07-01T18:52:58.753Z,-0.0001264484,-0.0066952384,0.46514347,0.110076904,-0.059814453,9.808182,12.051392,12.364197,-57.25708,0.1150884,-0.06327604,9.805771,0.0006982982,-0.0013145506,0.00031089783,6.1035156e-05,7.6293945e-05,0.00012207031
2019-07-01T18:52:58.949Z,-0.00017107926,-0.006717953,0.46526393,0.107681274,-0.06460571,9.800995,13.819885,10.667419,-58.354187,0.115066834,-0.0642738,9.805765,0.00024930388,-0.0017522573,-0.0004339218,-6.1035156e-05,7.6293945e-05,0.00012207031
2019-07-01T18:52:59.153Z,-0.00015344935,-0.0066615073,0.46509284,0.112457275,-0.059814453,9.805786,13.156128,10.336304,-58.84857,0.11426009,-0.063430555,9.805779,-0.0011012256,0.0012291148,-0.0015745163,0.00012207031,0.0001373291,6.1035156e-05
2019-07-01T18:52:59.359Z,-0.00011419537,-0.0066738897,0.46507108,0.117248535,-0.06939697,9.812973,13.700867,10.014343,-59.539795,0.114834696,-0.06285915,9.805777,0.0012075529,0.0013750345,6.9618225e-05,-6.1035156e-05,1.5258789e-05,-6.1035156e-05
2019-07-01T18:52:59.562Z,-0.00013092946,-0.006686686,0.46512738,0.114852905,-0.06700134,9.800995,13.197327,11.135864,-58.158875,0.11490019,-0.06327372,9.805773,0.00089565665,-0.0006047189,0.00036907196,-6.1035156e-05,0.00019836426,-0.00018310547
2019-07-01T18:52:59.807Z,-0.00013145758,-0.006648448,0.4650286,0.119644165,-0.06460571,9.810577,12.70752,11.1831665,-59.184265,0.114238545,-0.062921315,9.805783,-0.00034199655,0.00047276914,-0.0013551712,6.1035156e-05,0.0002593994,-0.00012207031
2019-07-01T18:52:59.971Z,-0.00011018911,-0.0066293892,0.4649498,0.110076904,-0.06460571,9.808182,12.583923,10.229492,-59.45282,0.11410718,-0.062368035,9.805788,2.2664666e-05,0.00040532276,-0.0007534027,0.00018310547,7.6293945e-05,0.0
2019-07-01T18:53:00.161Z,-0.00011173824,-0.006680216,0.46508417,0.119644165,-0.059814453,9.810577,13.798523,10.534668,-60.194397,0.11496601,-0.06287589,9.805775,0.002027683,-0.0014798343,0.00077724457,0.00012207031,7.6293945e-05,0.0002593994
2019-07-01T18:53:00.369Z,-8.360514e-05,-0.0066664154,0.4650096,0.112457275,-0.062210083,9.805786,12.966919,11.489868,-58.831787,0.11498828,-0.062251855,9.8057785,0.0008122027,0.0012393929,0.00051498413,0.0,0.00019836426,-0.00012207031
2019-07-01T18:53:00.580Z,-0.00012732609,-0.0067187026,0.46520573,0.119644165,-0.059814453,9.810577,13.027954,11.2838745,-60.009766,0.115483284,-0.06351346,9.805764,0.0010386929,-0.002521418,-0.0007753372,0.0,1.5258789e-05,-6.1035156e-05
2019-07-01T18:53:00.777Z,-0.0001220055,-0.0067250454,0.4652149,0.110076904,-0.06460571,9.812973,13.6154175,11.683655,-59.422302,0.11564129,-0.06348016,9.805763,0.00039938837,-0.00039868802,0.0013942719,0.00012207031,1.5258789e-05,0.00032043457
2019-07-01T18:53:00.979Z,-0.00014326324,-0.0066823848,0.46513316,0.124420166,-0.062210083,9.800995,12.646484,11.158752,-56.695557,0.11471258,-0.06344937,9.805774,-0.0015476346,0.00029166788,0.0012540817,-6.1035156e-05,7.6293945e-05,6.1035156e-05
2019-07-01T18:53:01.186Z,-0.00015256097,-0.0066892006,0.46516368,0.112457275,-0.06460571,9.7986145,12.969971,11.485291,-58.306885,0.114743896,-0.06367693,9.805772,0.00080955774,-0.0009195581,-0.001405716,0.00012207031,0.00019836426,-6.1035156e-05
2019-07-01T18:53:01.385Z,-0.00013778705,-0.0066903336,0.4651463,0.112457275,-0.059814453,9.810577,13.279724,11.13739,-57.785034,0.1148996,-0.06342851,9.805772,-0.00028765947,0.00026379526,-0.0007724762,6.1035156e-05,-0.00015258789,-6.1035156e-05
2019-07-01T18:53:01.589Z,-0.00016341393,-0.006683513,0.4651638,0.112457275,-0.06700134,9.800995,13.464355,11.660767,-57.911682,0.114546135,-0.063813485,9.805774,-0.0001790151,-0.00054097176,0.00012493134,-6.1035156e-05,0.0001373291,-0.00012207031
2019-07-01T18:53:01.793Z,-0.00015653802,-0.0066569145,0.46508512,0.117248535,-0.062210083,9.812973,12.0651245,10.986328,-57.992554,0.11415273,-0.06344129,9.80578,-0.00049941987,0.0007481575,-0.00055885315,0.0,7.6293945e-05,0.0
2019-07-01T18:53:01.992Z,-0.00015813745,-0.0066779037,0.46514195,0.107681274,-0.06700134,9.7986145,11.485291,10.656738,-58.26111,0.11449846,-0.06366787,9.805775,0.00034338236,-0.000687547,0.00026893616,6.1035156e-05,-9.1552734e-05,6.1035156e-05
2019-07-01T18:53:02.197Z,-0.00012670652,-0.0065919557,0.46487504,0.112457275,-0.057434082,9.8033905,12.805176,11.326599,-58.103943,0.11331186,-0.062303916,9.805798,-0.001820676,0.0022563413,0.0016107559,0.00012207031,0.0001373291,0.00019836426
2019-07-01T18:53:02.404Z,-0.0001321476,-0.006594938,0.4648903,0.122039795,-0.052642822,9.791428,12.306213,10.774231,-56.835938,0.11331297,-0.062427547,9.805798,0.0007919073,-0.00025380775,0.0018644333,0.0,0.00019836426,0.00012207031
2019-07-01T18:53:02.602Z,-0.000115035116,-0.0066196425,0.46493107,0.110076904,-0.059814453,9.810577,13.6276245,11.59668,-57.403564,0.11389508,-0.062360898,9.805791,0.0016616359,0.0001581274,-0.0030622482,0.0,0.0001373291,0.00012207031
2019-07-01T18:53:02.806Z,-0.00010578975,-0.006631693,0.46494973,0.114852905,-0.06700134,9.824936,12.475586,11.235046,-58.41217,0.11418729,-0.062312644,9.805787,0.00089243054,-0.00013212487,0.00066280365,6.1035156e-05,7.6293945e-05,0.00024414062
2019-07-01T18:53:03.009Z,-9.6097545e-05,-0.006645255,0.46497172,0.117248535,-0.06700134,9.815353,13.145447,11.560059,-57.01294,0.11450962,-0.062270872,9.805784,0.00055621564,0.00030664355,0.002366066,-6.1035156e-05,-3.0517578e-05,6.1035156e-05
2019-07-01T18:53:03.213Z,-0.00011046869,-0.0066727037,0.4650629,0.107681274,-0.062210083,9.7986145,12.06665,10.986328,-57.84149,0.11484867,-0.062782556,9.805777,0.00092776865,-0.0015583634,0.0010871887,0.0001373291,6.1035156e-05,4.5776367e-05
2019-07-01T18:53:03.415Z,-0.0001168947,-0.0066387122,0.46498325,0.114852905,-0.057434082,9.800995,13.490295,10.653687,-59.249878,0.11420553,-0.062573805,9.805785,-0.0012924224,0.0001373589,-0.00086307526,7.6293945e-05,0.0,0.00018310547
2019-07-01T18:53:03.610Z,-0.00012537572,-0.006641891,0.4650032,0.112457275,-0.059814453,9.805786,12.5061035,11.740112,-57.5531,0.114181966,-0.06275263,9.805784,-0.0002976805,-0.00016220659,-0.0016927719,-4.5776367e-05,-6.1035156e-05,0.00018310547
2019-07-01T18:53:03.827Z,-0.00012363197,-0.0066398783,0.46499556,0.117248535,-0.062210083,9.808182,12.698364,10.812378,-58.277893,0.11416347,-0.06270301,9.805785,-4.6499074e-05,0.0007473752,-0.0006494522,-0.00016784668,0.0,-7.6293945e-05
2019-07-01T18:53:04.027Z,-0.00015545811,-0.006679869,0.46514338,0.117248535,-0.057434082,9.805786,13.198853,10.9817505,-57.05719,0.11455692,-0.06363947,9.805775,0.0012464151,-0.002150394,-0.0013914108,7.6293945e-05,0.00012207031,0.00018310547
2019-07-01T18:53:04.225Z,-0.00010629909,-0.0066595543,0.46502295,0.117248535,-0.057434082,9.805786,12.205505,10.48584,-58.099365,0.11466124,-0.06258505,9.80578,0.0006707907,0.0020431727,-0.00028896332,1.5258789e-05,0.00012207031,-0.00019836426
2019-07-01T18:53:04.427Z,-0.00011087813,-0.006702703,0.4651415,0.114852905,-0.059814453,9.808182,13.018799,10.760498,-58.377075,0.11536018,-0.063073546,9.805769,-0.00087537616,0.00047903508,0.00045681,-0.00010681152,-6.1035156e-05,-1.5258789e-05
2019-07-01T18:53:04.626Z,-8.532185e-05,-0.006697681,0.4650933,0.112457275,-0.062210083,9.800995,13.002014,11.988831,-57.070923,0.11550954,-0.06257773,9.80577,0.00029302388,0.0010911152,-1.04904175e-05,1.5258789e-05,-6.1035156e-05,-0.0001373291
2019-07-01T18:53:04.834Z,-8.9741996e-05,-0.0066737332,0.46503708,0.112457275,-0.055038452,9.8033905,12.983704,11.778259,-58.39691,0.11505743,-0.062428724,9.805777,-0.00021226704,0.00046698377,-0.0006504059,-4.5776367e-05,0.00018310547,-0.0002593994
2019-07-01T18:53:05.036Z,-7.247658e-05,-0.006696107,0.46507156,0.122039795,-0.06460571,9.812973,12.826538,11.84082,-58.14972,0.11560093,-0.062337514,9.805771,0.00067634135,-0.00035547838,0.0003604889,0.0001373291,-0.00010681152,-0.0001373291
2019-07-01T18:53:05.238Z,-9.858233e-05,-0.0067001786,0.46511802,0.105285645,-0.059814453,9.800995,12.312317,11.224365,-58.55713,0.11543018,-0.06283397,9.805769,0.00037068874,-0.0012914613,0.00056266785,7.6293945e-05,0.00018310547,-1.5258789e-05
2019-07-01T18:53:05.445Z,-0.000108273285,-0.006665975,0.46504235,0.119644165,-0.07417297,9.820145,12.031555,11.849976,-57.058716,0.11475333,-0.0626804,9.8057785,-0.00039536506,0.00023815781,0.001490593,1.5258789e-05,0.00024414062,-1.5258789e-05
2019-07-01T18:53:05.641Z,-0.00010066061,-0.0066955327,0.4651088,0.112457275,-0.062210083,9.808182,12.464905,11.018372,-58.68225,0.11533123,-0.06282648,9.805771,0.00071795285,0.00013310462,-0.0021982193,-0.00010681152,-0.00010681152,-1.5258789e-05
2019-07-01T18:53:05.847Z,-0.00013201777,-0.006697862,0.46515796,0.117248535,-0.06700134,9.808182,12.5442505,12.541199,-57.089233,0.1150821,-0.06339855,9.80577,-0.00048888475,-0.0016868785,0.001086235,0.0001373291,0.0,-0.0001373291
2019-07-01T18:53:06.052Z,-9.33244e-05,-0.0066579655,0.46500096,0.117248535,-0.059814453,9.812973,13.050842,11.416626,-58.02002,0.11475353,-0.062342424,9.80578,-0.00016818196,0.001579389,0.0013618469,0.0001373291,0.00012207031,0.00010681152
2019-07-01T18:53:06.255Z,-9.68379e-05,-0.006661682,0.46501547,0.119644165,-0.062210083,9.805786,12.792969,11.03363,-57.86133,0.11478499,-0.062439207,9.805779,0.00076565146,-4.451722e-06,-0.0006914139,-4.5776367e-05,0.00018310547,0.00018310547
2019-07-01T18:53:06.455Z,-8.398778e-05,-0.006691653,0.4650758,0.122039795,-0.06460571,9.810577,12.815857,11.317444,-56.822205,0.1154183,-0.062497303,9.805772,0.0008510947,0.00029687583,-0.00029563904,-0.00010681152,-0.00010681152,-1.5258789e-05
2019-07-01T18:53:06.655Z,-0.00011266764,-0.0067353332,0.46522883,0.114852905,-0.06939697,9.808182,12.702942,12.55188,-57.2464,0.11590409,-0.06341374,9.80576,0.0005944073,-0.0021352991,0.0025100708,7.6293945e-05,-0.00010681152,0.00018310547
2019-07-01T18:53:06.862Z,-9.886869e-05,-0.0067165536,0.46516103,0.117248535,-0.062210083,9.7986145,12.162781,11.203003,-56.970215,0.11570881,-0.06299395,9.805765,-0.00016729534,-0.00016189367,-0.0007200241,0.0002593994,6.1035156e-05,-0.0001373291
2019-07-01T18:53:07.061Z,-6.69748e-05,-0.006729139,0.4651499,0.12921143,-0.057434082,9.805786,12.17804,11.723328,-58.146667,0.11621906,-0.06255358,9.805761,0.0007651225,0.00035437196,-0.0014362335,0.0001373291,-6.1035156e-05,-0.0001373291
2019-07-01T18:53:07.356Z,-7.494643e-05,-0.006725303,0.4651509,0.115097046,-0.06460571,9.808182,12.808228,11.553955,-59.039307,0.116079666,-0.06265711,9.805762,0.00018832833,-0.00050389767,-0.000166893,7.6293945e-05,0.00012207031,-7.6293945e-05
2019-07-01T18:53:07.558Z,-7.005832e-05,-0.0067076595,0.4650983,0.11581421,-0.06341553,9.806976,13.249207,11.921692,-55.96161,0.115821674,-0.0624044,9.805768,-0.000276722,-0.00028042868,0.0010051727,0.00019836426,6.1035156e-05,-0.00032043457
2019-07-01T18:53:07.749Z,-9.796846e-05,-0.0067222323,0.46517456,0.1138916,-0.06364441,9.80986,13.034058,11.050415,-58.018494,0.11581464,-0.0630319,9.805763,0.0002193451,-0.0008433834,-0.0001335144,-0.00010681152,6.1035156e-05,-1.5258789e-05
2019-07-01T18:53:07.946Z,-0.00013195717,-0.006711773,0.46519408,0.119155884,-0.06341553,9.811539,12.689209,10.517883,-57.96051,0.11532158,-0.06352912,9.805767,-0.000730671,-0.0010583475,0.0015068054,1.5258789e-05,6.1035156e-05,0.00010681152
2019-07-01T18:53:08.144Z,-0.0001118964,-0.0067419307,0.46524495,0.11534119,-0.061019897,9.808426,13.293457,11.357117,-57.66449,0.116024494,-0.06346265,9.8057575,0.001185596,0.0003122911,0.0008535385,-4.5776367e-05,-6.1035156e-05,0.00018310547
2019-07-01T18:53:08.343Z,-6.2360625e-05,-0.006727778,0.46514004,0.11628723,-0.06149292,9.810104,13.166809,10.476685,-58.291626,0.11623824,-0.06245976,9.805763,0.00049453974,0.001706969,0.0007209778,7.6293945e-05,1.5258789e-05,-1.5258789e-05
2019-07-01T18:53:08.537Z,-6.657623e-05,-0.0067245713,0.46513748,0.11628723,-0.06341553,9.805786,12.481689,11.381531,-58.68225,0.11614427,-0.06250335,9.805762,-0.0008438751,0.0007882491,-0.0003080368,0.0001373291,-6.1035156e-05,-1.5258789e-05
2019-07-01T18:53:08.734Z,-8.2165636e-05,-0.006716641,0.4651383,0.11653137,-0.06581116,9.809372,13.4552,11.213684,-56.718445,0.11586434,-0.062701784,9.805766,-0.00080391765,-0.0009227991,-0.0006837845,-0.00010681152,0.0,6.1035156e-05
2019-07-01T18:53:08.927Z,-8.846405e-05,-0.0067696553,0.46528482,0.11677551,-0.06317139,9.806503,13.316345,11.868286,-57.485962,0.11671676,-0.063314095,9.805751,0.0016923398,-0.0008025244,-0.0012483597,-4.5776367e-05,-0.00010681152,0.00010681152
2019-07-01T18:53:09.129Z,-0.00012274616,-0.006782678,0.46536583,0.117248535,-0.062210083,9.808182,12.982178,11.625671,-57.521057,0.116624124,-0.06403877,9.805748,-0.0005951673,-0.0012679622,-3.71933e-05,-4.5776367e-05,6.1035156e-05,-0.00018310547
2019-07-01T18:53:09.325Z,-5.944358e-05,-0.006765288,0.4652336,0.117248535,-0.062927246,9.808182,12.957764,10.964966,-57.125854,0.11690941,-0.06276366,9.805752,0.0007991195,0.0027202591,-0.00018787384,0.0001373291,6.1035156e-05,-1.5258789e-05
2019-07-01T18:53:09.513Z,-9.7563796e-05,-0.006739205,0.46521816,0.11532593,-0.065078735,9.807709,12.660217,11.679077,-57.800293,0.116109885,-0.063185446,9.805759,-0.0010394007,-0.0004445091,0.00017929077,0.00019836426,0.00012207031,-0.00038146973
2019-07-01T18:53:09.729Z,-0.00011568967,-0.0067615835,0.46530128,0.11653137,-0.065322876,9.809143,12.831116,11.837769,-57.699585,0.11632701,-0.06371525,9.805754,0.0004249066,-0.0011216775,-0.00052165985,1.5258789e-05,0.0,-0.0001373291
2019-07-01T18:53:09.906Z,-0.00010784575,-0.0067788614,0.46533543,0.117492676,-0.0619812,9.810089,13.131714,11.34491,-57.585144,0.11669607,-0.06374126,9.805749,0.00076074153,-0.0001276955,0.0020427704,1.5258789e-05,0.0,-7.6293945e-05
2019-07-01T18:53:10.108Z,-0.00011176138,-0.0067491587,0.46526355,0.115097046,-0.06556702,9.808182,11.618042,11.831665,-58.255005,0.11614987,-0.06352871,9.805757,-0.0013312548,0.00013193488,-0.00022506714,7.6293945e-05,-6.1035156e-05,-1.5258789e-05
2019-07-01T18:53:10.311Z,-0.00011617468,-0.0067751296,0.46533716,0.11628723,-0.06460571,9.810806,12.084961,11.11908,-56.152344,0.11655513,-0.06385201,9.805749,0.00017738342,-0.00048600882,0.0014400482,-4.5776367e-05,-0.00016784668,-0.0001373291
2019-07-01T18:53:10.509Z,-0.000132624,-0.006759871,0.4653201,0.11628723,-0.062454224,9.807465,12.193298,10.116577,-57.49359,0.116141364,-0.06399607,9.805754,-0.00012399256,-0.00034292787,-0.00031471252,1.5258789e-05,0.00018310547,4.5776367e-05
2019-07-01T18:53:10.718Z,-0.00013395866,-0.006767295,0.46534124,0.11581421,-0.06460571,9.810577,13.009644,10.464478,-57.759094,0.11625652,-0.06408977,9.805751,0.00023409724,0.0004678294,-4.5776367e-05,-0.00016784668,0.0,0.00016784668
2019-07-01T18:53:10.917Z,-0.00013500183,-0.0067723095,0.46535572,0.117492676,-0.06317139,9.808899,13.327026,10.339355,-57.87201,0.116333,-0.06415555,9.80575,0.00015491247,-0.0006703362,0.00044631958,0.0001373291,0.0,-0.0001373291
2019-07-01T18:53:11.118Z,-7.589739e-05,-0.0067932415,0.4653289,0.1179657,-0.062698364,9.809616,13.264465,12.5946045,-57.78961,0.117237724,-0.06331701,9.805744,0.00092846155,0.0020918027,-2.3841858e-05,-0.00010681152,-0.00022888184,4.5776367e-05
2019-07-01T18:53:11.324Z,-8.976707e-05,-0.00676778,0.46528175,0.11557007,-0.062698364,9.807709,13.494873,12.0147705,-56.10504,0.11667254,-0.0633192,9.805752,-0.0008987263,0.0008869022,-0.0004930496,-0.00022888184,6.1035156e-05,0.00010681152
2019-07-01T18:53:11.523Z,-0.00014963494,-0.006750619,0.46531942,0.11534119,-0.06604004,9.808182,13.114929,11.054993,-58.021545,0.115825556,-0.06420685,9.805756,-0.0019493103,-0.0020603538,-0.0016002655,7.6293945e-05,-6.1035156e-05,-1.5258789e-05
2019-07-01T18:53:11.725Z,-0.00016038492,-0.0067836926,0.46542025,0.11653137,-0.065322876,9.808655,13.12561,11.352539,-58.48999,0.11629421,-0.06470857,9.805747,0.0011682808,-0.0005975142,-0.00011062622,-0.00010681152,6.1035156e-05,-0.0001373291
2019-07-01T18:53:11.927Z,-0.00015407299,-0.006788283,0.4654235,0.117004395,-0.0657959,9.80986,12.490845,11.296082,-56.889343,0.116431266,-0.06464133,9.805745,5.993992e-05,0.000302054,0.0016775131,-4.5776367e-05,-6.1035156e-05,4.5776367e-05
2019-07-01T18:53:12.137Z,-0.00017163687,-0.0067855828,0.46544063,0.11605835,-0.062927246,9.808655,12.495422,11.59668,-57.96051,0.116222814,-0.06492382,9.805747,-0.0001970306,-0.00038086623,-0.0012731552,-4.5776367e-05,6.1035156e-05,-1.5258789e-05
2019-07-01T18:53:12.334Z,-0.00013579411,-0.0067708734,0.46535307,0.11677551,-0.06556702,9.808655,13.316345,12.016296,-58.059692,0.116301045,-0.064155854,9.805751,0.0006578192,0.0007654354,0.0021791458,0.00019836426,0.00012207031,0.00018310547
2019-07-01T18:53:12.537Z,-0.00014980197,-0.006791727,0.46542656,0.11773682,-0.06364441,9.809616,12.335205,11.357117,-56.64215,0.11652982,-0.06459904,9.805745,0.0006785989,-0.00094573945,-0.0009393692,1.5258789e-05,6.1035156e-05,-0.0001373291
2019-07-01T18:53:12.744Z,-0.000100654106,-0.0068211607,0.46543553,0.119400024,-0.062927246,9.807709,13.6154175,11.529541,-58.32367,0.11748873,-0.06401575,9.8057375,0.0028386489,0.0013358891,-0.0011072159,-4.5776367e-05,0.00024414062,-0.00032043457
2019-07-01T18:53:12.943Z,-9.4330666e-05,-0.0067753536,0.4653077,0.11581421,-0.065322876,9.806992,11.972046,12.207031,-56.455994,0.11676051,-0.06347097,9.80575,-0.0012244061,0.00031804293,5.2452087e-05,0.00019836426,6.1035156e-05,-0.0001373291
2019-07-01T18:53:13.150Z,-0.0001531423,-0.0067878994,0.4654212,0.11557007,-0.06436157,9.810089,12.364197,10.345459,-57.380676,0.11643328,-0.064621374,9.805746,-0.0004119128,-0.0028324649,0.00051116943,0.0001373291,6.1035156e-05,4.5776367e-05
2019-07-01T18:53:13.350Z,-0.000101312835,-0.0067287963,0.46519622,0.115097046,-0.062454224,9.80722,13.117981,11.053467,-57.71942,0.11589654,-0.063152686,9.805761,-0.001080431,0.0023969784,2.3841858e-05,0.0001373291,0.0,-0.0002593994
2019-07-01T18:53:13.555Z,-0.00012205894,-0.006747745,0.46527404,0.11677551,-0.062454224,9.808899,13.406372,11.938477,-56.56891,0.1160306,-0.06369595,9.805757,0.00047700852,-0.0008967146,-0.0022230148,-4.5776367e-05,6.1035156e-05,-1.5258789e-05
2019-07-01T18:53:13.760Z,-8.2874896e-05,-0.0066982447,0.4650914,0.11366272,-0.062454224,9.8076935,12.484741,11.224365,-57.130432,0.115541786,-0.062540144,9.80577,-0.000962846,0.0017805323,0.0010700226,0.0001373291,0.0,0.00010681152
2019-07-01T18:53:13.958Z,-0.0001258702,-0.0066965646,0.46514612,0.11437988,-0.06460571,9.809616,12.634277,11.096191,-57.84149,0.115116514,-0.063278444,9.805771,-0.0012569353,-0.0010655224,0.0004005432,-0.00010681152,-0.00010681152,4.5776367e-05
2019-07-01T18:53:14.162Z,-0.00014321641,-0.0067008235,0.46518105,0.11437988,-0.065093994,9.806747,11.743164,11.18927,-58.920288,0.115029685,-0.063622996,9.805769,4.4994056e-05,-0.0004973188,-0.0016460419,-4.5776367e-05,6.1035156e-05,0.00010681152
2019-07-01T18:53:14.364Z,-0.00014929366,-0.006705033,0.46520036,0.11557007,-0.062210083,9.804352,13.807678,12.045288,-57.31964,0.11504593,-0.06376942,9.805768,-0.00021081418,-0.000109270215,-0.00078105927,-4.5776367e-05,-6.1035156e-05,4.5776367e-05
2019-07-01T18:53:14.600Z,-9.738652e-05,-0.006677067,0.46505624,0.115097046,-0.061264038,9.806976,12.496948,11.593628,-57.658386,0.11504423,-0.062594354,9.805776,-0.00043203682,0.002053909,-0.0009975433,7.6293945e-05,-0.00010681152,-0.00019836426
2019-07-01T18:53:14.769Z,-8.568262e-05,-0.0066991607,0.46509764,0.11557007,-0.062927246,9.80603,12.281799,12.084961,-56.947327,0.11553164,-0.062598065,9.80577,0.0014543608,0.00015380979,0.0010938644,-4.5776367e-05,0.00012207031,-0.00018310547
2019-07-01T18:53:14.976Z,-8.734514e-05,-0.006706144,0.4651181,0.11557007,-0.0619812,9.805313,12.722778,11.245728,-57.662964,0.11563627,-0.062693305,9.805768,0.00017499179,-3.46452e-06,-0.0026273727,-4.5776367e-05,0.0,-0.0001373291
2019-07-01T18:53:15.179Z,-0.00013201573,-0.0067140944,0.4652002,0.11605835,-0.065078735,9.805786,13.0859375,11.915588,-56.333923,0.115360886,-0.063552104,9.805765,-0.0009774193,-0.0017727464,-0.0011091232,1.5258789e-05,-0.00010681152,-7.6293945e-05
2019-07-01T18:53:15.379Z,-0.00014050811,-0.0067406837,0.46528104,0.11628723,-0.06341553,9.806503,13.218689,11.572266,-57.844543,0.11573917,-0.06395272,9.805758,0.00054089725,-0.0004048869,0.0018157959,-0.00010681152,-6.1035156e-05,-7.6293945e-05
2019-07-01T18:53:15.576Z,-0.00011440668,-0.0066995677,0.4651382,0.11581421,-0.062698364,9.811295,13.204956,11.279297,-57.904053,0.115273796,-0.06310578,9.80577,-0.0004388094,0.001622662,0.0018491745,1.5258789e-05,0.00012207031,-1.5258789e-05
2019-07-01T18:53:15.790Z,-0.00011651951,-0.006728948,0.46521753,0.11437988,-0.06436157,9.808426,12.823486,11.766052,-58.241272,0.115758896,-0.06342086,9.805761,0.0012201145,-0.00069791824,0.0012311935,1.5258789e-05,6.1035156e-05,-1.5258789e-05
2019-07-01T18:53:15.989Z,-0.00015326802,-0.0067076543,0.46521264,0.11557007,-0.06413269,9.806503,12.962341,11.187744,-57.60956,0.11505428,-0.06386393,9.805767,-0.00094380975,-0.00048360974,1.6212463e-05,-0.00010681152,0.00012207031,-0.00019836426
2019-07-01T18:53:16.191Z,-0.00012371725,-0.006701976,0.46515724,0.11581421,-0.06364441,9.807938,12.812805,11.31897,-56.896973,0.1152293,-0.06329188,9.805769,0.00056604296,0.00037499517,-0.0011005402,0.00019836426,6.1035156e-05,-0.0002593994
2019-07-01T18:53:16.396Z,-9.691418e-05,-0.006702571,0.46512195,0.117004395,-0.062454224,9.808426,11.669922,11.103821,-57.80182,0.115486674,-0.062827356,9.805769,0.0007700026,0.0001456216,0.0019693375,0.00019836426,6.1035156e-05,-0.0001373291
2019-07-01T18:53:16.597Z,-7.894805e-05,-0.006745195,0.46520814,0.117492676,-0.06317139,9.809616,12.509155,11.889648,-57.902527,0.11638444,-0.06291559,9.8057575,0.002025023,-0.00023997575,-0.00028514862,1.5258789e-05,6.1035156e-05,-0.0001373291
2019-07-01T18:53:16.795Z,0.00020113059,-0.0066857617,0.46466893,0.107437134,-0.0569458,9.81488,12.419128,11.512756,-56.918335,0.11794318,-0.057438977,9.805773,0.0031561926,0.0059761666,-0.008061409,0.0015411377,1.5258789e-05,-7.6293945e-05
2019-07-01T18:53:17.001Z,-0.0003308261,-0.00667942,0.4653834,0.13040161,-0.0708313,9.803162,11.618042,11.833191,-58.255005,0.11293115,-0.06671072,9.805773,-0.010259837,-0.009872913,-0.0008907318,-0.002243042,-6.1035156e-05,0.00036621094
2019-07-01T18:53:17.210Z,-1.641894e-05,-0.006720061,0.46505684,0.103134155,-0.044509888,9.8022,13.46283,11.512756,-57.41577,0.11652917,-0.061580766,9.805764,0.006405659,0.0037006214,0.012955666,0.0016784668,-0.00024414062,-7.6293945e-05
2019-07-01T18:53:17.403Z,1.0798783e-05,-0.0066940836,0.46495187,0.12921143,-0.076812744,9.815842,12.658691,11.679077,-57.87506,0.116333626,-0.06085745,9.805771,0.0007805452,-0.00080932304,0.014050484,0.0005645752,0.0002593994,0.00018310547
2019-07-01T18:53:17.608Z,-0.00015227812,-0.0066727684,0.46512052,0.10096741,-0.065078735,9.80101,12.179565,11.721802,-57.922363,0.11446429,-0.06351652,9.805776,-0.0053742602,0.0013206303,-0.018201828,-0.0016937256,-0.00036621094,-0.00019836426
2019-07-01T18:53:17.814Z,0.00011496508,-0.006746427,0.46494493,0.12658691,-0.04473877,9.804825,13.294983,11.352539,-57.21283,0.11819284,-0.059525125,9.805757,0.0071849898,0.0009026937,-0.0038585663,0.0018463135,-6.1035156e-05,0.000289917
2019-07-01T18:53:18.015Z,4.1449654e-05,-0.00649704,0.464397,0.10958862,-0.07873535,9.80722,12.95929,11.039734,-57.263184,0.113228545,-0.0584574,9.805822,-0.010100529,0.007252071,0.0006227493,-0.0013275146,-4.5776367e-05,-1.5258789e-05
2019-07-01T18:53:18.220Z,-0.00010744809,-0.0068072756,0.46540877,0.11534119,-0.033981323,9.812012,12.257385,11.730957,-58.377075,0.11718763,-0.06400339,9.805741,0.0072303116,-0.013761111,0.0016946793,0.0006866455,-0.00018310547,-0.00019836426
2019-07-01T18:53:18.420Z,0.00012315396,-0.0065854313,0.46451494,0.11677551,-0.08734131,9.806274,12.870789,10.964966,-57.650757,0.115500264,-0.05785871,9.805799,-0.0032978132,0.01528443,0.0016145706,-0.00077819824,1.5258789e-05,4.5776367e-05
2019-07-01T18:53:18.673Z,-0.00019994461,-0.006653123,0.46513495,0.11366272,-0.033737183,9.807938,12.626648,10.876465,-57.73468,0.11368735,-0.064166754,9.805781,-0.0038755536,-0.015975833,-0.0008420944,0.000869751,-6.1035156e-05,-0.00019836426
2019-07-01T18:53:18.827Z,0.00023402639,-0.0065436973,0.46425423,0.11079407,-0.086380005,9.804352,12.976074,11.480713,-57.551575,0.11580194,-0.05551873,9.80581,0.0038198456,0.01747404,0.00023365021,-4.5776367e-05,-0.00010681152,-1.5258789e-05
2019-07-01T18:53:19.027Z,-0.00021248717,-0.0067261923,0.4653423,0.119400024,-0.039474487,9.810089,12.1521,11.062622,-57.676697,0.11482624,-0.06507802,9.805762,-0.0021391436,-0.020103686,-0.0014429092,0.0002593994,-4.5776367e-05,0.00022888184
2019-07-01T18:53:19.231Z,0.0002154347,-0.006454236,0.4640469,0.10696411,-0.09666443,9.796692,12.57019,11.227417,-56.60553,0.11409156,-0.055000376,9.805832,-0.0014081821,0.021027744,0.00080013275,-0.00022888184,1.5258789e-05,-0.00019836426
2019-07-01T18:53:19.436Z,-0.00027683194,-0.006930795,0.46596295,0.12609863,-0.0064697266,9.8194275,12.501526,11.895752,-58.88214,0.11774285,-0.068145,9.805706,0.0068999752,-0.029468305,0.00021362305,0.0008239746,-0.00010681152,0.00010681152
2019-07-01T18:53:19.641Z,0.00027365907,-0.006337276,0.4636625,0.11317444,-0.10934448,9.804596,12.071228,10.9817505,-57.23877,0.112612575,-0.052875463,9.8058605,-0.008546725,0.034227867,0.0018939972,-0.0009613037,0.00044250488,-0.00030517578
2019-07-01T18:53:19.842Z,-0.00027949476,-0.006855129,0.4657699,0.10958862,-0.01651001,9.808182,12.345886,11.878967,-57.89795,0.11642026,-0.0674743,9.805727,0.0070633665,-0.030401088,-0.0070285797,0.00032043457,-0.00012207031,-0.0001373291
2019-07-01T18:53:20.045Z,0.00034032154,-0.0064074616,0.46375394,0.12275696,-0.09667969,9.805542,12.886047,11.408997,-58.467102,0.11443295,-0.052367132,9.805842,-0.0036650822,0.030360688,0.0063199997,-4.5776367e-05,6.1035156e-05,0.00010681152
2019-07-01T18:53:20.249Z,-0.00027296407,-0.0067529012,0.46549502,0.110076904,-0.0284729,9.810333,12.095642,11.566162,-57.347107,0.11472645,-0.066391446,9.805754,-0.00036668777,-0.027636833,-0.0012140274,-0.00010681152,-0.00024414062,-1.5258789e-05
2019-07-01T18:53:20.454Z,0.0003153255,-0.006523349,0.4640898,0.11868286,-0.0952301,9.804108,12.084961,11.273193,-57.25403,0.116198756,-0.053899623,9.805814,0.0038940012,0.023042426,0.0007791519,0.00050354004,0.00024414062,-1.5258789e-05
2019-07-01T18:53:20.653Z,-0.00026632834,-0.0067719705,0.4655355,0.11581421,-0.03326416,9.808655,13.0355835,11.126709,-58.30536,0.11511498,-0.066455625,9.805749,-0.0021843314,-0.024218753,-0.0017061234,-0.00022888184,0.0,0.00010681152
2019-07-01T18:53:20.857Z,0.00029625796,-0.0065604676,0.46421254,0.11557007,-0.079437256,9.807465,12.808228,11.323547,-57.72705,0.11666245,-0.05458491,9.805804,0.0022388026,0.020859778,0.0018911362,0.00074768066,-0.00022888184,0.00018310547
2019-07-01T18:53:21.060Z,-0.00014812531,-0.006734242,0.46527475,0.11677551,-0.04258728,9.808899,13.111877,10.908508,-57.673645,0.11555829,-0.06402536,9.80576,-0.002632916,-0.016117878,-0.0009698868,-0.0007171631,-0.00010681152,-7.6293945e-05
2019-07-01T18:53:21.260Z,0.00019857846,-0.006594148,0.46443412,0.11317444,-0.07752991,9.807465,12.469482,11.090088,-58.441162,0.11634399,-0.05661751,9.805797,0.0013501644,0.014516585,0.0012655258,7.6293945e-05,-6.1035156e-05,-1.5258789e-05
2019-07-01T18:53:21.464Z,-0.00023344484,-0.00677869,0.46550772,0.11845398,-0.048095703,9.80722,13.639832,11.889648,-57.34253,0.11553393,-0.06594257,9.805748,-0.0014130324,-0.015881844,-0.0021829605,-0.0007171631,6.1035156e-05,-0.0001373291
2019-07-01T18:53:21.668Z,0.00011783399,-0.006579986,0.46450806,0.115097046,-0.07369995,9.806503,12.101746,11.78894,-57.829285,0.11535769,-0.05790061,9.805801,0.00018973649,0.014836416,0.0014181137,0.00032043457,0.0001373291,-0.00012207031
2019-07-01T18:53:21.869Z,-0.00018925994,-0.0067338343,0.46533024,0.11437988,-0.04928589,9.808182,12.1154785,12.156677,-58.13446,0.11517177,-0.064742975,9.80576,-0.0003315434,-0.013496965,-0.0017709732,-4.5776367e-05,1.5258789e-05,6.1035156e-05
2019-07-01T18:53:22.075Z,1.0127371e-05,-0.0066155214,0.4647484,0.11437988,-0.07058716,9.806259,12.564087,11.309814,-57.946777,0.11497726,-0.06012626,9.805792,0.00034171343,0.009646539,0.0016860962,-0.00010681152,0.00018310547,0.00022888184
2019-07-01T18:53:22.277Z,-2.660363e-05,-0.0067531015,0.46515676,0.12036133,-0.055999756,9.811539,13.128662,11.346436,-57.962036,0.117002904,-0.06207218,9.805756,0.0035785437,-0.004199259,0.00016880035,7.6293945e-05,-0.00012207031,-0.00024414062
2019-07-01T18:53:22.478Z,-0.00015245646,-0.0066890237,0.46516305,0.11628723,-0.067474365,9.806747,11.416626,10.870361,-58.213806,0.11474182,-0.06367342,9.805772,-0.003978282,-0.00044232607,0.0012350082,-0.0007171631,0.0001373291,4.5776367e-05
2019-07-01T18:53:22.681Z,-1.3292464e-05,-0.006759249,0.46515447,0.11198425,-0.060302734,9.807938,12.469482,10.9375,-57.714844,0.117231235,-0.061896857,9.805754,0.004542358,0.0020787902,-0.0015687943,0.00038146973,-0.00010681152,-0.00030517578
2019-07-01T18:53:22.878Z,-0.00012220077,-0.0066911224,0.46512693,0.1179657,-0.067474365,9.808182,12.127686,10.551453,-57.855225,0.11505689,-0.063162595,9.805773,-0.0038144514,-0.0007124245,0.0005531311,-0.00047302246,0.0001373291,-1.5258789e-05
2019-07-01T18:53:23.086Z,-8.819193e-05,-0.0066683674,0.46502098,0.11413574,-0.05647278,9.809616,12.722778,11.018372,-56.350708,0.114979535,-0.062350776,9.805778,-0.0003850758,-0.0003315583,0.00084400177,0.00050354004,-6.1035156e-05,-0.00019836426
2019-07-01T18:53:23.288Z,-0.00013431253,-0.0066910028,0.46514326,0.11628723,-0.058380127,9.80986,12.431335,11.956787,-57.80945,0.11494313,-0.0633739,9.805772,-0.0018065572,-0.0026452616,0.0003709793,0.00019836426,-0.00012207031,0.00024414062
2019-07-01T18:53:23.490Z,-0.000110598376,-0.00675786,0.4652846,0.11581421,-0.0717926,9.810577,12.90741,11.540222,-56.402588,0.11631002,-0.06359068,9.805754,0.0023299977,-3.0301511e-05,0.0007381439,-0.00010681152,-0.00010681152,-7.6293945e-05
2019-07-01T18:53:23.697Z,-0.00013890731,-0.0067722234,0.46536088,0.12011719,-0.057434082,9.808426,12.591553,11.8927,-57.75299,0.11629549,-0.06422324,9.80575,0.00019579381,-0.0015657768,-0.00047588348,7.6293945e-05,6.1035156e-05,-0.00019836426
2019-07-01T18:53:23.896Z,-6.815625e-05,-0.006770853,0.46526003,0.11413574,-0.06915283,9.806274,11.906433,11.126709,-58.711243,0.11692464,-0.0629692,9.805751,0.00077756494,0.002929248,-0.00094509125,-0.00010681152,-0.00012207031,4.5776367e-05
2019-07-01T18:53:24.104Z,-0.00013529585,-0.006803564,0.4654374,0.11653137,-0.058380127,9.807938,12.371826,12.387085,-57.492065,0.1168669,-0.0644567,9.805741,-0.00036170334,-0.0037203878,-0.0014343262,0.00019836426,-6.1035156e-05,0.00024414062
2019-07-01T18:53:24.306Z,-8.639481e-05,-0.0067025404,0.4651074,0.11557007,-0.070114136,9.809372,11.428833,11.012268,-57.354736,0.11558313,-0.06264254,9.805769,-0.0024398789,0.004035175,0.00095653534,-0.00010681152,3.0517578e-05,0.0
2019-07-01T18:53:24.504Z,-0.000139351,-0.0067727477,0.46536285,0.11437988,-0.05718994,9.808426,13.48114,12.026978,-57.83844,0.1163004,-0.064235985,9.80575,0.0009146184,-0.004181169,0.00032234192,0.0002593994,-0.0001373291,0.00019836426
2019-07-01T18:53:24.709Z,-8.853041e-05,-0.0066909348,0.46508017,0.11581421,-0.06915283,9.813446,12.744141,11.682129,-57.35016,0.11536408,-0.06257019,9.805772,-0.0015018508,0.0032529682,0.0019731522,1.5258789e-05,9.1552734e-05,-0.00018310547
2019-07-01T18:53:24.912Z,-0.00017875545,-0.006735854,0.46532106,0.11628723,-0.05934143,9.808182,12.664795,11.750793,-57.633972,0.11530336,-0.06457785,9.805759,-5.2824616e-06,-0.0043066964,-0.00028324127,7.6293945e-05,3.0517578e-05,6.1035156e-05
2019-07-01T18:53:25.115Z,-9.652581e-05,-0.006726264,0.46518305,0.11557007,-0.06915283,9.808899,12.808228,11.476135,-58.377075,0.11589719,-0.06304475,9.805762,0.0015495047,0.003011167,0.00045108795,1.5258789e-05,9.1552734e-05,0.00012207031
2019-07-01T18:53:25.316Z,-0.00015364848,-0.0067739794,0.4653857,0.11628723,-0.061019897,9.808899,12.585449,11.747742,-57.707214,0.11618962,-0.06449843,9.80575,5.336851e-05,-0.0036685392,-0.00033950806,0.00019836426,-0.0001373291,6.1035156e-05
2019-07-01T18:53:25.516Z,-0.00013538866,-0.0067167394,0.46521172,0.11534119,-0.067474365,9.810104,12.762451,12.120056,-57.336426,0.1153752,-0.063636295,9.805764,-0.00127998,0.0012044236,-0.0005540848,0.0001373291,9.1552734e-05,0.00012207031
2019-07-01T18:53:25.719Z,-0.00013093936,-0.00670587,0.46517733,0.11390686,-0.057662964,9.808426,13.105774,10.913086,-58.428955,0.11522958,-0.0634554,9.805768,-0.00017271191,0.00030614436,-4.4822693e-05,1.5258789e-05,3.0517578e-05,6.1035156e-05
2019-07-01T18:53:25.925Z,-0.00010912121,-0.0066918787,0.46511093,0.11366272,-0.067718506,9.807465,12.789917,10.88562,-57.514954,0.11519046,-0.062940314,9.805772,-0.00061602145,0.0007489845,-0.0009851456,7.6293945e-05,-0.0001373291,0.0001373291
2019-07-01T18:53:26.128Z,-1.649198e-05,-0.0066515584,0.46487874,0.11917114,-0.05718994,9.806503,12.657166,11.605835,-57.739258,0.11535144,-0.060934,9.805782,0.00019196421,0.001850795,-0.0013017654,0.0005645752,-3.0517578e-05,0.00012207031
2019-07-01T18:53:26.332Z,-0.00011630063,-0.0067012557,0.46514517,0.11198425,-0.06796265,9.811523,13.217163,11.64856,-58.35724,0.11528533,-0.06315497,9.80577,0.00024618953,-0.002863951,0.002002716,-0.0004119873,9.1552734e-05,6.1035156e-05
2019-07-01T18:53:26.537Z,-4.5208242e-05,-0.006748002,0.46516907,0.11843872,-0.06460571,9.80722,12.963867,11.338806,-58.335876,0.116743766,-0.062350284,9.805757,0.0026204735,-0.0005578473,-0.00058078766,0.0005645752,-7.6293945e-05,0.0001373291
2019-07-01T18:53:26.737Z,-0.00012873935,-0.0066452366,0.4650165,0.11653137,-0.053604126,9.808899,13.082886,12.069702,-57.359314,0.11420843,-0.06284326,9.805783,-0.0048982576,-0.0019877106,-7.43866e-05,0.0002593994,4.5776367e-05,-4.5776367e-05
2019-07-01T18:53:26.938Z,7.759813e-05,-0.006683447,0.46483245,0.11151123,-0.06724548,9.806503,13.197327,10.983276,-57.357788,0.11676614,-0.059584808,9.805774,0.0040409267,0.0059946068,-0.0013179779,0.0001373291,-0.0002746582,-6.1035156e-05
2019-07-01T18:53:27.137Z,-0.00024052469,-0.0067724744,0.46550128,0.11868286,-0.06484985,9.807709,12.503052,11.514282,-56.54297,0.115361884,-0.066007875,9.805749,-0.0029275715,-0.009830423,-0.0007095337,-0.00077819824,-3.0517578e-05,0.00030517578
2019-07-01T18:53:27.344Z,1.4668554e-05,-0.006589552,0.4646746,0.11341858,-0.060058594,9.810089,13.311768,11.714172,-56.83899,0.1145727,-0.059801135,9.8057995,-0.0016644001,0.006460596,0.00253582,0.0015411377,-3.0517578e-05,0.00012207031
2019-07-01T18:53:27.547Z,1.6091848e-05,-0.0066561624,0.46484596,0.11653137,-0.067474365,9.808899,12.303162,10.777283,-57.289124,0.11573071,-0.060405888,9.805781,0.0019591227,0.0029883683,-0.0010051727,-0.001083374,-9.1552734e-05,0.00030517578
2019-07-01T18:53:27.751Z,-0.00019139619,-0.0066956743,0.46523392,0.11366272,-0.047851562,9.806259,13.069153,11.701965,-57.206726,0.11449687,-0.06441933,9.805771,-0.0018240064,-0.009020418,-0.00052165985,0.0002593994,0.00016784668,0.00012207031
2019-07-01T18:53:27.954Z,7.1990995e-05,-0.0066238395,0.4646851,0.11366272,-0.07345581,9.807709,12.93335,12.278748,-57.159424,0.11568983,-0.059119485,9.805789,0.0022549406,0.010790337,-0.0013036728,-4.5776367e-05,-3.0517578e-05,7.6293945e-05
2019-07-01T18:53:28.156Z,-0.00017739569,-0.006673137,0.46515602,0.115097046,-0.050491333,9.806503,12.373352,10.566711,-57.485962,0.11423899,-0.06396056,9.805776,-0.0027408227,-0.010205105,-0.0013389587,0.0001373291,4.5776367e-05,0.0
2019-07-01T18:53:28.360Z,4.824142e-05,-0.006597549,0.4646493,0.11534119,-0.072509766,9.805069,12.718201,11.099243,-57.391357,0.11501923,-0.05928768,9.805797,0.0017411485,0.009521306,0.0003786087,-4.5776367e-05,4.5776367e-05,0.0