timestamp,rotationVector_x,rotationVector_y,rotationVector_z,accelerometer_x,accelerometer_y,accelerometer_z,magneticField_x,magneticField_y,magneticField_z,gravity_x,gravity_y,gravity_z,linearAcceleration_x,linearAcceleration_y,linearAcceleration_z,gyroscope_x,gyroscope_y,gyroscope_z
2019-07-01T19:06:04.138Z,-0.012277943,0.0036501484,-0.20249438,-0.023925781,-0.25125122,9.784256,-6.083679,15.765381,-42.25464,-0.021339454,-0.2502989,9.8034315,-0.00090924464,-7.2717667e-06,0.00034999847,-4.5776367e-05,-6.1035156e-05,-0.0001373291
2019-07-01T19:06:04.347Z,-0.012263807,0.0036703672,-0.20253873,-0.01675415,-0.2536316,9.805786,-5.8395386,15.779114,-41.95862,-0.02177259,-0.25010872,9.803436,-0.00071876496,-0.00018003583,0.0013580322,7.6293945e-05,-1.5258789e-05,-0.0001373291
2019-07-01T19:06:04.549Z,-0.012299311,0.0036487214,-0.20250215,-0.01914978,-0.2536316,9.810577,-5.293274,15.226746,-41.111755,-0.021225179,-0.25070372,9.803422,0.00088510476,-0.0007776618,-0.00021076202,-4.5776367e-05,4.5776367e-05,0.00036621094
2019-07-01T19:06:04.752Z,-0.012299692,0.0036152692,-0.20241646,-0.01675415,-0.25125122,9.805786,-5.657959,14.334106,-41.95862,-0.02060314,-0.2505764,9.803427,0.0014509242,1.2725592e-05,-0.0022182465,1.5258789e-05,-6.1035156e-05,-1.5258789e-05
2019-07-01T19:06:04.959Z,-0.012311362,0.0036291152,-0.20245825,-0.023925781,-0.2416687,9.791428,-5.4367065,15.885925,-42.633057,-0.020812014,-0.2508563,9.803418,-2.797693e-06,7.1406364e-05,0.0006017685,-0.000289917,4.5776367e-05,0.00036621094
2019-07-01T19:06:05.159Z,-0.012242741,0.0036447486,-0.2024617,-0.023925781,-0.24645996,9.8033905,-4.876709,15.698242,-41.864014,-0.021383919,-0.24960075,9.803449,-0.001352502,0.003131166,0.001036644,1.5258789e-05,-1.5258789e-05,0.00010681152
2019-07-01T19:06:05.361Z,-0.012252481,0.0036330675,-0.20243692,-0.021530151,-0.25602722,9.810577,-4.6966553,16.221619,-42.367554,-0.02112722,-0.2497409,9.803447,0.0003131479,-0.0008059889,-0.00026988983,7.6293945e-05,-0.00012207031,0.0004119873
2019-07-01T19:06:05.564Z,-0.012253079,0.0036108694,-0.20238025,-0.01675415,-0.24885559,9.7986145,-5.7922363,14.830017,-41.098022,-0.020712974,-0.24966307,9.80345,0.00061656535,8.329749e-05,0.0004606247,7.6293945e-05,-1.5258789e-05,0.00024414062
2019-07-01T19:06:05.774Z,-0.012280309,0.0035882003,-0.2023366,-0.026321411,-0.2536316,9.800995,-5.5892944,15.943909,-42.010498,-0.020180643,-0.2500951,9.80344,0.0010301396,-0.00092092156,-0.00017166138,-0.00010681152,4.5776367e-05,0.00024414062
2019-07-01T19:06:05.961Z,-0.012306673,0.0035963154,-0.20237152,-0.011962891,-0.24645996,9.808182,-6.303406,16.261292,-42.219543,-0.02022291,-0.2506343,9.803427,-0.0001188647,-0.0006393194,-0.0010671616,-0.00010681152,4.5776367e-05,0.00036621094
2019-07-01T19:06:06.166Z,-0.012283151,0.0036187056,-0.20241645,-0.026321411,-0.24406433,9.8033905,-6.9015503,15.496826,-42.726135,-0.020734824,-0.2502724,9.803433,-0.0005687345,0.00067201257,-0.00039577484,0.0001373291,0.00010681152,0.00030517578
2019-07-01T19:06:06.366Z,-0.012251699,0.003650622,-0.20248157,-0.021530151,-0.24885559,9.7986145,-5.558777,14.852905,-42.08374,-0.021456072,-0.24979654,9.803444,-0.0010380577,0.0006656647,-0.00026607513,-4.5776367e-05,4.5776367e-05,-1.5258789e-05
2019-07-01T19:06:06.569Z,-0.012237146,0.0036783072,-0.20254485,-0.023925781,-0.25125122,9.805786,-6.187439,15.249634,-42.503357,-0.022029446,-0.24962841,9.803447,-0.00046497397,0.0009833574,-0.00017166138,-4.5776367e-05,0.00016784668,0.00030517578
2019-07-01T19:06:06.771Z,-0.012235444,0.0036812876,-0.2025516,-0.0143585205,-0.25842285,9.810577,-5.3482056,15.882874,-41.656494,-0.022091731,-0.24960774,9.803448,6.9646165e-05,0.00046674907,-0.00058841705,-0.00016784668,-0.00018310547,4.5776367e-05
2019-07-01T19:06:06.978Z,-0.012276015,0.0036419271,-0.20247225,-0.01914978,-0.2536316,9.7986145,-5.671692,16.0141,-42.521667,-0.021194883,-0.25022876,9.803434,0.0008513704,-0.0010643303,-6.580353e-05,-4.5776367e-05,-1.5258789e-05,0.00010681152
2019-07-01T19:06:07.182Z,-0.012290385,0.0036114913,-0.20240179,-0.021530151,-0.25602722,9.8033905,-5.281067,15.672302,-42.15393,-0.020571297,-0.25038236,9.8034315,0.0016640127,-0.00064474344,0.001704216,1.5258789e-05,4.5776367e-05,0.00010681152
2019-07-01T19:06:07.391Z,-0.012279383,0.0035696179,-0.20228839,-0.011962891,-0.2536316,9.8033905,-5.252075,16.175842,-41.070557,-0.019839732,-0.25000262,9.803443,0.0014066473,0.0011411458,0.0011396408,1.5258789e-05,-6.1035156e-05,0.00010681152
2019-07-01T19:06:07.590Z,-0.012282528,0.0035496342,-0.20223877,-0.01914978,-0.25125122,9.7986145,-4.6157837,16.152954,-41.93268,-0.01945612,-0.24998274,9.803444,0.0005512517,-5.3152442e-05,0.0012369156,-0.00016784668,-0.00012207031,0.00024414062
2019-07-01T19:06:07.791Z,-0.012307704,0.0035332772,-0.2022102,-0.021530151,-0.24885559,9.805786,-5.5145264,15.875244,-42.103577,-0.01904938,-0.2504008,9.803434,0.00014251284,9.4771385e-05,-0.0020370483,-0.00016784668,-1.5258789e-05,0.00030517578
2019-07-01T19:06:07.991Z,-0.012303552,0.0035591917,-0.20227453,-0.01675415,-0.2536316,9.796219,-5.142212,15.39917,-43.2724,-0.01954712,-0.2504251,9.803432,-0.0005495716,-0.000120043755,0.00039196014,7.6293945e-05,0.00016784668,0.00036621094
2019-07-01T19:06:08.198Z,-0.012336726,0.0035844115,-0.20235701,-0.023925781,-0.2536316,9.796219,-4.8843384,15.629578,-42.63153,-0.019878693,-0.25116384,9.803412,-0.00046283193,-0.0005801022,-0.0006875992,-0.00022888184,4.5776367e-05,0.00010681152
2019-07-01T19:06:08.401Z,-0.012345741,0.0036238246,-0.20246305,-0.01675415,-0.2536316,9.805786,-6.251526,15.687561,-42.866516,-0.020572634,-0.25149557,9.803403,-0.00095925666,-0.00024995208,-0.00012874603,-0.00016784668,4.5776367e-05,0.00024414062
2019-07-01T19:06:08.601Z,-0.012298789,0.0036254071,-0.202442,-0.0143585205,-0.25125122,9.796219,-5.657959,16.534424,-43.699646,-0.020794895,-0.25059983,9.803426,-0.0002638083,0.0021983087,0.00023365021,-4.5776367e-05,0.00010681152,4.5776367e-05
2019-07-01T19:06:08.809Z,-0.012324378,0.0036350742,-0.20248051,-0.021530151,-0.25125122,9.8033905,-5.8502197,15.638733,-42.666626,-0.020869052,-0.2511304,9.8034115,5.365722e-05,-0.00086691976,-0.0007982254,-0.00010681152,-1.5258789e-05,0.00024414062
2019-07-01T19:06:09.013Z,-0.012314939,0.0036457137,-0.20250277,-0.023925781,-0.25125122,9.805786,-5.2749634,15.666199,-41.24756,-0.021105174,-0.25099188,9.803415,-0.000915071,0.0004362762,0.00058841705,-4.5776367e-05,-0.00024414062,0.0005340576
2019-07-01T19:06:09.216Z,-0.012273521,0.0036408198,-0.20246807,-0.0143585205,-0.25602722,9.7986145,-5.278015,15.896606,-42.788696,-0.02118459,-0.2501764,9.803436,-0.0005906299,0.0017828643,0.0008716583,-4.5776367e-05,-0.00018310547,0.00030517578
2019-07-01T19:06:09.415Z,-0.012274265,0.0036091558,-0.20238717,-0.01914978,-0.2536316,9.793823,-4.8431396,16.654968,-43.104553,-0.020594176,-0.25006324,9.803439,0.0004955437,0.00021228194,-0.0018110275,7.6293945e-05,-6.1035156e-05,4.5776367e-05
2019-07-01T19:06:09.621Z,-0.012291775,0.0036383288,-0.20247144,-0.021530151,-0.24406433,9.808182,-5.456543,15.447998,-42.796326,-0.021063382,-0.2505171,9.803428,-0.0009569768,-0.0007570386,0.00085926056,-0.00010681152,-1.5258789e-05,0.00061035156
2019-07-01T19:06:09.821Z,-0.012298838,0.0036187703,-0.20242499,-0.01675415,-0.24645996,9.805786,-5.870056,17.022705,-42.759705,-0.02067159,-0.25057408,9.803427,0.0005748179,0.00027269125,0.0009012222,-4.5776367e-05,4.5776367e-05,-7.6293945e-05
2019-07-01T19:06:10.024Z,-0.012305094,0.0036601427,-0.20253456,-0.021530151,-0.25125122,9.805786,-5.239868,16.700745,-42.47589,-0.02141325,-0.25086084,9.803418,-0.001079211,-0.0006310642,-4.005432e-05,-0.00010681152,-1.5258789e-05,0.00010681152
2019-07-01T19:06:10.228Z,-0.012293198,0.0036462855,-0.20249262,-0.021530151,-0.24645996,9.796219,-6.478882,15.887451,-42.43927,-0.02120512,-0.25057647,9.803426,0.00086357817,0.0014581382,-0.0004968643,-0.00010681152,0.00022888184,0.00030517578
2019-07-01T19:06:10.459Z,-0.012325221,0.0036282572,-0.20246345,-0.01914978,-0.2368927,9.805786,-5.66864,16.16211,-42.868042,-0.020739155,-0.25111914,9.8034115,0.0011136364,-0.00088214874,-0.0011329651,-4.5776367e-05,-0.00012207031,0.00016784668
2019-07-01T19:06:10.627Z,-0.012290858,0.0036154063,-0.20241208,-0.011962891,-0.2536316,9.796219,-5.9646606,14.981079,-43.400574,-0.020641979,-0.25040722,9.8034315,0.00029909052,-0.0011083484,0.0004014969,1.5258789e-05,-0.00012207031,0.00024414062
2019-07-01T19:06:10.821Z,-0.012308629,0.0035801472,-0.20233105,-0.021530151,-0.2536316,9.808182,-5.671692,16.0141,-42.521667,-0.019914977,-0.25060686,9.803427,0.00076151825,-0.00020238757,-0.0008497238,-0.00010681152,-6.1035156e-05,0.00010681152
2019-07-01T19:06:11.028Z,-0.012294347,0.0035797693,-0.20232245,-0.023925781,-0.24885559,9.808182,-5.4244995,16.1026,-42.437744,-0.01996661,-0.25033095,9.803434,9.635277e-05,0.00071665645,0.00039196014,-0.00010681152,-6.1035156e-05,0.00024414062
2019-07-01T19:06:11.233Z,-0.012264399,0.0035971247,-0.20235102,-0.021530151,-0.2536316,9.800995,-5.8135986,16.366577,-42.141724,-0.020411514,-0.24982531,9.803447,-0.0011214539,0.001408279,0.000579834,1.5258789e-05,4.5776367e-05,0.00016784668
2019-07-01T19:06:11.450Z,-0.012227056,0.0036079697,-0.2023589,-0.023925781,-0.25125122,9.7986145,-5.604553,15.577698,-41.85791,-0.020766037,-0.2491514,9.803463,-4.8263e-05,0.0014855266,0.0015077591,-0.00016784668,0.00010681152,-1.5258789e-05
2019-07-01T19:06:11.645Z,-0.012215527,0.0035938725,-0.20231657,-0.01675415,-0.23928833,9.800995,-5.7495117,15.931702,-41.78009,-0.02055182,-0.24887319,9.803471,-3.3220276e-05,0.0007234663,0.00036525726,0.0001373291,-0.00012207031,4.5776367e-05
2019-07-01T19:06:11.847Z,-0.01216897,0.0036129935,-0.20234078,-0.021530151,-0.25125122,9.786652,-5.8288574,15.846252,-40.963745,-0.0210977,-0.24805552,9.80349,-0.0011510458,0.0018228889,-0.00039577484,-0.00010681152,4.5776367e-05,0.00010681152
2019-07-01T19:06:12.053Z,-0.012206759,0.0036325266,-0.2024111,-0.01914978,-0.24885559,9.8033905,-5.5358887,15.515137,-42.704773,-0.021304972,-0.24886021,9.803469,-0.00047012977,-0.0016832948,0.000538826,-4.5776367e-05,-1.5258789e-05,-1.5258789e-05
2019-07-01T19:06:12.251Z,-0.012202489,0.0036304414,-0.20240347,-0.021530151,-0.25602722,9.800995,-5.6747437,15.863037,-41.947937,-0.021283818,-0.24876979,9.803472,0.00022504292,0.0006121099,-0.00075626373,-0.00010681152,-1.5258789e-05,0.00018310547
2019-07-01T19:06:12.447Z,-0.012248923,0.003652829,-0.20248576,-0.0143585205,-0.24885559,9.805786,-5.6762695,15.866089,-42.25006,-0.021508424,-0.24975213,9.803447,-2.4586916e-05,-0.0017611831,-0.0011329651,-4.5776367e-05,0.00022888184,-0.0001373291
2019-07-01T19:06:12.662Z,-0.012220752,0.0036500401,-0.20246354,-0.026321411,-0.2536316,9.810577,-6.4727783,16.259766,-43.496704,-0.021572417,-0.24919961,9.80346,3.9936975e-05,0.0010342747,0.0005159378,1.5258789e-05,-1.5258789e-05,0.00010681152
2019-07-01T19:06:12.859Z,-0.012258501,0.0036698473,-0.20253456,-0.01675415,-0.24406433,9.808182,-5.078125,16.558838,-41.755676,-0.021784753,-0.25000468,9.803439,-0.00046308525,-0.0010084063,0.0016212463,-0.00016784668,-6.1035156e-05,0.00030517578
2019-07-01T19:06:13.064Z,-0.01226864,0.003616621,-0.20240334,-0.01914978,-0.25125122,9.800995,-7.194519,16.131592,-42.359924,-0.020755764,-0.24998519,9.803441,0.0018507596,0.00042006373,0.0010843277,-4.5776367e-05,-1.5258789e-05,0.00024414062
2019-07-01T19:06:13.271Z,-0.012322121,0.003675867,-0.20258404,-0.028717041,-0.2536316,9.815353,-6.324768,15.750122,-42.17224,-0.021634882,-0.2512513,9.803407,-0.0015723687,-0.0026085377,0.00056934357,-4.5776367e-05,0.00010681152,-1.5258789e-05
2019-07-01T19:06:13.474Z,-0.012317074,0.0036806206,-0.20259355,-0.01914978,-0.24885559,9.808182,-6.6741943,15.220642,-42.642212,-0.021743795,-0.25117353,9.80341,0.00044110976,0.0013402998,-0.0024785995,-0.00022888184,4.5776367e-05,4.5776367e-05
2019-07-01T19:06:13.677Z,-0.0123488,0.0036871363,-0.20262724,-0.023925781,-0.25125122,9.810577,-6.147766,15.899658,-41.241455,-0.021734165,-0.25180933,9.803392,0.00020344742,-0.0008827746,0.0007419586,-0.00010681152,-1.5258789e-05,0.00030517578
2019-07-01T19:06:13.879Z,-0.012277721,0.0036771344,-0.20256354,-0.01914978,-0.25125122,9.8033905,-5.6625366,16.081238,-41.82892,-0.021840923,-0.25040334,9.803429,-0.0001777932,0.0029788315,0.00033283234,1.5258789e-05,0.00016784668,0.000289917
2019-07-01T19:06:14.079Z,-0.012266162,0.003719059,-0.20266499,-0.01675415,-0.25602722,9.800995,-4.876709,15.774536,-42.451477,-0.022666074,-0.25035024,9.803428,-0.0005431399,0.00052675605,-0.00025177002,-0.00010681152,0.00016784668,-0.0002593994
2019-07-01T19:06:14.281Z,-0.01228481,0.0036800476,-0.20257482,-0.01914978,-0.24645996,9.805786,-6.7871094,16.307068,-42.868042,-0.021865813,-0.25055128,9.803425,0.001769403,1.052022e-05,-9.536743e-07,-0.00022888184,0.00016784668,-1.5258789e-05
2019-07-01T19:06:14.481Z,-0.012284997,0.0036733346,-0.20255768,-0.01914978,-0.25602722,9.7986145,-6.010437,15.704346,-42.947388,-0.021740533,-0.25052783,9.803426,0.0004381407,0.00046911836,-0.0004749298,-0.00016784668,4.5776367e-05,0.00010681152
2019-07-01T19:06:14.688Z,-0.012281728,0.0036894695,-0.20259735,-0.01914978,-0.24406433,9.800995,-6.2576294,15.539551,-42.82074,-0.02205324,-0.25053003,9.803425,-0.00021208823,0.00020882487,-0.0014333725,7.6293945e-05,4.5776367e-05,0.00010681152
2019-07-01T19:06:14.881Z,-0.012290596,0.0037069987,-0.2026471,-0.026321411,-0.25842285,9.7986145,-6.033325,15.345764,-44.000244,-0.022341894,-0.25077108,9.803417,-0.00015325285,-0.00052157044,-0.0008029938,1.5258789e-05,0.00010681152,4.5776367e-05
2019-07-01T19:06:15.086Z,-0.012341773,0.0037046876,-0.20266855,-0.028717041,-0.24645996,9.800995,-6.274414,15.17334,-42.895508,-0.022088543,-0.25174507,9.803393,6.429292e-05,-0.0017239153,-0.0019683838,-0.00016784668,-6.1035156e-05,4.5776367e-05
2019-07-01T19:06:15.300Z,-0.012309193,0.0037115947,-0.20266885,-0.021530151,-0.24885559,9.793823,-5.558777,14.927673,-42.59491,-0.02235065,-0.2511469,9.803408,0.00032915547,0.0020127594,0.0025310516,-4.5776367e-05,0.00016784668,-7.6293945e-05
2019-07-01T19:06:15.488Z,-0.01227921,0.0037019039,-0.20262793,-0.021530151,-0.25842285,9.820145,-5.4473877,15.438843,-41.514587,-0.022294223,-0.2505318,9.803425,0.0007610824,0.0011695921,9.059906e-05,-0.00010681152,0.00016784668,0.00024414062
2019-07-01T19:06:15.714Z,-0.012290041,0.0036810227,-0.20258011,-0.01914978,-0.2416687,9.808182,-6.2820435,14.877319,-42.19818,-0.021862395,-0.2506557,9.803422,0.0012773685,0.00035521388,0.0018157959,-0.00010681152,4.5776367e-05,-0.00019836426
2019-07-01T19:06:15.903Z,-0.012308136,0.0036580525,-0.20253082,-0.0143585205,-0.25602722,9.7986145,-5.607605,15.50293,-41.723633,-0.021361977,-0.25091085,9.803416,0.00077726133,-0.0005764067,0.00025367737,7.6293945e-05,-6.1035156e-05,0.00024414062
2019-07-01T19:06:16.109Z,-0.01229402,0.0036097046,-0.20239913,-0.0143585205,-0.25125122,9.812973,-6.163025,15.760803,-42.175293,-0.020523226,-0.25044504,9.803431,0.0016169865,0.0011090934,1.8119812e-05,-4.5776367e-05,0.00010681152,-7.6293945e-05
2019-07-01T19:06:16.305Z,-0.012323722,0.0036291368,-0.20246491,-0.028717041,-0.24645996,9.805786,-5.6274414,16.886902,-41.81671,-0.020761628,-0.25109392,9.803413,-5.2265823e-05,-0.001114279,-0.0003118515,-4.5776367e-05,0.00010681152,4.5776367e-05
2019-07-01T19:06:16.521Z,-0.012309661,0.0036471863,-0.20250374,-0.01914978,-0.24885559,9.805786,-5.4595947,15.449524,-43.096924,-0.021154176,-0.2508964,9.803417,-0.00037730485,0.0003465414,-0.0003709793,-0.00010681152,4.5776367e-05,0.00010681152
2019-07-01T19:06:16.741Z,-0.01230709,0.0036018468,-0.20238595,-0.01914978,-0.24885559,9.8033905,-5.343628,16.108704,-42.440796,-0.020323798,-0.25066456,9.803426,0.001414964,9.11355e-05,-0.00015735626,-4.5776367e-05,-1.5258789e-05,-0.0001373291
2019-07-01T19:06:16.919Z,-0.012283864,0.0036394375,-0.20247005,-0.01914978,-0.25125122,9.8033905,-6.045532,14.898682,-42.959595,-0.021116449,-0.25036955,9.803431,-0.001378106,0.00028702617,0.000207901,1.5258789e-05,-1.5258789e-05,0.00024414062
2019-07-01T19:06:17.133Z,-0.012262638,0.0036543154,-0.2024969,-0.01914978,-0.24645996,9.7986145,-5.6671143,16.238403,-43.078613,-0.021479644,-0.2500216,9.803439,-0.00078646466,0.00040769577,-0.00034236908,7.6293945e-05,4.5776367e-05,-1.5258789e-05
2019-07-01T19:06:17.328Z,-0.012246174,0.0036163388,-0.20239061,-0.01914978,-0.25125122,9.800995,-5.3466797,16.184998,-43.104553,-0.020842792,-0.24955241,9.8034525,0.0014606025,0.00041043758,-8.010864e-05,-4.5776367e-05,0.00010681152,0.00016784668
2019-07-01T19:06:17.578Z,-0.012272613,0.0036080088,-0.20238335,-0.01914978,-0.25125122,9.810577,-6.210327,14.73999,-42.68341,-0.020579688,-0.25002688,9.80344,0.00095370226,-0.00054581463,0.00027561188,1.5258789e-05,4.5776367e-05,4.5776367e-05
2019-07-01T19:06:17.784Z,-0.012272009,0.0036067672,-0.20237984,-0.026321411,-0.26081848,9.8033905,-5.9280396,15.708923,-42.64984,-0.020559136,-0.25001028,9.803441,-2.7140602e-05,0.00065529346,0.0009832382,-0.000289917,-1.5258789e-05,0.00016784668
2019-07-01T19:06:17.983Z,-0.012256887,0.0036201775,-0.20240618,-0.021530151,-0.24885559,9.8033905,-5.5633545,16.452026,-41.532898,-0.020870008,-0.2497737,9.803447,-0.0006628614,0.0011297166,-0.00045776367,-4.5776367e-05,-1.5258789e-05,-0.0001373291
2019-07-01T19:06:18.182Z,-0.012270013,0.0036140264,-0.2023974,-0.023925781,-0.25125122,9.796219,-5.6503296,16.374207,-41.844177,-0.020701995,-0.25000113,9.803441,0.00011641346,-0.00077964365,0.0011367798,0.0001373291,-0.00024414062,0.00036621094
2019-07-01T19:06:18.385Z,-0.012254162,0.003592429,-0.2023335,-0.028717041,-0.25125122,9.805786,-5.4779053,16.83197,-42.967224,-0.020366436,-0.24960971,9.803452,-0.00046382286,0.0005005747,-0.0005273819,7.6293945e-05,-0.00024414062,0.000289917
2019-07-01T19:06:18.591Z,-0.012252686,0.0036177598,-0.20239773,-0.01914978,-0.24645996,9.8033905,-5.5511475,16.82129,-42.060852,-0.020842414,-0.24968325,9.80345,-0.0011792798,-0.0006457567,-0.0011491776,7.6293945e-05,4.5776367e-05,4.5776367e-05
2019-07-01T19:06:18.796Z,-0.012266129,0.0036454026,-0.20247589,-0.01914978,-0.25125122,9.7986145,-4.8339844,15.054321,-43.128967,-0.021299971,-0.2500528,9.803439,-0.00072312914,-0.00029191375,-0.0012407303,-0.00016784668,-6.1035156e-05,0.00016784668
2019-07-01T19:06:18.998Z,-0.012301789,0.0036708792,-0.20256035,-0.021530151,-0.24885559,9.805786,-4.9804688,15.182495,-42.189026,-0.021625966,-0.25084054,9.803417,-0.0011140034,-0.0014074743,0.00029277802,7.6293945e-05,-0.00018310547,-1.5258789e-05
2019-07-01T19:06:19.200Z,-0.012257192,0.0036810853,-0.2025627,-0.01914978,-0.25125122,9.805786,-5.9936523,15.916443,-42.15088,-0.02199859,-0.25002483,9.803438,-0.0014589801,0.0011145622,-0.00029850006,1.5258789e-05,-6.1035156e-05,-7.6293945e-05
2019-07-01T19:06:19.404Z,-0.012210295,0.003684565,-0.20254657,-0.026321411,-0.25125122,9.805786,-5.7022095,15.205383,-41.85486,-0.022255886,-0.24913774,9.80346,-0.0007277299,0.002161324,0.00092315674,7.6293945e-05,-6.1035156e-05,0.00030517578
2019-07-01T19:06:19.606Z,-0.012236579,0.0036509086,-0.20247422,-0.021530151,-0.25602722,9.8033905,-5.680847,15.869141,-42.778015,-0.02152351,-0.24950719,9.803452,0.0016542245,-0.001771152,0.0012483597,0.00019836426,0.00010681152,0.00010681152
2019-07-01T19:06:19.810Z,-0.012259458,0.0036420044,-0.2024636,-0.01914978,-0.25842285,9.7986145,-5.3497314,15.809631,-41.44287,-0.02126434,-0.24991094,9.803442,0.0009221118,-0.00016142428,4.4822693e-05,-0.00022888184,0.00010681152,-7.6293945e-05
2019-07-01T19:06:20.009Z,-0.012275729,0.0036162261,-0.20240611,-0.021530151,-0.25842285,9.808182,-4.647827,15.574646,-42.803955,-0.02071932,-0.25011986,9.803439,0.0008492023,-0.00045251846,-0.00092697144,7.6293945e-05,-0.00012207031,-0.0001373291
2019-07-01T19:06:20.208Z,-0.012307887,0.0036111164,-0.20241018,-0.01914978,-0.25125122,9.810577,-6.466675,16.101074,-41.716003,-0.020492457,-0.25071716,9.803424,0.0008675698,-0.0017497241,0.00096416473,1.5258789e-05,-1.5258789e-05,0.00024414062
2019-07-01T19:06:20.413Z,-0.012252113,0.0036181249,-0.20239836,-0.01675415,-0.24885559,9.791428,-6.3415527,15.383911,-42.24701,-0.020851536,-0.24967371,9.80345,-0.001885375,0.0020077974,0.00080394745,0.0001373291,-0.00018310547,0.00010681152
2019-07-01T19:06:20.620Z,-0.012244161,0.0036457046,-0.20246492,-0.01675415,-0.2416687,9.805786,-6.0546875,16.349792,-42.060852,-0.021395825,-0.24963193,9.80345,-0.0008687321,3.6016107e-05,-0.0005836487,-0.00010681152,-1.5258789e-05,0.00030517578
2019-07-01T19:06:20.820Z,-0.01224975,0.0036440964,-0.20246378,-0.023925781,-0.25125122,9.791428,-5.534363,15.589905,-42.990112,-0.02134303,-0.24973284,9.803447,4.160963e-05,0.00040245056,0.0016918182,-0.00016784668,0.00016784668,0.00010681152
2019-07-01T19:06:21.027Z,-0.012269296,0.003672632,-0.20254748,-0.021530151,-0.24645996,9.8033905,-5.8883667,16.737366,-43.423462,-0.02179204,-0.2502233,9.803433,-0.00094456226,-0.00055116415,-0.00078105927,-4.5776367e-05,-0.00018310547,-7.6293945e-05
2019-07-01T19:06:21.233Z,-0.012293889,0.0036736487,-0.20256324,-0.021530151,-0.25842285,9.810577,-6.150818,15.979004,-41.97998,-0.021709807,-0.25069994,9.803421,-0.00030893646,-0.0010278821,0.0005979538,0.0001373291,-6.1035156e-05,0.00016784668
2019-07-01T19:06:21.424Z,-0.012273138,0.0037181256,-0.20266631,-0.0143585205,-0.25842285,9.8033905,-5.696106,15.657043,-43.72711,-0.022620069,-0.25048053,9.803425,-0.0020238254,-0.0007812083,-0.0005683899,0.0001373291,4.5776367e-05,0.00030517578
2019-07-01T19:06:21.628Z,-0.012322144,0.0036826525,-0.20260148,-0.021530151,-0.23928833,9.815353,-4.963684,15.77301,-42.97638,-0.021760633,-0.2512791,9.803406,0.0021370593,-0.0016595423,8.869171e-05,0.00019836426,-1.5258789e-05,-7.6293945e-05
2019-07-01T19:06:21.830Z,-0.0122811515,0.0036479158,-0.20249037,-0.01914978,-0.2536316,9.805786,-4.6417236,15.646362,-42.562866,-0.02128486,-0.25035155,9.803431,-1.6804785e-05,0.00030112267,-0.00080394745,-0.00016784668,6.1035156e-05,0.00010681152
2019-07-01T19:06:22.030Z,-0.012345555,0.003666352,-0.20257215,-0.01914978,-0.24645996,9.8033905,-5.1483154,15.254211,-43.302917,-0.021362077,-0.25166324,9.803397,-0.00016831048,-0.0017422438,0.00010204315,-4.5776367e-05,6.1035156e-05,-0.0001373291
2019-07-01T19:06:22.238Z,-0.0123379845,0.003623677,-0.20245852,-0.01914978,-0.26081848,9.8033905,-5.3359985,16.32843,-42.547607,-0.020601766,-0.25134596,9.803407,0.0016957801,0.0005787909,-9.536743e-05,-0.00016784668,-6.1035156e-05,0.00016784668
2019-07-01T19:06:22.446Z,-0.012313892,0.0036442413,-0.20249844,-0.0143585205,-0.24885559,9.791428,-6.0913086,15.6188965,-42.3584,-0.021082161,-0.25096583,9.803415,-0.0014088694,0.00068095326,0.0007390976,0.0001373291,-1.5258789e-05,0.00016784668
2019-07-01T19:06:22.642Z,-0.012283315,0.0035977147,-0.20236264,-0.023925781,-0.2536316,9.796219,-4.975891,15.403748,-42.521667,-0.020344788,-0.25019112,9.803437,0.0014372114,0.0013116896,-0.0022258759,7.6293945e-05,-6.1035156e-05,0.00024414062
2019-07-01T19:06:22.846Z,-0.012313512,0.003638128,-0.20248254,-0.01914978,-0.25602722,9.808182,-5.2215576,15.318298,-42.832947,-0.020970345,-0.25093395,9.803417,-0.0010502506,-0.0017774999,-0.00020503998,7.6293945e-05,0.00022888184,-7.6293945e-05
2019-07-01T19:06:23.053Z,-0.012289585,0.0036157777,-0.20241237,-0.01914978,-0.24645996,9.810577,-6.1828613,15.39917,-42.77649,-0.02065409,-0.2503842,9.803431,0.001029484,0.0010337532,0.0003414154,7.6293945e-05,4.5776367e-05,-1.5258789e-05
2019-07-01T19:06:23.255Z,-0.012267926,0.0036081118,-0.2023811,-0.01914978,-0.24406433,9.796219,-6.0028076,15.771484,-42.4057,-0.020600844,-0.24993725,9.803443,0.0005036127,0.0005915761,0.00038814545,1.5258789e-05,0.00010681152,-1.5258789e-05
2019-07-01T19:06:23.453Z,-0.012270923,0.003603115,-0.20236988,-0.021530151,-0.24406433,9.796219,-5.2612305,16.337585,-43.151855,-0.020495849,-0.24997476,9.803443,0.00015290268,0.0006098002,-0.0014953613,-0.00022888184,4.5776367e-05,4.5776367e-05
2019-07-01T19:06:23.725Z,-0.012274344,0.0036517014,-0.20249645,-0.026321411,-0.24645996,9.805786,-5.206299,15.606689,-42.396545,-0.021383049,-0.25023603,9.803434,-0.0015850831,-0.0005696714,-0.0005197525,1.5258789e-05,4.5776367e-05,-7.6293945e-05
2019-07-01T19:06:23.915Z,-0.012281407,0.003617482,-0.20241237,-0.01675415,-0.24885559,9.8033905,-5.4779053,15.087891,-43.47229,-0.020719295,-0.25023398,9.803435,0.0010940935,0.00038811564,0.0010910034,-0.00016784668,-0.00012207031,0.00010681152
2019-07-01T19:06:24.120Z,-0.012292322,0.0036463267,-0.20249227,-0.026321411,-0.25842285,9.796219,-6.2576294,15.463257,-42.308044,-0.021209488,-0.2505598,9.803427,-0.0010403488,-4.053116e-06,-6.0081482e-05,-0.00010681152,-1.5258789e-05,0.00010681152
2019-07-01T19:06:24.320Z,-0.012302131,0.0036924703,-0.20261598,-0.01914978,-0.25125122,9.8033905,-5.947876,15.194702,-42.526245,-0.022025004,-0.25093415,9.803414,-0.0014305972,0.00036773086,-0.00019359589,-0.000289917,-1.5258789e-05,0.00016784668
2019-07-01T19:06:24.522Z,-0.012318544,0.0036749425,-0.20257975,-0.021530151,-0.24885559,9.796219,-5.44281,15.588379,-41.937256,-0.021632442,-0.25117886,9.803409,0.0003291294,-9.6052885e-05,0.00067806244,-4.5776367e-05,-0.00012207031,0.00024414062
2019-07-01T19:06:24.727Z,-0.012332717,0.0036722843,-0.20258051,-0.0143585205,-0.24645996,9.796219,-5.592346,15.94696,-42.463684,-0.021524873,-0.25144047,9.803402,-8.204952e-06,-0.0005621016,-0.00083065033,1.5258789e-05,-1.5258789e-05,0.00010681152
2019-07-01T19:06:24.923Z,-0.012287793,0.003670144,-0.20255098,-0.028717041,-0.24885559,9.805786,-6.5719604,15.660095,-42.404175,-0.021669863,-0.2505687,9.803425,0.00013644062,0.002392441,-0.00023269653,-0.00022888184,0.00022888184,4.5776367e-05
2019-07-01T19:06:25.129Z,-0.0122731365,0.00365157,-0.20249547,-0.01675415,-0.25125122,9.8033905,-6.225586,16.119385,-41.947937,-0.021385578,-0.25021228,9.803434,0.0005705673,0.0008600056,0.0011281967,0.0001373291,-6.1035156e-05,-1.5258789e-05
2019-07-01T19:06:25.330Z,-0.012284193,0.0036598432,-0.20252262,-0.01675415,-0.2536316,9.800995,-6.4682007,16.027832,-41.731262,-0.021493597,-0.250458,9.803427,-5.300343e-05,-0.0008070767,0.000749588,-4.5776367e-05,-6.1035156e-05,4.5776367e-05
2019-07-01T19:06:25.531Z,-0.012317687,0.00362114,-0.20244116,-0.0143585205,-0.24645996,9.791428,-5.8517456,15.640259,-42.892456,-0.020638108,-0.25094578,9.803417,0.0012578387,-0.00055387616,-0.0004529953,-4.5776367e-05,-6.1035156e-05,-1.5258789e-05
2019-07-01T19:06:25.765Z,-0.012295868,0.0036485197,-0.20249979,-0.026321411,-0.2536316,9.8033905,-5.7678223,15.7196045,-42.88025,-0.021235589,-0.25063676,9.803424,-0.0007848386,0.0005674362,-0.00030231476,1.5258789e-05,0.00010681152,-1.5258789e-05
2019-07-01T19:06:25.937Z,-0.012332881,0.0036177812,-0.20244065,-0.021530151,-0.24645996,9.805786,-5.584717,16.165161,-42.495728,-0.020513393,-0.2512242,9.803411,0.0016061533,-0.0017098188,0.00027179718,7.6293945e-05,4.5776367e-05,0.00010681152
2019-07-01T19:06:26.143Z,-0.012282865,0.0036152592,-0.20240743,-0.01914978,-0.25602722,9.7986145,-5.126953,15.614319,-42.6239,-0.02067208,-0.25025305,9.803435,-0.00014204904,0.0018719435,0.00049591064,7.6293945e-05,4.5776367e-05,-0.0002593994
2019-07-01T19:06:26.343Z,-0.012272351,0.0035669901,-0.2022779,-0.021530151,-0.24885559,9.796219,-5.8303833,16.001892,-42.21649,-0.019819848,-0.24985693,9.803446,0.0018739235,0.0009813309,-0.0004606247,-4.5776367e-05,0.00010681152,4.5776367e-05
2019-07-01T19:06:26.541Z,-0.012264933,0.0036204874,-0.20241128,-0.03111267,-0.2536316,9.789032,-5.836487,16.00647,-42.96875,-0.020842703,-0.24992953,9.803442,-0.0011792425,-0.00015835464,-0.0017414093,-4.5776367e-05,0.00016784668,-0.0002593994
2019-07-01T19:06:26.757Z,-0.012235772,0.003665266,-0.20251064,-0.026321411,-0.24885559,9.805786,-5.015564,16.197205,-41.90674,-0.021793172,-0.2495495,9.80345,-0.0014179815,-0.00076943636,0.001080513,0.0001373291,0.00016784668,-0.0002593994
2019-07-01T19:06:26.952Z,-0.0122415675,0.0036823016,-0.20255747,-0.01675415,-0.25842285,9.8033905,-5.307007,15.2404785,-42.921448,-0.022085372,-0.2497295,9.803445,6.250478e-05,-0.0006105751,-0.0016717911,7.6293945e-05,0.00010681152,4.5776367e-05
2019-07-01T19:06:27.160Z,-0.0122400625,0.003632041,-0.20242766,-0.026321411,-0.24406433,9.800995,-5.014038,16.273499,-42.118835,-0.021159183,-0.24949816,9.8034525,0.002251016,-0.000104397535,0.0015974045,7.6293945e-05,-1.5258789e-05,4.5776367e-05
2019-07-01T19:06:27.355Z,-0.012226573,0.003643742,-0.20245048,-0.0143585205,-0.24406433,9.808182,-5.8929443,14.916992,-44.018555,-0.021431664,-0.24928607,9.803457,-0.0005906243,0.0006297678,-0.0011720657,-4.5776367e-05,4.5776367e-05,0.00010681152
2019-07-01T19:06:27.558Z,-0.01223429,0.0036463572,-0.20246132,-0.01914978,-0.2536316,9.8033905,-5.995178,15.917969,-42.300415,-0.021448482,-0.2494449,9.803454,0.00038839132,-0.00016228855,0.0008172989,1.5258789e-05,0.00010681152,0.00016784668
2019-07-01T19:06:27.765Z,-0.012251674,0.003667994,-0.20252615,-0.01914978,-0.24645996,9.793823,-4.2297363,15.968323,-43.041992,-0.021778427,-0.24986601,9.803441,-0.00047072582,-0.0011621565,0.0010204315,-4.5776367e-05,4.5776367e-05,4.5776367e-05
2019-07-01T19:06:27.964Z,-0.012257767,0.0036299396,-0.20243172,-0.021530151,-0.25602722,9.800995,-5.493164,14.794922,-43.608093,-0.02104748,-0.24982986,9.803444,0.0018964708,-1.6242266e-06,0.00051784515,0.0001373291,0.00010681152,0.00016784668
2019-07-01T19:06:28.173Z,-0.012255669,0.003671559,-0.20253743,-0.01914978,-0.24885559,9.796219,-5.4595947,15.298462,-42.1463,-0.021828147,-0.24995716,9.80344,-0.0013810042,-9.472668e-05,0.00066280365,-0.00010681152,0.00010681152,4.5776367e-05
2019-07-01T19:06:28.379Z,-0.012228703,0.0036678687,-0.20251355,-0.01914978,-0.25125122,9.808182,-5.781555,15.428162,-42.93976,-0.0218705,-0.24942417,9.803453,0.00033850782,0.001035884,-0.0011453629,1.5258789e-05,-1.5258789e-05,4.5776367e-05
2019-07-01T19:06:28.594Z,-0.01226284,0.0036509535,-0.20248838,-0.021530151,-0.2368927,9.810577,-6.704712,15.930176,-40.533447,-0.02141645,-0.25001195,9.803439,0.0010754466,-0.0012513995,0.00067043304,7.6293945e-05,4.5776367e-05,0.00016784668
2019-07-01T19:06:28.784Z,-0.01220868,0.0036072559,-0.20234726,-0.026321411,-0.2536316,9.805786,-6.034851,16.557312,-40.356445,-0.02082823,-0.24879545,9.803472,0.00096187927,0.0020984262,0.0015630722,-4.5776367e-05,-6.1035156e-05,-1.5258789e-05
2019-07-01T19:06:28.985Z,-0.01221811,0.0036597264,-0.20248699,-0.03111267,-0.24885559,9.800995,-6.852722,14.845276,-42.938232,-0.021762973,-0.24918784,9.80346,-0.0016890541,-0.00037653744,8.9645386e-05,-0.00010681152,0.00010681152,0.00016784668
2019-07-01T19:06:29.184Z,-0.012235477,0.0036500916,-0.20247154,-0.01675415,-0.24885559,9.796219,-6.390381,16.108704,-42.32025,-0.021512885,-0.24948272,9.8034525,0.00092678145,-0.0005862266,-0.0024938583,0.0001373291,0.00016784668,-1.5258789e-05
2019-07-01T19:06:29.390Z,-0.012191512,0.0036696782,-0.20249832,-0.021530151,-0.24406433,9.8033905,-6.097412,15.553284,-42.974854,-0.022056878,-0.24871688,9.803472,-0.00068178214,0.0012610853,-0.00087070465,7.6293945e-05,0.00010681152,-1.5258789e-05
2019-07-01T19:06:29.591Z,-0.012262603,0.0036572886,-0.20250452,-0.01914978,-0.24406433,9.796219,-6.3201904,16.05072,-43.319702,-0.021534938,-0.25003293,9.803439,0.0014360808,-0.0026878268,-0.00010204315,-4.5776367e-05,0.00010681152,-0.0002593994
2019-07-01T19:06:29.796Z,-0.0122347865,0.0036500494,-0.20247106,-0.021530151,-0.25602722,9.815353,-4.8797607,15.777588,-42.904663,-0.021514941,-0.2494693,9.803453,0.00069917925,0.00082568824,0.00025558472,0.0001373291,0.00016784668,0.00016784668
2019-07-01T19:06:29.991Z,-0.012266982,0.003635075,-0.20244983,-0.023925781,-0.24885559,9.812973,-5.11322,15.905762,-42.49115,-0.021104889,-0.25002763,9.80344,0.0014811102,-0.000746876,0.0016088486,-0.00010681152,0.00016784668,0.00016784668
2019-07-01T19:06:30.201Z,-0.012261472,0.0036790296,-0.20255972,-0.021530151,-0.25125122,9.796219,-5.6488037,16.526794,-42.4942,-0.02194287,-0.25009876,9.803436,-0.0012664478,-0.00044327974,0.0002670288,1.5258789e-05,4.5776367e-05,-7.6293945e-05
2019-07-01T19:06:30.399Z,-0.012263102,0.0036636367,-0.20252107,-0.021530151,-0.2536316,9.7986145,-4.8858643,15.78064,-43.432617,-0.02165064,-0.25006804,9.803436,0.00034834817,1.0430813e-05,-0.0003004074,-0.00010681152,-1.5258789e-05,0.00016784668
2019-07-01T19:06:30.610Z,-0.012293242,0.0036931694,-0.20261301,-0.01914978,-0.2416687,9.817749,-5.3359985,16.175842,-41.74652,-0.022074524,-0.2507662,9.803419,-0.00041853078,-0.0005031824,-0.0005083084,-4.5776367e-05,-1.5258789e-05,0.00010681152
2019-07-01T19:06:30.810Z,-0.012297208,0.0036502462,-0.20250493,-0.01675415,-0.25125122,9.817749,-5.0216675,16.12854,-42.44995,-0.021262106,-0.25066945,9.803423,0.0013939459,-0.0001078248,0.00029945374,1.5258789e-05,-1.5258789e-05,0.00016784668
2019-07-01T19:06:31.013Z,-0.012293511,0.0036878744,-0.20259956,-0.033493042,-0.24885559,9.800995,-5.3344727,14.503479,-42.237854,-0.021975208,-0.25075,9.803419,-0.0014773309,-0.00025454164,0.0013074875,-4.5776367e-05,-0.00012207031,-0.0001373291
2019-07-01T19:06:31.213Z,-0.012297719,0.0036467595,-0.20249626,-0.01675415,-0.2536316,9.805786,-5.519104,15.730286,-42.056274,-0.021195335,-0.25066525,9.803424,0.0008546114,0.0008393824,-0.000872612,-0.00010681152,-1.5258789e-05,0.00016784668
2019-07-01T19:06:31.424Z,-0.012309387,0.0036719379,-0.20256715,-0.026321411,-0.24885559,9.805786,-5.227661,15.170288,-42.86194,-0.021614367,-0.25099084,9.803414,-0.0004042294,-0.0004911721,0.000538826,-4.5776367e-05,-6.1035156e-05,0.00010681152
2019-07-01T19:06:31.622Z,-0.012291728,0.0036572102,-0.20251988,-0.0143585205,-0.2536316,9.786652,-5.290222,15.52887,-42.333984,-0.021413794,-0.25059217,9.803424,0.0003553126,0.00053057075,-0.001077652,0.0001373291,0.00010681152,0.00010681152
2019-07-01T19:06:31.826Z,-0.012291727,0.0036712491,-0.20255592,-0.023925781,-0.25602722,9.812973,-5.595398,16.1026,-43.865967,-0.021674192,-0.25064874,9.803423,-0.00010243617,-0.00038534403,-0.0008831024,1.5258789e-05,6.1035156e-05,0.00010681152
2019-07-01T19:06:32.028Z,-0.012290534,0.0036557794,-0.20251557,-0.0143585205,-0.23928833,9.810577,-4.891968,15.484619,-42.81311,-0.021392165,-0.2505635,9.803426,0.00033538975,4.8846006e-05,0.00244236,-0.00010681152,-1.5258789e-05,0.00016784668
2019-07-01T19:06:32.229Z,-0.0123000825,0.003660087,-0.20253174,-0.03111267,-0.25125122,9.8033905,-5.6625366,16.157532,-42.19055,-0.021432813,-0.2507643,9.80342,0.00013227761,0.00023883581,0.00035190582,-4.5776367e-05,-6.1035156e-05,0.00036621094
2019-07-01T19:06:32.428Z,-0.012271993,0.0036383567,-0.20246093,-0.01675415,-0.2536316,9.8033905,-5.5160522,15.800476,-41.893005,-0.021145176,-0.2501371,9.803436,0.0005587302,0.0019709766,-0.0027914047,-0.00010681152,0.00010681152,0.00030517578
2019-07-01T19:06:32.631Z,-0.012320068,0.0036376852,-0.2024849,-0.026321411,-0.24406433,9.805786,-4.8171997,15.267944,-42.407227,-0.020935187,-0.2510581,9.803413,0.00083681755,-0.0021309853,-0.00026607513,1.5258789e-05,0.00010681152,-0.00019836426
2019-07-01T19:06:32.831Z,-0.012297239,0.0036591464,-0.2025278,-0.011962891,-0.24406433,9.8033905,-5.6030273,15.652466,-42.297363,-0.021427058,-0.2507059,9.803422,-0.0008221995,0.0008662641,0.0006284714,-0.00016784668,0.00016784668,0.00010681152
2019-07-01T19:06:33.033Z,-0.012311547,0.0036435113,-0.2024953,-0.01675415,-0.25125122,9.808182,-5.2963257,15.458679,-42.726135,-0.021078262,-0.25091785,9.803417,0.001940405,-0.00084611773,0.0008087158,-0.00010681152,-1.5258789e-05,0.00016784668
2019-07-01T19:06:33.242Z,-0.012352026,0.003646562,-0.2025248,-0.028717041,-0.24645996,9.8033905,-5.5252075,15.5807495,-41.784668,-0.020968474,-0.25170788,9.803397,0.00038370304,-0.0012297928,0.0024557114,-0.00010681152,0.00010681152,-0.0002593994
2019-07-01T19:06:33.439Z,-0.0123711275,0.0036126578,-0.20244794,-0.01914978,-0.24645996,9.800995,-4.551697,15.943909,-42.808533,-0.020261222,-0.25193843,9.803392,0.0013545062,-0.00027224422,-0.00042629242,7.6293945e-05,-1.5258789e-05,0.00016784668
2019-07-01T19:06:33.642Z,-0.012310037,0.0036209153,-0.20243649,-0.01914978,-0.2536316,9.808182,-4.8812866,15.701294,-42.619324,-0.020665368,-0.2507979,9.803421,-0.00014740601,0.0021890104,0.0013027191,1.5258789e-05,-1.5258789e-05,0.00030517578
2019-07-01T19:06:33.847Z,-0.012319243,0.003626416,-0.20245554,-0.01675415,-0.25602722,9.805786,-5.732727,16.448975,-42.582703,-0.020729572,-0.2509969,9.803415,-0.0005707182,-0.0002424717,0.0007171631,-0.00010681152,4.5776367e-05,0.00016784668
2019-07-01T19:06:34.051Z,-0.012314264,0.0036257107,-0.20245107,-0.026321411,-0.24885559,9.800995,-5.7159424,15.065002,-42.712402,-0.02073695,-0.2508984,9.803418,-7.505901e-05,-9.6827745e-05,-2.861023e-06,0.0001373291,-0.00024414062,-0.0001373291
2019-07-01T19:06:34.256Z,-0.012272042,0.0036397437,-0.20246452,-0.011962891,-0.24885559,9.805786,-5.3085327,15.16571,-42.858887,-0.021170707,-0.25014362,9.803436,-0.0010933261,0.0017437935,-0.0022382736,-0.00010681152,0.00016784668,0.00010681152
2019-07-01T19:06:34.460Z,-0.012293537,0.0036412585,-0.2024799,-0.023925781,-0.25125122,9.800995,-5.105591,16.05072,-42.385864,-0.021110486,-0.25056273,9.803426,0.0005262699,-0.001162827,0.0012216568,7.6293945e-05,4.5776367e-05,0.00010681152
2019-07-01T19:06:34.665Z,-0.012292647,0.003639482,-0.20247486,-0.01675415,-0.24645996,9.808182,-5.2886963,15.527344,-42.182922,-0.021081196,-0.25053847,9.803427,0.0002521556,0.00023910403,-0.0006284714,-0.00010681152,4.5776367e-05,0.00010681152
2019-07-01T19:06:34.860Z,-0.012300392,0.0036353827,-0.20246847,-0.021530151,-0.24885559,9.8033905,-6.0897827,15.85083,-43.67218,-0.020973338,-0.2506708,9.803424,0.00015997514,-9.661913e-05,0.0003862381,7.6293945e-05,-6.1035156e-05,-1.5258789e-05
2019-07-01T19:06:35.062Z,-0.012314734,0.0036532667,-0.20252207,-0.021530151,-0.24885559,9.808182,-5.72052,16.58783,-41.64734,-0.021246094,-0.25101835,9.803413,-0.0010028519,-0.0007251799,-0.0011777878,1.5258789e-05,-6.1035156e-05,0.00010681152
2019-07-01T19:06:35.270Z,-0.012276591,0.0036280635,-0.20243697,-0.01914978,-0.24645996,9.805786,-5.415344,16.322327,-42.393494,-0.020935355,-0.25018403,9.803436,0.0005954448,0.0018021166,0.0016069412,-0.00010681152,-6.1035156e-05,0.00036621094
2019-07-01T19:06:35.473Z,-0.012267199,0.003657586,-0.20250773,-0.01914978,-0.25842285,9.817749,-5.6381226,16.82129,-42.886353,-0.021521565,-0.25012243,9.803436,-0.0012142081,0.00030347705,-0.00020885468,1.5258789e-05,0.00010681152,0.00036621094
2019-07-01T19:06:35.677Z,-0.012273935,0.0036289424,-0.2024378,-0.021530151,-0.25602722,9.800995,-5.1345825,15.467834,-42.65442,-0.02096257,-0.25013652,9.803437,0.0010973681,-0.0006056428,0.0017786026,1.5258789e-05,-0.00012207031,0.00030517578
2019-07-01T19:06:35.916Z,-0.012325947,0.003647147,-0.20251234,-0.01914978,-0.24645996,9.810577,-5.635071,16.664124,-41.410828,-0.02108651,-0.25120917,9.80341,-0.00044365972,-0.0009883344,-0.0016736984,-0.00022888184,-6.1035156e-05,0.0004272461
2019-07-01T19:06:36.081Z,-0.012289585,0.0036175735,-0.20241697,-0.01675415,-0.25125122,9.805786,-5.482483,14.865112,-42.91382,-0.020687401,-0.25039145,9.803431,0.0005923491,0.001789391,0.0007982254,-0.00010681152,-6.1035156e-05,0.00024414062
2019-07-01T19:06:36.282Z,-0.012236063,0.0036414992,-0.2024498,-0.021530151,-0.24885559,9.8033905,-5.155945,16.62445,-41.662598,-0.021351071,-0.2494594,9.803453,-0.0011401046,0.002285555,-0.00042057037,-0.00010681152,4.5776367e-05,0.00010681152
2019-07-01T19:06:36.481Z,-0.012238688,0.0036146995,-0.2023824,-0.023925781,-0.24406433,9.796219,-5.2841187,15.673828,-42.45453,-0.02084312,-0.24940197,9.803456,0.0012199432,6.8858266e-05,-0.00060653687,7.6293945e-05,0.00016784668,0.00012207031
2019-07-01T19:06:36.685Z,-0.012261585,0.0036187074,-0.20240492,-0.021530151,-0.24885559,9.796219,-4.48761,16.571045,-38.378906,-0.020823441,-0.24985805,9.803445,0.000237206,-0.0009304136,-0.0016765594,1.5258789e-05,-0.00012207031,0.00030517578
2019-07-01T19:06:36.885Z,-0.012238943,0.0036008847,-0.20234707,-0.026321411,-0.2416687,9.8033905,-3.2058716,42.16919,-28.614807,-0.020585783,-0.24935128,9.803457,0.00024401955,0.0009469241,0.0003156662,-0.00010681152,-0.00012207031,0.00010681152
2019-07-01T19:06:37.086Z,-0.012262586,0.003576471,-0.20229702,-0.011962891,-0.26560974,9.949356,-11.5737915,87.54425,-66.98151,-0.020035816,-0.2497074,9.80345,0.00088581257,-0.0003411621,0.0014848709,-4.5776367e-05,0.00022888184,0.00010681152
2019-07-01T19:06:37.292Z,-0.012182347,0.0035578941,-0.20220649,0.028717041,-0.22732544,9.767502,-19.570923,66.86249,-119.41528,-0.0200204,-0.24809103,9.803491,0.0006505847,0.0034191757,0.008978844,-0.00010681152,0.00016784668,4.5776367e-05
2019-07-01T19:06:37.496Z,-0.012340608,0.003646526,-0.2025186,-0.090927124,-0.25602722,9.724426,-20.066833,66.763306,-120.32318,-0.021014737,-0.25148833,9.803402,-0.0012461413,-0.0064412355,-0.007256508,1.5258789e-05,-0.00044250488,4.5776367e-05
2019-07-01T19:06:37.702Z,-0.012324385,0.003578867,-0.20233618,0.0382843,-0.25602722,9.757935,-19.54956,67.453,-120.12787,-0.01982654,-0.25090447,9.80342,0.0006719846,0.0012712777,-0.0062742233,-0.00010681152,0.00035095215,0.00012207031
2019-07-01T19:06:37.910Z,-0.012260565,0.0035857772,-0.20231983,-0.06939697,-0.23928833,9.832108,-19.615173,67.66205,-119.32678,-0.020216752,-0.24970599,9.80345,0.000118741766,0.0029748827,0.0026798248,-4.5776367e-05,-0.00038146973,4.5776367e-05
2019-07-01T19:06:38.111Z,-0.012292993,0.003629751,-0.20245007,0.023925781,-0.25602722,9.808182,-19.50531,68.40057,-119.633484,-0.020899277,-0.25050595,9.803428,-0.002081111,-0.0012261271,0.0014743805,-0.00010681152,0.0004272461,-7.6293945e-05
2019-07-01T19:06:38.311Z,-0.012211965,0.003597345,-0.20232357,-0.050247192,-0.2416687,9.7986145,-19.795227,67.28668,-119.77234,-0.020630857,-0.24881873,9.803472,0.0017243251,0.0040264726,-0.0001296997,-0.00016784668,-0.00032043457,0.00016784668
2019-07-01T19:06:38.510Z,-0.012239507,0.0036235275,-0.2024055,0.009567261,-0.23928833,9.791428,-19.743347,66.86096,-120.54138,-0.021003524,-0.24945322,9.803453,-0.0017330386,-0.0010922998,-8.583069e-05,1.5258789e-05,0.00016784668,-1.5258789e-05
2019-07-01T19:06:38.710Z,-0.012242105,0.0035465173,-0.20220917,-0.050247192,-0.25602722,9.805786,-19.69757,67.655945,-119.47632,-0.019564163,-0.24919356,9.803465,0.0030509513,5.3048134e-05,-0.0022993088,7.6293945e-05,-0.0002593994,-1.5258789e-05
2019-07-01T19:06:38.920Z,-0.012208235,0.0037033346,-0.20259364,0.0047912598,-0.24645996,9.808182,-19.9234,68.003845,-119.39697,-0.02261256,-0.24917383,9.803458,-0.006102564,-0.00037778914,0.0048532486,7.6293945e-05,0.00024414062,0.00024414062
2019-07-01T19:06:39.125Z,-0.012260896,0.0035789213,-0.20230241,-0.04067993,-0.25125122,9.805786,-19.062805,67.71088,-120.84961,-0.020088203,-0.24968481,9.803451,0.0054864828,-0.00059339404,-0.00074863434,-4.5776367e-05,-1.5258789e-05,0.00010681152
2019-07-01T19:06:39.343Z,-0.012232863,0.0037306994,-0.20267704,-0.0047912598,-0.25602722,9.8033905,-19.29779,67.61017,-119.425964,-0.023018936,-0.24975742,9.803443,-0.0054504704,-2.156198e-05,0.0020456314,-0.00022888184,0.00018310547,-7.6293945e-05
2019-07-01T19:06:39.530Z,-0.012311535,0.0037200483,-0.20269181,-0.01914978,-0.25602722,9.808182,-20.314026,67.88788,-117.137146,-0.022497794,-0.25122604,9.803406,-0.005974969,-0.00096967816,-0.002699852,0.0001373291,0.0,-1.5258789e-05
2019-07-01T19:06:39.731Z,-0.012325191,0.0035764195,-0.20233032,-0.01914978,-0.24645996,9.812973,-18.62793,66.34064,-119.33441,-0.019777836,-0.2509101,9.80342,0.004700754,0.0003735721,-0.0014877319,1.5258789e-05,-0.0001373291,0.00024414062
2019-07-01T19:06:39.932Z,-0.012262282,0.0037188837,-0.20266245,-0.026321411,-0.24885559,9.8033905,-19.132996,67.69409,-119.4931,-0.022678778,-0.250275,9.80343,-0.0057941284,0.001175195,0.0013980865,-0.00010681152,-7.6293945e-05,0.00016784668
2019-07-01T19:06:40.190Z,-0.01230158,0.0035470417,-0.20224227,-0.009567261,-0.25125122,9.796219,-20.385742,66.73889,-119.7113,-0.019329838,-0.2503384,9.803435,0.0059325695,0.0005208552,-1.9073486e-05,-4.5776367e-05,-0.0002593994,-1.5258789e-05
2019-07-01T19:06:40.388Z,-0.01226966,0.0036699388,-0.20254076,-0.035888672,-0.25125122,9.817749,-19.546509,69.192505,-118.86749,-0.021740584,-0.25021946,9.803433,-0.005053196,-0.00030708313,0.000623703,0.0001373291,0.0,0.00010681152
2019-07-01T19:06:40.592Z,-0.012271292,0.0035812042,-0.20231383,-0.0023956299,-0.25842285,9.817749,-19.325256,67.10358,-120.13245,-0.020087881,-0.24989371,9.803445,0.003334729,0.0010505319,0.0004196167,-0.00010681152,0.00012207031,0.00010681152
2019-07-01T19:06:40.798Z,-0.012289023,0.0037001423,-0.20262866,-0.04547119,-0.24885559,9.786652,-19.720459,67.37213,-120.588684,-0.0222212,-0.2507132,9.803419,-0.0038696658,-0.0017094314,0.00044250488,-4.5776367e-05,-7.6293945e-05,-7.6293945e-05
2019-07-01T19:06:40.998Z,-0.012298368,0.0036430357,-0.20248704,-0.0023956299,-0.25842285,9.791428,-18.713379,68.08472,-119.35425,-0.021123597,-0.25066268,9.803423,0.001971919,0.0005943775,-0.0032110214,-0.00010681152,0.00012207031,4.5776367e-05
2019-07-01T19:06:41.199Z,-0.012306783,0.0037468174,-0.20275798,-0.035888672,-0.24885559,9.810577,-19.432068,66.51306,-120.17212,-0.023013791,-0.25124276,9.803405,-0.0028368924,-0.0009795725,-0.00022602081,1.5258789e-05,6.1035156e-05,0.00010681152
2019-07-01T19:06:41.405Z,-0.012272451,0.0036268504,-0.20243163,-0.0047912598,-0.24885559,9.805786,-19.302368,67.614746,-120.02869,-0.020929862,-0.2500996,9.803438,0.0041751023,0.00195387,0.0014438629,-4.5776367e-05,0.00018310547,4.5776367e-05
2019-07-01T19:06:41.605Z,-0.012264083,0.0036407313,-0.20246279,-0.035888672,-0.25125122,9.7986145,-19.841003,68.00842,-119.17114,-0.021221722,-0.24999468,9.80344,-8.10381e-05,0.0004043728,-0.0007953644,-4.5776367e-05,-6.1035156e-05,0.0004272461
2019-07-01T19:06:41.809Z,-0.012293842,0.0035803863,-0.20232376,-0.0047912598,-0.25602722,9.7986145,-20.24231,68.0542,-119.070435,-0.019980129,-0.2503237,9.803434,0.0017895643,-0.00046539307,-0.00068187714,-0.00010681152,-7.6293945e-05,4.5776367e-05
2019-07-01T19:06:42.011Z,-0.01231249,0.003628341,-0.20245686,-0.026321411,-0.24645996,9.810577,-19.155884,67.10663,-119.08264,-0.02079302,-0.25087488,9.803418,-0.0009849314,-0.00042051077,-0.0014152527,-0.00010681152,0.00018310547,-1.5258789e-05
2019-07-01T19:06:42.215Z,-0.012302848,0.0036083441,-0.20240037,-0.0143585205,-0.24406433,9.793823,-20.246887,67.98401,-119.31,-0.020461734,-0.2506092,9.803427,0.00083749555,0.0003016591,0.0020866394,0.00016784668,3.0517578e-05,9.1552734e-05
2019-07-01T19:06:42.413Z,-0.01225648,0.0036673525,-0.20252708,-0.033493042,-0.24645996,9.805786,-19.369507,67.7475,-119.09332,-0.021746777,-0.2499558,9.80344,-0.0021791756,0.000625208,0.0012331009,0.00010681152,3.0517578e-05,0.00035095215
2019-07-01T19:06:42.622Z,-0.0122896675,0.0036746385,-0.20256352,-0.009567261,-0.25125122,9.800995,-20.091248,67.9245,-120.00885,-0.02174552,-0.2506228,9.803423,-0.00027144887,-0.00061154366,0.0014591217,-0.00019836426,0.00010681152,-7.6293945e-05
2019-07-01T19:06:42.815Z,-0.012257762,0.0036881051,-0.20258103,-0.028717041,-0.2536316,9.808182,-19.78302,67.5766,-119.41376,-0.022126459,-0.25006405,9.803436,-0.00036477484,0.0007379353,-0.0011053085,0.00016784668,-0.0001373291,-3.0517578e-05
2019-07-01T19:06:43.033Z,-0.012274952,0.0037091656,-0.20264429,-0.01914978,-0.25602722,9.7986145,-19.941711,67.64221,-119.69452,-0.022446424,-0.25047922,9.803425,-0.00076185353,-0.0014853477,6.1035156e-05,0.00010681152,9.1552734e-05,0.00016784668
2019-07-01T19:06:43.228Z,-0.012281283,0.0036494778,-0.20249444,-0.01914978,-0.25125122,9.800995,-19.714355,67.36755,-119.90967,-0.021313293,-0.25036037,9.803431,0.0024074838,0.0005414784,-0.0004348755,-0.0001373291,-1.5258789e-05,9.1552734e-05
2019-07-01T19:06:43.430Z,-0.012312995,0.0036883517,-0.20261121,-0.021530151,-0.2536316,9.800995,-20.288086,67.03186,-119.3512,-0.021903949,-0.2511263,9.80341,-0.00082979165,-0.0010497272,0.0017900467,-0.0001373291,0.00015258789,9.1552734e-05
2019-07-01T19:06:43.635Z,-0.012329393,0.003627132,-0.20246279,-0.021530151,-0.26081848,9.812973,-18.959045,67.84668,-118.71033,-0.02070114,-0.2511948,9.803411,0.003001256,0.00019150972,-0.0013570786,4.5776367e-05,0.00015258789,0.00010681152
2019-07-01T19:06:43.834Z,-0.012326718,0.0036700221,-0.2025715,-0.021530151,-0.25125122,9.808182,-19.888306,67.21649,-120.765686,-0.021507584,-0.2513161,9.803406,-0.001472285,-0.00040966272,-0.00042819977,-7.6293945e-05,-1.5258789e-05,0.00016784668
2019-07-01T19:06:44.035Z,-0.012332758,0.0036190902,-0.20244394,-0.023925781,-0.24885559,9.7986145,-19.622803,67.59186,-119.7937,-0.02053817,-0.25122708,9.80341,0.0023497548,0.00046488643,0.00019550323,-7.6293945e-05,0.00021362305,-3.0517578e-05
2019-07-01T19:06:44.230Z,-0.012262901,0.0036022125,-0.20236328,-0.021530151,-0.25842285,9.800995,-19.239807,67.17987,-119.81659,-0.020512048,-0.249817,9.803447,0.00064522773,0.0026413798,0.00012874603,0.00016784668,9.1552734e-05,0.00016784668
2019-07-01T19:06:44.484Z,-0.012213636,0.0036023923,-0.20233743,-0.021530151,-0.24645996,9.808182,-18.86139,66.46881,-118.84613,-0.020717649,-0.2488711,9.80347,0.00062200986,0.00049078465,-0.00016784668,4.5776367e-05,-1.5258789e-05,-3.0517578e-05
2019-07-01T19:06:44.664Z,-0.012218585,0.0036042456,-0.20234482,-0.01914978,-0.2536316,9.810577,-20.640564,67.874146,-118.03284,-0.020731717,-0.24897367,9.803468,-8.170307e-05,-0.00013126433,-0.0005893707,-1.5258789e-05,3.0517578e-05,-3.0517578e-05
2019-07-01T19:06:44.848Z,-0.01217614,0.0037831971,-0.20278141,-0.028717041,-0.2033844,9.817749,-20.487976,67.66205,-117.55524,-0.024226127,-0.24887946,9.803462,-0.0061703604,0.0002579391,-0.00039196014,4.5776367e-05,0.00021362305,3.0517578e-05
2019-07-01T19:06:45.052Z,-0.01228941,0.0034490167,-0.20198405,0.0,-0.2536316,9.832108,-20.109558,67.48505,-119.87152,-0.01756129,-0.24971133,9.803454,0.012767525,-0.0010872334,-0.0020074844,-0.00019836426,0.00010681152,3.0517578e-05
2019-07-01T19:06:45.253Z,-0.012195947,0.0038591211,-0.20298684,-0.04067993,-0.25842285,9.820145,-20.611572,67.012024,-119.4931,-0.02555301,-0.24956703,9.803441,-0.013935437,0.00025108457,0.0037698746,0.00010681152,0.00010681152,0.00021362305
2019-07-01T19:06:45.460Z,-0.0121943895,0.00348836,-0.2020344,0.01914978,-0.23449707,9.784256,-21.11206,66.76788,-120.3537,-0.01868072,-0.2480433,9.803494,0.012696438,0.0027358532,-0.0038795471,-1.5258789e-05,0.00015258789,-0.0001373291
2019-07-01T19:06:45.716Z,-0.012226308,0.003763171,-0.20275687,-0.06700134,-0.25602722,9.805786,-18.748474,67.35687,-119.651794,-0.023648228,-0.24976252,9.803441,-0.008412659,-0.002701804,0.0010938644,-0.0001373291,-0.00021362305,9.1552734e-05
2019-07-01T19:06:45.915Z,-0.0122001385,0.003491058,-0.2020444,0.021530151,-0.2536316,9.796219,-20.457458,68.395996,-117.93518,-0.018707223,-0.2481646,9.803492,0.008891812,0.0033146143,-0.0023021698,-1.5258789e-05,0.00047302246,-0.00015258789
2019-07-01T19:06:46.121Z,-0.012248788,0.0037124055,-0.20263861,-0.071777344,-0.23210144,9.82254,-20.533752,67.099,-120.38422,-0.022614105,-0.2499896,9.803437,-0.0056158137,-0.0036700666,0.0030956268,4.5776367e-05,-0.0002746582,-3.0517578e-05
2019-07-01T19:06:46.319Z,-0.012275282,0.003538216,-0.20220557,0.028717041,-0.2679901,9.7986145,-19.796753,67.43927,-120.42236,-0.019274035,-0.24979769,9.80345,0.0049141813,0.0004518032,-0.0003271103,-0.0001373291,0.00039672852,-0.00015258789
2019-07-01T19:06:46.519Z,-0.012247972,0.0037120846,-0.20263734,-0.06700134,-0.2368927,9.820145,-19.651794,66.93268,-119.70062,-0.02261151,-0.24997263,9.803438,-0.004900422,0.00015200675,0.0010595322,-0.0001373291,-0.00039672852,0.00016784668
2019-07-01T19:06:46.724Z,-0.0122879585,0.0035926278,-0.20235206,0.03111267,-0.2536316,9.791428,-19.363403,68.12439,-120.37659,-0.02023136,-0.25025988,9.803435,0.0030036364,-0.00050988793,-0.00025081635,4.5776367e-05,0.00033569336,3.0517578e-05
2019-07-01T19:06:46.927Z,-0.0122798495,0.0035994214,-0.20236516,-0.059814453,-0.25125122,9.808182,-19.059753,67.630005,-120.111084,-0.02039067,-0.2501314,9.803438,0.00076695345,0.0007915795,-0.00032520294,-0.0001373291,-0.00039672852,0.00016784668
2019-07-01T19:06:47.126Z,-0.012250695,0.0035981403,-0.20234631,0.0143585205,-0.24406433,9.786652,-19.195557,68.2785,-120.12329,-0.02048662,-0.24956608,9.8034525,-0.0010438599,0.00070650876,0.000582695,0.00016784668,0.00047302246,-0.00019836426
2019-07-01T19:06:47.332Z,-0.012245498,0.0035974977,-0.20234187,-0.04547119,-0.25842285,9.812973,-19.961548,67.12799,-119.270325,-0.02049604,-0.24946362,9.803455,0.0011142921,-0.00037556887,-0.0026474,4.5776367e-05,-0.00019836426,0.00016784668
2019-07-01T19:06:47.524Z,-0.012252337,0.0036497894,-0.20247978,-0.023925781,-0.24885559,9.812973,-19.494629,66.94641,-120.233154,-0.021438012,-0.24980547,9.803445,-0.0017703455,-0.00023727119,0.0031833649,-0.00019836426,0.00045776367,3.0517578e-05
2019-07-01T19:06:47.731Z,-0.012305167,0.0035959755,-0.20236984,-0.011962891,-0.24406433,9.8033905,-19.796753,67.28821,-119.84863,-0.020222792,-0.25060397,9.803427,0.0039582253,-0.0008600056,0.0010108948,-0.0001373291,-9.1552734e-05,3.0517578e-05
2019-07-01T19:06:47.939Z,-0.012263051,0.003681402,-0.20256665,-0.03111267,-0.25125122,9.810577,-20.169067,67.91687,-119.47937,-0.02198038,-0.25013867,9.803435,-0.004341744,0.0012749434,-0.0018777847,4.5776367e-05,9.1552734e-05,-9.1552734e-05
2019-07-01T19:06:48.137Z,-0.012291912,0.0035801714,-0.20232219,-0.0023956299,-0.25125122,9.810577,-19.71283,67.3645,-119.5343,-0.019984066,-0.25028577,9.803435,0.0044198055,-0.00048086047,0.00034427643,-1.5258789e-05,-0.0001373291,0.000289917
2019-07-01T19:06:48.401Z,-0.012309804,0.0036542623,-0.20252198,-0.035888672,-0.25602722,9.8033905,-19.412231,66.95099,-120.08209,-0.021284828,-0.25092763,9.803416,-0.003128048,-0.0010267794,0.0013504028,-1.5258789e-05,0.00016784668,3.0517578e-05
2019-07-01T19:06:48.538Z,-0.012269049,0.0036562197,-0.20250522,-0.047851562,-0.2536316,9.800995,-19.369507,67.82379,-119.454956,-0.021488624,-0.25015247,9.803436,-0.0057913624,0.0018169284,0.002295494,4.5776367e-05,0.00016784668,-9.1552734e-05
2019-07-01T19:06:48.737Z,-0.012337129,0.003529354,-0.20221584,0.0,-0.25602722,9.8033905,-20.533752,67.02118,-119.87305,-0.018855864,-0.25095043,9.803421,0.0052147172,-0.0012440383,-0.0022916794,-7.6293945e-05,-7.6293945e-05,-3.0517578e-05
2019-07-01T19:06:48.962Z,-0.012329191,0.003647402,-0.20251474,-0.035888672,-0.2536316,9.817749,-20.106506,67.481995,-119.418335,-0.021077909,-0.2512725,9.803408,-0.0040500592,-0.0006570518,0.0027856827,0.00010681152,0.00016784668,-0.00015258789
2019-07-01T19:06:49.153Z,-0.012349187,0.0035386258,-0.20224608,0.0,-0.25125122,9.800995,-20.126343,66.89148,-118.55469,-0.01897834,-0.25121933,9.803413,0.004376689,-1.8537045e-05,-0.0019788742,-7.6293945e-05,0.00016784668,3.0517578e-05
2019-07-01T19:06:49.359Z,-0.012307308,0.0036425549,-0.20249058,-0.04067993,-0.25842285,9.808182,-19.7052,67.66205,-120.22858,-0.021077948,-0.25083253,9.803419,-0.0028455816,0.0010424256,0.001074791,4.5776367e-05,0.00016784668,-9.1552734e-05
2019-07-01T19:06:49.561Z,-0.012341907,0.0035366204,-0.20223705,-0.0047912598,-0.25125122,9.793823,-19.621277,67.741394,-120.443726,-0.01897103,-0.2510714,9.803417,0.004140988,-0.00087711215,-0.00055885315,4.5776367e-05,0.00016784668,-9.1552734e-05
2019-07-01T19:06:49.766Z,-0.012308403,0.0036382133,-0.20248003,-0.033493042,-0.24885559,9.800995,-20.66803,67.7475,-120.54901,-0.020992918,-0.2508361,9.803419,-0.0026879702,8.2165e-05,-0.0008535385,0.00016784668,0.00010681152,4.5776367e-05
2019-07-01T19:06:49.966Z,-0.012326049,0.0035341433,-0.20222221,-0.009567261,-0.25125122,9.7986145,-19.458008,67.596436,-119.19556,-0.018990166,-0.25075674,9.803425,0.004388256,-0.00048458576,6.67572e-05,0.00010681152,0.00035095215,-0.00021362305
2019-07-01T19:06:50.169Z,-0.012299596,0.0036325497,-0.20246078,-0.03111267,-0.25125122,9.820145,-20.680237,67.37976,-120.24689,-0.020924056,-0.25064412,9.803425,-0.0027589276,0.00033810735,-0.002029419,4.5776367e-05,-1.5258789e-05,-0.00015258789
2019-07-01T19:06:50.372Z,-0.012333586,0.0035584932,-0.20228878,-0.009567261,-0.24885559,9.793823,-19.07959,67.1936,-120.199585,-0.019410877,-0.25099936,9.803418,0.002657622,-0.00046914816,0.0021591187,-0.00019836426,9.1552734e-05,-0.00021362305
2019-07-01T19:06:50.573Z,-0.012329428,0.0036418014,-0.20250048,-0.035888672,-0.2536316,9.796219,-18.455505,66.7984,-120.381165,-0.020973066,-0.25125453,9.803409,-0.0029515605,-0.00045585632,0.00015830994,-1.5258789e-05,-7.6293945e-05,9.1552734e-05
2019-07-01T19:06:50.777Z,-0.012336441,0.0036092042,-0.20242053,-0.0047912598,-0.25602722,9.800995,-19.146729,67.40265,-119.55109,-0.02033969,-0.2512581,9.803411,0.0009625945,4.1484833e-05,0.0004310608,-1.5258789e-05,4.5776367e-05,-0.00021362305
2019-07-01T19:06:50.981Z,-0.012366399,0.0036046947,-0.20242496,-0.028717041,-0.24885559,9.791428,-19.796753,67.059326,-118.76221,-0.02013298,-0.25181553,9.803395,0.0007561762,-0.00035849214,0.00029468536,-7.6293945e-05,-0.0001373291,0.00015258789
2019-07-01T19:06:51.187Z,-0.01235655,0.0035717387,-0.20233506,-0.007171631,-0.24885559,9.8033905,-19.28711,67.90619,-119.81964,-0.019562246,-0.2514938,9.803405,0.00041334145,0.00025382638,-0.00092601776,0.00010681152,9.1552734e-05,0.00015258789
2019-07-01T19:06:51.387Z,-0.012325179,0.0035808706,-0.20234175,-0.021530151,-0.2536316,9.808182,-19.19403,68.048096,-118.81256,-0.019860445,-0.25092778,9.80342,0.00024014525,0.00091362,0.001619339,-1.5258789e-05,-1.5258789e-05,0.00022888184
2019-07-01T19:06:51.594Z,-0.01235788,0.003552703,-0.20228688,-0.01914978,-0.24406433,9.808182,-19.760132,68.09235,-119.68689,-0.019203743,-0.25144288,9.803407,0.0010178257,-0.0012091696,0.000111579895,4.5776367e-05,9.1552734e-05,3.0517578e-05
2019-07-01T19:06:51.795Z,-0.012303337,0.0035801572,-0.20232825,-0.021530151,-0.2536316,9.808182,-19.90509,66.545105,-119.09027,-0.019936891,-0.25050524,9.80343,-0.0011173878,0.001929611,0.0002374649,-1.5258789e-05,0.00015258789,-3.0517578e-05
2019-07-01T19:06:51.990Z,-0.01230718,0.0036032642,-0.20238964,-0.0143585205,-0.24645996,9.805786,-20.51239,67.611694,-120.433044,-0.020349717,-0.25067198,9.803425,-0.00023080967,-0.00029098988,0.00063705444,-0.0001373291,0.00015258789,-9.1552734e-05
2019-07-01T19:06:52.203Z,-0.012321024,0.0035521353,-0.20226574,-0.01675415,-0.24406433,9.805786,-20.417786,67.7536,-119.34967,-0.019344518,-0.25073248,9.803426,0.0028359685,-1.1533499e-05,-0.001964569,0.00022888184,9.1552734e-05,-3.0517578e-05
2019-07-01T19:06:52.419Z,-0.012285462,0.0035140207,-0.20214888,-0.028717041,-0.25602722,9.8033905,-19.319153,67.17377,-119.740295,-0.018783418,-0.24989614,9.803448,0.0008393582,0.0017613769,-0.0011472702,-0.00019836426,-7.6293945e-05,0.00022888184
2019-07-01T19:06:52.608Z,-0.012280765,0.00347153,-0.20203726,-0.026321411,-0.24885559,9.800995,-18.843079,67.137146,-120.44525,-0.018014401,-0.24963546,9.803455,0.0010171123,0.00079376996,0.0008239746,-1.5258789e-05,-0.00019836426,0.00016784668
2019-07-01T19:06:52.809Z,-0.012275128,0.0035200438,-0.20215882,-0.01914978,-0.25602722,9.805786,-19.819641,66.92963,-120.75043,-0.018937543,-0.24972175,9.803452,-0.002363665,-0.00032319129,-0.001039505,4.5776367e-05,3.0517578e-05,-0.00015258789
2019-07-01T19:06:53.010Z,-0.012327232,0.0035589545,-0.20228657,-0.0143585205,-0.24645996,9.810577,-19.28711,67.829895,-119.30542,-0.019445512,-0.25087914,9.803421,-0.0004205685,-0.002512455,0.00074005127,4.5776367e-05,3.0517578e-05,0.000289917
2019-07-01T19:06:53.213Z,-0.0123388795,0.0035717385,-0.20232563,-0.026321411,-0.2536316,9.810577,-20.024109,67.48505,-119.044495,-0.019634811,-0.2511543,9.803414,-0.00022965111,-6.517768e-05,0.0016069412,-0.0001373291,9.1552734e-05,0.00035095215
2019-07-01T19:06:53.407Z,-0.012328597,0.0035502398,-0.20226492,-0.021530151,-0.24885559,9.800995,-20.043945,67.12341,-119.49463,-0.019278277,-0.25087035,9.803422,0.00037564524,0.00037541986,0.0005912781,0.00010681152,-0.00019836426,0.00016784668
2019-07-01T19:06:53.609Z,-0.012324795,0.0035378013,-0.20223095,-0.021530151,-0.25125122,9.815353,-19.865417,67.49878,-119.50073,-0.019063165,-0.25074735,9.803426,0.00016182102,-0.00020322204,0.0013570786,0.00010681152,3.0517578e-05,0.00016784668
2019-07-01T19:06:53.822Z,-0.012338095,0.0035356302,-0.20223247,-0.01675415,-0.25125122,9.810577,-20.458984,66.804504,-119.46564,-0.018968306,-0.2509942,9.80342,0.00031087734,4.0978193e-05,-0.00020980835,-0.00019836426,-1.5258789e-05,-3.0517578e-05
2019-07-01T19:06:54.033Z,-0.012330198,0.0035391862,-0.20223738,-0.01914978,-0.2536316,9.810577,-20.024109,67.7124,-120.13092,-0.019066678,-0.2508567,9.803422,-8.008443e-05,0.00036233664,-0.0010957718,-1.5258789e-05,3.0517578e-05,9.1552734e-05
2019-07-01T19:06:54.227Z,-0.01231159,0.003492544,-0.20210767,-0.021530151,-0.24885559,9.8033905,-19.584656,68.39142,-119.255066,-0.018277844,-0.250312,9.803438,0.0012799446,0.0012176037,-0.002653122,-1.5258789e-05,-7.6293945e-05,-0.00015258789
2019-07-01T19:06:54.427Z,-0.0123142805,0.0035465339,-0.20224775,-0.026321411,-0.25125122,9.810577,-20.355225,67.24548,-119.07959,-0.019268297,-0.2505804,9.80343,-0.0020339545,-0.0009124577,-0.0014467239,0.00016784668,3.0517578e-05,3.0517578e-05
2019-07-01T19:06:54.620Z,-0.012294078,0.0035454503,-0.20223418,-0.01914978,-0.25125122,9.789032,-19.511414,68.32886,-120.025635,-0.019331109,-0.25018787,9.803439,0.00066907704,0.00036409497,0.00046634674,0.00010681152,0.00015258789,-0.00033569336
2019-07-01T19:06:54.840Z,-0.012306307,0.0035595133,-0.20227683,-0.01675415,-0.2416687,9.793823,-19.525146,68.03589,-120.085144,-0.019541776,-0.25047934,9.8034315,-8.0758706e-05,-0.0010125637,0.00078582764,-1.5258789e-05,3.0517578e-05,0.00016784668
2019-07-01T19:06:55.034Z,-0.012326737,0.0035985657,-0.20238802,-0.021530151,-0.24885559,9.808182,-20.199585,67.26074,-119.61212,-0.02018224,-0.25102884,9.803415,-0.002308067,-0.0006811321,0.0010967255,-0.00019836426,0.00021362305,-7.6293945e-05
2019-07-01T19:06:55.240Z,-0.012359875,0.0035421122,-0.20226075,-0.0143585205,-0.25602722,9.7986145,-19.467163,67.37671,-119.16504,-0.018999131,-0.25143868,9.803408,0.0024896655,0.00019463897,-0.000541687,-0.0002593994,3.0517578e-05,0.00016784668
2019-07-01T19:06:55.439Z,-0.012347686,0.0035483579,-0.20227028,-0.021530151,-0.2416687,9.805786,-19.242859,67.1051,-119.75708,-0.019165006,-0.25122958,9.803413,0.00025969557,0.0011881292,-0.00019168854,-7.6293945e-05,-1.5258789e-05,-3.0517578e-05
2019-07-01T19:06:55.653Z,-0.0123517625,0.0035306173,-0.20222689,-0.0143585205,-0.25125122,9.810577,-19.148254,67.25159,-118.977356,-0.018819239,-0.25123662,9.803412,0.00040362217,-0.0004643798,0.0014657974,0.00010681152,9.1552734e-05,-3.0517578e-05
2019-07-01T19:06:55.860Z,-0.012327973,0.003567166,-0.20230804,-0.023925781,-0.25842285,9.7986145,-19.155884,67.10663,-119.00635,-0.01959478,-0.25092635,9.803419,-0.0007430557,0.00090786815,0.00033950806,-0.0001373291,0.00015258789,-0.00015258789
2019-07-01T19:06:56.111Z,-0.01232176,0.0035677487,-0.20230623,-0.01914978,-0.24645996,9.8033905,-18.989563,67.41791,-120.08057,-0.019631095,-0.25080934,9.803423,0.00048303045,0.0005413592,-0.0004014969,-0.0001373291,0.00021362305,-0.00045776367
2019-07-01T19:06:56.307Z,-0.012305882,0.0036213615,-0.2024354,-0.023925781,-0.25125122,9.805786,-20.127869,68.40973,-117.03949,-0.020690713,-0.25071985,9.803423,-0.0013250262,0.00021845102,0.0008420944,0.00010681152,0.00015258789,-0.00015258789
2019-07-01T19:06:56.500Z,-0.012300382,0.0035908038,-0.20235401,-0.01675415,-0.25125122,9.7986145,-20.431519,67.30957,-118.60962,-0.020146506,-0.25049123,9.803429,0.00077153184,0.0004913211,0.0010499954,-1.5258789e-05,-7.6293945e-05,-0.00015258789
2019-07-01T19:06:56.699Z,-0.012295057,0.0035818615,-0.2023282,-0.026321411,-0.25842285,9.8033905,-20.66803,67.66968,-120.11261,-0.020002507,-0.250353,9.803434,0.0006270688,0.0003475845,-0.00041866302,-7.6293945e-05,-1.5258789e-05,-9.1552734e-05
2019-07-01T19:06:56.914Z,-0.012325525,0.0035722875,-0.20231989,-0.011962891,-0.2536316,9.800995,-20.43457,67.31262,-119.13757,-0.019699823,-0.2508999,9.80342,7.976778e-05,-0.00031632185,-0.00043582916,-0.0001373291,-1.5258789e-05,4.5776367e-05
2019-07-01T19:06:57.116Z,-0.012308791,0.0035816506,-0.202335,-0.01914978,-0.25125122,9.805786,-19.091797,66.9754,-120.39337,-0.0199422,-0.250616,9.803427,0.0003230106,0.00037148595,0.00082683563,4.5776367e-05,0.00015258789,-0.00021362305
2019-07-01T19:06:57.321Z,-0.012305684,0.0035731357,-0.20231147,-0.01675415,-0.24645996,9.808182,-20.097351,67.778015,-119.88678,-0.019797016,-0.2505221,9.80343,0.0004061088,2.6196241e-05,-0.00056934357,4.5776367e-05,0.00015258789,-9.1552734e-05
2019-07-01T19:06:57.519Z,-0.012305496,0.0035371666,-0.20221901,-0.0143585205,-0.24885559,9.800995,-20.11261,67.33551,-119.296265,-0.019130588,-0.25037402,9.803435,0.0014178213,0.00036340952,-0.00021648407,4.5776367e-05,-0.0001373291,-0.0002746582
2019-07-01T19:06:57.732Z,-0.012273508,0.0035336132,-0.20219281,-0.01675415,-0.25125122,9.800995,-19.540405,67.518616,-119.28253,-0.019195922,-0.2497451,9.803451,-0.00067036785,0.0013710409,-0.0020570755,-0.0001373291,3.0517578e-05,-0.00021362305
2019-07-01T19:06:57.930Z,-0.012303305,0.003597114,-0.20237178,-0.01675415,-0.24885559,9.805786,-19.944763,67.41638,-118.836975,-0.020251554,-0.2505728,9.803428,-0.0012924019,-0.001850605,0.00069236755,-1.5258789e-05,0.00015258789,-0.00015258789
2019-07-01T19:06:58.132Z,-0.012353716,0.0035727227,-0.20233607,-0.01914978,-0.25125122,9.800995,-19.296265,67.76123,-119.999695,-0.019592132,-0.2514433,9.803406,0.0016495474,-0.0012197793,0.00031375885,-1.5258789e-05,-1.5258789e-05,-9.1552734e-05
2019-07-01T19:06:58.333Z,-0.012323456,0.0035050747,-0.20214619,-0.0143585205,-0.24645996,9.8033905,-21.064758,65.9668,-120.21484,-0.018461613,-0.25059026,9.803431,0.0017095655,0.0015190542,0.0005226135,-7.6293945e-05,-7.6293945e-05,-0.00015258789
2019-07-01T19:06:58.566Z,-0.012315489,0.003501444,-0.2021326,-0.01914978,-0.24406433,9.793823,-20.718384,68.167114,-118.87665,-0.018426947,-0.25042263,9.803435,-4.0028244e-06,0.00064364076,-0.00044250488,-1.5258789e-05,3.0517578e-05,-0.00015258789
2019-07-01T19:06:58.791Z,-0.012283952,0.003556534,-0.20225725,-0.011962891,-0.2416687,9.812973,-18.313599,68.193054,-120.25299,-0.019578267,-0.25003785,9.803443,-0.0014762208,0.0009871125,0.0014944077,0.00010681152,0.00015258789,-3.0517578e-05
2019-07-01T19:06:58.991Z,-0.012271397,0.0035560713,-0.20224935,-0.026321411,-0.25125122,9.808182,-20.48645,68.04199,-119.59076,-0.01962121,-0.24979472,9.803448,0.0007193554,0.0009873062,0.0011644363,-0.0001373291,0.00015258789,-9.1552734e-05
2019-07-01T19:06:59.190Z,-0.012335651,0.003590623,-0.20237239,-0.026321411,-0.25125122,9.800995,-19.120789,68.21442,-120.59479,-0.019998314,-0.25116816,9.803412,-0.001055723,-0.0026687384,-0.0008211136,-1.5258789e-05,-1.5258789e-05,-9.1552734e-05
2019-07-01T19:06:59.435Z,-0.01231263,0.0036105153,-0.20241117,-0.023925781,-0.2416687,9.793823,-20.748901,67.81616,-120.91217,-0.020461824,-0.25080585,9.803421,0.00012460165,0.00079372525,-0.00038337708,-1.5258789e-05,0.00015258789,-9.1552734e-05
2019-07-01T19:06:59.637Z,-0.012261904,0.003594835,-0.2023438,-0.03111267,-0.24645996,9.796219,-20.3125,66.52069,-119.454956,-0.020379286,-0.24976814,9.803448,0.0007587224,0.0021454394,-0.00041770935,-1.5258789e-05,0.00021362305,0.00022888184
2019-07-01T19:06:59.831Z,-0.012282992,0.0035969631,-0.20236054,-0.01914978,-0.24645996,9.805786,-19.171143,67.04407,-120.68024,-0.020332174,-0.2501819,9.803438,0.000712337,-0.0012616813,0.00067424774,4.5776367e-05,0.00021362305,0.00016784668
2019-07-01T19:07:00.036Z,-0.012251042,0.003604973,-0.20236403,-0.011962891,-0.24885559,9.820145,-20.088196,66.32843,-120.71228,-0.020611957,-0.24960023,9.8034525,0.00027392618,0.0014852136,-0.0009813309,4.5776367e-05,0.00010681152,0.00016784668
2019-07-01T19:07:00.267Z,-0.0122938445,0.0036000193,-0.20237418,-0.01675415,-0.25125122,9.815353,-19.073486,67.10968,-118.93463,-0.020344295,-0.2504027,9.8034315,5.757436e-06,-0.00083094835,-0.00048542023,-0.0002593994,-0.0001373291,-9.1552734e-05
2019-07-01T19:07:00.461Z,-0.012299979,0.00358174,-0.20233051,-0.021530151,-0.24885559,9.8033905,-19.67926,68.019104,-119.17572,-0.01998004,-0.25044706,9.803431,0.0013210848,-0.00052812696,0.0011072159,4.5776367e-05,0.0002746582,0.00016784668
2019-07-01T19:07:00.661Z,-0.012323098,0.0035607894,-0.20228907,-0.01675415,-0.25125122,9.800995,-20.106506,67.481995,-119.418335,-0.019496521,-0.25080708,9.803423,0.001554152,-0.0006477237,-0.00053310394,4.5776367e-05,0.00015258789,-0.00015258789
2019-07-01T19:07:00.868Z,-0.012316164,0.0035718316,-0.20231372,-0.0143585205,-0.2416687,9.808182,-20.73822,67.65442,-118.829346,-0.019729806,-0.2507182,9.803425,0.00035389513,-0.00025388598,0.0007505417,0.00010681152,-1.5258789e-05,-3.0517578e-05
2019-07-01T19:07:01.073Z,-0.012310142,0.0035458417,-0.20224376,-0.011962891,-0.24406433,9.800995,-19.477844,67.3111,-120.15991,-0.019272445,-0.25049812,9.803432,0.0010868143,0.000962317,0.00018978119,-0.0001373291,0.00021362305,-9.1552734e-05
2019-07-01T19:07:01.273Z,-0.012306059,0.0034930846,-0.2021061,-0.021530151,-0.25125122,9.808182,-19.885254,67.21344,-120.3125,-0.018310558,-0.25020787,9.80344,0.00227548,0.0006612241,-0.000828743,-7.6293945e-05,-1.5258789e-05,-3.0517578e-05
2019-07-01T19:07:01.474Z,-0.012293057,0.0035039845,-0.20212716,-0.023925781,-0.24645996,9.808182,-19.641113,67.152405,-119.80591,-0.018566081,-0.2500018,9.803445,-0.00081042014,0.0007022619,0.00025367737,-1.5258789e-05,-1.5258789e-05,0.00022888184
2019-07-01T19:07:01.684Z,-0.012282772,0.0035402414,-0.20221478,-0.01914978,-0.24885559,9.800995,-20.00122,68.074036,-119.30542,-0.019280871,-0.24994971,9.803445,-0.0013013128,0.00064601004,-0.00031471252,-0.0001373291,9.1552734e-05,-3.0517578e-05
2019-07-01T19:07:01.869Z,-0.012282189,0.0035397734,-0.20221326,-0.023925781,-0.24406433,9.7986145,-18.434143,67.15851,-119.77997,-0.019274587,-0.24993664,9.803446,0.00084211864,0.0003658086,-0.0017938614,-0.0001373291,0.0002746582,3.0517578e-05
2019-07-01T19:07:02.087Z,-0.012269238,0.003554158,-0.20224328,-0.01914978,-0.25125122,9.800995,-18.928528,66.98303,-119.94629,-0.019594576,-0.24974556,9.80345,-0.00027167238,0.00042581558,0.0005540848,4.5776367e-05,-1.5258789e-05,9.1552734e-05
2019-07-01T19:07:02.285Z,-0.012298854,0.0035631363,-0.20228215,-0.01914978,-0.24885559,9.808182,-19.059753,67.62848,-119.88373,-0.019639578,-0.25035068,9.803434,0.00048994087,-0.0013717413,-0.00058841705,-1.5258789e-05,0.00015258789,-9.1552734e-05
2019-07-01T19:07:02.488Z,-0.01230827,0.003553746,-0.20226307,-0.01675415,-0.24645996,9.805786,-19.204712,67.68036,-118.13202,-0.019426743,-0.25049385,9.803431,0.0007665809,-2.2947788e-05,0.0012073517,4.5776367e-05,9.1552734e-05,-0.00015258789
2019-07-01T19:07:02.691Z,-0.012298562,0.0035237945,-0.20218097,-0.01914978,-0.25602722,9.808182,-19.786072,67.57965,-119.86389,-0.018910993,-0.25018707,9.80344,0.00096855126,0.0011276603,0.0006465912,-7.6293945e-05,3.0517578e-05,9.1552734e-05
2019-07-01T19:07:02.894Z,-0.012312114,0.003507189,-0.20214556,-0.021530151,-0.25125122,9.800995,-19.441223,67.96112,-119.122314,-0.018547358,-0.2503808,9.803435,0.0010790862,-0.00082936883,0.0012311935,4.5776367e-05,0.00015258789,-3.0517578e-05
2019-07-01T19:07:03.090Z,-0.0123482505,0.0035154219,-0.20218599,-0.021530151,-0.2536316,9.812973,-20.73822,67.73071,-119.11621,-0.018551815,-0.25110817,9.803417,0.0010814276,0.00035777688,-0.0005159378,-1.5258789e-05,-1.5258789e-05,0.000289917
2019-07-01T19:07:03.294Z,-0.012342885,0.003531073,-0.20222333,-0.01914978,-0.25125122,9.793823,-19.793701,67.28516,-119.47174,-0.018864123,-0.2510679,9.803417,0.00020491332,0.0008084476,0.0014228821,-0.00032043457,0.0002746582,9.1552734e-05
2019-07-01T19:07:03.503Z,-0.012359719,0.0035502454,-0.20228155,-0.01914978,-0.24645996,9.805786,-19.541931,67.596436,-119.79523,-0.01915062,-0.25146833,9.803407,2.0843e-06,-0.00071260333,-0.0011262894,0.00010681152,9.1552734e-05,-0.0002746582
2019-07-01T19:07:03.706Z,-0.012296327,0.0035332437,-0.20220403,-0.021530151,-0.2536316,9.800995,-18.786621,66.62903,-120.40253,-0.019095441,-0.2501821,9.80344,0.0004373379,0.0025764406,0.002281189,-1.5258789e-05,0.00015258789,-0.00021362305
2019-07-01T19:07:03.908Z,-0.012282376,0.0035500282,-0.20223969,-0.01914978,-0.24645996,9.8033905,-19.487,66.93878,-119.25354,-0.019464051,-0.24998145,9.803445,-0.00039952807,0.0011690557,-6.9618225e-05,-0.00032043457,-0.0001373291,9.1552734e-05
2019-07-01T19:07:04.109Z,-0.012318764,0.0035221842,-0.20218761,-0.01914978,-0.24406433,9.793823,-20.098877,67.77954,-119.96155,-0.018798234,-0.25056878,9.803431,0.0006125085,7.1406364e-05,-0.00051403046,-0.00019836426,3.0517578e-05,0.0002746582
2019-07-01T19:07:04.313Z,-0.012312106,0.003533084,-0.20221205,-0.01675415,-0.2536316,9.808182,-19.985962,66.76788,-120.32471,-0.019027734,-0.25048462,9.803432,0.00012500957,-1.1056662e-05,0.00013446808,4.5776367e-05,-7.6293945e-05,9.1552734e-05
2019-07-01T19:07:04.520Z,-0.0123375235,0.0035355208,-0.20223188,-0.023925781,-0.25125122,9.808182,-19.464111,67.60254,-120.02411,-0.018968625,-0.25098276,9.80342,-0.00017845072,-0.00046154857,-0.00022125244,-0.00032043457,0.00015258789,-0.00021362305
2019-07-01T19:07:04.723Z,-0.012306666,0.0035250557,-0.20218854,-0.0143585205,-0.25125122,9.800995,-20.526123,67.16614,-119.76776,-0.018901136,-0.25034785,9.803436,0.00024274364,0.0024947226,0.0004940033,-0.00019836426,-0.00019836426,3.0517578e-05
2019-07-01T19:07:04.922Z,-0.012328599,0.0034990276,-0.2021334,-0.026321411,-0.2416687,9.817749,-19.735718,66.85486,-119.7876,-0.01832835,-0.2506648,9.803429,0.00061518326,-0.00055512786,-0.00078964233,4.5776367e-05,9.1552734e-05,-3.0517578e-05
2019-07-01T19:07:05.128Z,-0.012293886,0.0034954192,-0.20210561,-0.0143585205,-0.24645996,9.805786,-20.54596,66.8808,-120.581055,-0.018403785,-0.24998337,9.803446,0.00021797791,0.001881212,0.00044441223,-7.6293945e-05,3.0517578e-05,0.00016784668
2019-07-01T19:07:05.329Z,-0.0122985095,0.0035031857,-0.20212802,-0.01914978,-0.24885559,9.791428,-19.180298,68.42041,-119.41681,-0.018528903,-0.25010338,9.803444,0.00034234114,-0.00016066432,-0.00082206726,-0.0001373291,0.00021362305,-0.00015258789
2019-07-01T19:07:05.565Z,-0.012355045,0.003472969,-0.20208058,-0.0143585205,-0.25125122,9.7986145,-18.54248,66.571045,-119.96918,-0.017736524,-0.25106844,9.80342,0.0021729153,-0.001123786,-0.001660347,-1.5258789e-05,-1.5258789e-05,9.1552734e-05
2019-07-01T19:07:05.738Z,-0.012327334,0.0034651025,-0.20204559,-0.0143585205,-0.24885559,9.8033905,-19.210815,67.83905,-120.062256,-0.017704243,-0.25050446,9.803434,-0.00023931265,0.0004697442,0.00048446655,-7.6293945e-05,3.0517578e-05,-9.1552734e-05
2019-07-01T19:07:05.936Z,-0.012337035,0.003481924,-0.20209397,-0.011962891,-0.25842285,9.8033905,-20.864868,66.7038,-119.32068,-0.01797649,-0.2507583,9.803427,3.3544376e-05,-0.00022944808,0.00064086914,0.00010681152,0.00015258789,-0.00015258789
2019-07-01T19:07:06.136Z,-0.01236803,0.0035118253,-0.20218731,-0.01914978,-0.2536316,9.7986145,-20.132446,66.67023,-118.22357,-0.018403947,-0.25147378,9.803409,-0.0007432215,-0.0014049411,0.0012311935,-0.0001373291,-0.0001373291,9.1552734e-05
2019-07-01T19:07:06.344Z,-0.012381989,0.0035015673,-0.20216842,-0.01914978,-0.25125122,9.805786,-19.384766,67.533875,-119.88983,-0.018156413,-0.2517008,9.803402,0.0002163034,-0.00020900369,0.0017795563,-1.5258789e-05,0.00015258789,0.00016784668
2019-07-01T19:07:06.542Z,-0.012364922,0.0035476936,-0.20227778,-0.01675415,-0.2536316,9.8033905,-19.874573,67.28058,-119.392395,-0.01908193,-0.25155807,9.803405,-0.0014984496,0.00060012937,-0.0007238388,-0.0001373291,9.1552734e-05,-9.1552734e-05
2019-07-01T19:07:06.749Z,-0.0123751685,0.0035356039,-0.2022522,-0.021530151,-0.24645996,9.8033905,-19.621277,67.6651,-120.08209,-0.018815653,-0.2517064,9.803402,0.0015913807,2.0951033e-05,-0.0008049011,4.5776367e-05,0.00021362305,-3.0517578e-05
2019-07-01T19:07:06.951Z,-0.012371822,0.0035182207,-0.20220576,-0.021530151,-0.2536316,9.808182,-19.932556,67.93671,-120.23773,-0.018506998,-0.2515723,9.803406,0.0005647037,0.00034883618,-0.00085163116,-7.6293945e-05,-1.5258789e-05,0.00010681152
2019-07-01T19:07:07.153Z,-0.012380126,0.0035336697,-0.20224988,-0.0143585205,-0.2416687,9.805786,-20.223999,66.59851,-119.21692,-0.01875943,-0.25179386,9.803399,0.00032864697,-0.00037875772,-0.00025081635,-0.0001373291,0.00021362305,-3.0517578e-05
2019-07-01T19:07:07.355Z,-0.012321953,0.0035124822,-0.2021644,-0.01675415,-0.25842285,9.800995,-19.012451,66.75415,-119.45953,-0.018605186,-0.25059113,9.8034315,0.0004180055,0.002714306,-0.00047969818,4.5776367e-05,9.1552734e-05,-0.00015258789
2019-07-01T19:07:07.550Z,-0.0123483185,0.0034999172,-0.2021462,-0.01675415,-0.24406433,9.805786,-19.76471,68.09387,-119.98901,-0.018263957,-0.25104728,9.80342,0.0007949788,-0.0011178553,0.0011129379,0.00010681152,3.0517578e-05,-3.0517578e-05
2019-07-01T19:07:07.755Z,-0.012346009,0.0035385585,-0.20224422,-0.01675415,-0.2416687,9.791428,-20.887756,68.08777,-119.49005,-0.01899014,-0.251158,9.803415,-0.00087657385,-0.0008073747,-0.0022945404,0.00010681152,9.1552734e-05,-9.1552734e-05
2019-07-01T19:07:07.960Z,-0.012311994,0.0035574576,-0.20227459,-0.023925781,-0.2536316,9.7986145,-19.876099,67.28058,-119.46869,-0.019480303,-0.25058034,9.803429,-0.00061636046,0.0012409687,-0.0010509491,-0.0001373291,9.1552734e-05,9.1552734e-05
2019-07-01T19:07:08.164Z,-0.012307559,0.0035184142,-0.20217195,-0.023925781,-0.25125122,9.8033905,-18.959045,68.074036,-119.94934,-0.018774271,-0.25033835,9.803436,0.0017753895,0.0012460351,0.00026226044,-0.0001373291,-1.5258789e-05,0.00016784668
2019-07-01T19:07:08.372Z,-0.0123140365,0.0035475052,-0.20225012,-0.021530151,-0.25602722,9.7986145,-19.467163,67.681885,-120.76416,-0.019287312,-0.25057963,9.80343,-0.0012973789,-0.00019091368,1.4305115e-05,-1.5258789e-05,-1.5258789e-05,0.00016784668
2019-07-01T19:07:08.561Z,-0.012370627,0.003572297,-0.20234402,-0.01675415,-0.24645996,9.810577,-19.604492,67.95349,-119.49463,-0.019514792,-0.25176653,9.803398,-0.00010756776,-0.0025765002,0.00097465515,4.5776367e-05,0.00015258789,-9.1552734e-05
2019-07-01T19:07:08.766Z,-0.01236548,0.0035372565,-0.20225127,-0.011962891,-0.24885559,9.808182,-19.335938,68.4021,-118.43262,-0.01888607,-0.25152686,9.803406,0.0011711922,0.0007715821,0.0001745224,-0.00019836426,-7.6293945e-05,-0.0002746582
2019-07-01T19:07:08.968Z,-0.012371022,0.0034902669,-0.20213354,-0.01914978,-0.2536316,9.812973,-20.344543,67.614746,-119.384766,-0.017991822,-0.2514448,9.80341,0.001726592,0.0006907582,0.00012111664,-7.6293945e-05,-7.6293945e-05,3.0517578e-05
2019-07-01T19:07:09.169Z,-0.012348484,0.0034693102,-0.20206767,-0.026321411,-0.2536316,9.805786,-20.469666,68.40668,-119.51752,-0.017695569,-0.25092772,9.803424,0.0006969422,0.0011213124,-0.0010375977,-1.5258789e-05,3.0517578e-05,-0.00015258789
2019-07-01T19:07:09.374Z,-0.012355124,0.0035181378,-0.20219664,-0.01914978,-0.24406433,9.805786,-18.760681,66.99066,-119.49768,-0.018573983,-0.25125113,9.803413,0.0001423452,0.00025728345,0.00017738342,-0.0001373291,0.00015258789,-0.00015258789
2019-07-01T19:07:09.578Z,-0.012325327,0.0036013855,-0.20239452,-0.0143585205,-0.25125122,9.8033905,-19.69757,67.73224,-119.911194,-0.020240331,-0.2510131,9.803416,-0.0027379133,0.0019471347,0.00045681,-0.00038146973,9.1552734e-05,-9.1552734e-05
2019-07-01T19:07:09.780Z,-0.012301487,0.0035607063,-0.20227732,-0.0143585205,-0.2536316,9.808182,-18.365479,68.53943,-118.74695,-0.019583693,-0.2503915,9.803433,0.001640426,0.0015496016,-0.000333786,-7.6293945e-05,9.1552734e-05,-0.00021362305
2019-07-01T19:07:09.982Z,-0.01230671,0.0035515332,-0.20225655,-0.021530151,-0.25125122,9.812973,-19.064331,67.48352,-119.914246,-0.019392101,-0.25045502,9.803432,0.0004869718,0.00088885427,-0.00052928925,-0.0002593994,9.1552734e-05,-3.0517578e-05
2019-07-01T19:07:10.184Z,-0.012327093,0.0035408412,-0.20223998,-0.021530151,-0.24885559,9.800995,-19.752502,68.08319,-118.40668,-0.019110117,-0.2508037,9.803424,0.0011667181,5.3077936e-05,0.00044727325,-7.6293945e-05,9.1552734e-05,0.00016784668
2019-07-01T19:07:10.390Z,-0.012288829,0.0035735818,-0.20230362,-0.021530151,-0.25125122,9.789032,-17.996216,67.99164,-119.85474,-0.019874489,-0.25020006,9.803438,-0.000939833,0.0008546412,-0.0022583008,0.00016784668,0.00021362305,-9.1552734e-05
2019-07-01T19:07:10.592Z,-0.012290775,0.0035969561,-0.20236467,-0.011962891,-0.2536316,9.8033905,-19.906616,66.54816,-119.23828,-0.02030008,-0.25033137,9.803432,0.0002033189,-0.00021418929,0.0004081726,-0.0002593994,0.0002746582,-3.0517578e-05
2019-07-01T19:07:10.814Z,-0.012330787,0.0035656043,-0.20230554,-0.01914978,-0.25125122,9.810577,-19.23523,67.326355,-120.01343,-0.019554261,-0.25097415,9.803418,0.0020821765,-0.000759989,0.00011444092,-1.5258789e-05,-1.5258789e-05,-3.0517578e-05
2019-07-01T19:07:11.009Z,-0.012342573,0.0035337172,-0.20222995,-0.021530151,-0.24645996,9.793823,-20.100403,67.78107,-120.18738,-0.01891445,-0.25107253,9.803417,0.00072653964,-0.00017115474,0.0013580322,4.5776367e-05,-7.6293945e-05,-0.0002746582
2019-07-01T19:07:11.202Z,-0.01231604,0.0035549498,-0.20227031,-0.021530151,-0.25602722,9.791428,-19.976807,66.91284,-119.992065,-0.01941718,-0.25064802,9.803428,-0.00044750795,0.0006313622,0.0017080307,0.00010681152,0.00015258789,-9.1552734e-05
2019-07-01T19:07:11.412Z,-0.0123048695,0.0035464899,-0.20224261,-0.026321411,-0.24885559,9.808182,-19.772339,67.7948,-119.14215,-0.019306105,-0.25039938,9.803433,0.00015716068,0.00059333444,-0.001414299,-7.6293945e-05,3.0517578e-05,-0.00021362305
2019-07-01T19:07:11.611Z,-0.012300735,0.0035570448,-0.20226751,-0.0143585205,-0.25602722,9.800995,-19.15741,67.411804,-120.75653,-0.019518858,-0.25036237,9.803434,-0.00010198727,0.00034168363,0.001124382,-0.0001373291,3.0517578e-05,-7.6293945e-05
2019-07-01T19:07:11.821Z,-0.012294985,0.0035682695,-0.20229326,-0.021530151,-0.25125122,9.805786,-19.090271,66.97388,-120.243835,-0.019750677,-0.25029698,9.803435,-0.0003453102,0.00047802925,-0.0021162033,4.5776367e-05,9.1552734e-05,-0.00021362305
2019-07-01T19:07:12.022Z,-0.012322827,0.0035783611,-0.20233405,-0.01914978,-0.24885559,9.7986145,-19.612122,67.80853,-119.52362,-0.019823557,-0.2508725,9.803421,-4.3654814e-05,-0.00085514784,-0.00012683868,-0.00019836426,-7.6293945e-05,-0.00015258789
2019-07-01T19:07:12.226Z,-0.012285144,0.0035564818,-0.20225774,-0.01675415,-0.24885559,9.805786,-18.426514,67.30347,-119.60144,-0.019572407,-0.25006053,9.803442,0.00042238273,0.0019190013,7.05719e-05,0.00010681152,9.1552734e-05,-0.00015258789
2019-07-01T19:07:12.437Z,-0.01228808,0.0035302031,-0.20219183,-0.023925781,-0.2416687,9.810577,-20.469666,66.81366,-120.82367,-0.019072877,-0.25001138,9.803444,0.0011274163,0.0001797229,-0.0009088516,-0.0001373291,-1.5258789e-05,0.00016784668
2019-07-01T19:07:12.622Z,-0.012297178,0.003586761,-0.20234191,-0.021530151,-0.24645996,9.815353,-20.014954,67.85889,-119.95087,-0.020084681,-0.25041345,9.803432,-0.0014441591,-0.00033313036,0.0024309158,-0.00019836426,0.0002746582,-0.0002746582
2019-07-01T19:07:12.836Z,-0.012308636,0.0036043732,-0.20239326,-0.01914978,-0.25125122,9.815353,-19.859314,67.56897,-118.95599,-0.020364307,-0.2507044,9.803424,2.5542453e-05,-4.3720007e-05,-0.00012397766,-0.0001373291,3.0517578e-05,-3.0517578e-05
2019-07-01T19:07:13.036Z,-0.012302527,0.0035539847,-0.20226061,-0.01914978,-0.25125122,9.8033905,-20.13092,67.048645,-120.10956,-0.019454744,-0.2503845,9.803434,0.0012699906,0.0011038184,0.0026273727,-1.5258789e-05,-1.5258789e-05,-9.1552734e-05
2019-07-01T19:07:13.228Z,-0.012286277,0.0035296502,-0.20218945,-0.01914978,-0.2536316,9.805786,-19.483948,67.08832,-119.75098,-0.019070018,-0.24997452,9.803445,0.0013569482,0.00067716837,-0.0012807846,-7.6293945e-05,9.1552734e-05,3.0517578e-05
2019-07-01T19:07:13.499Z,-0.012296764,0.0035478608,-0.20224181,-0.023925781,-0.24645996,9.808182,-20.184326,67.62695,-119.61365,-0.019364798,-0.25024918,9.803438,-1.1483207e-05,-0.0002541244,-4.673004e-05,4.5776367e-05,0.00015258789,-9.1552734e-05
2019-07-01T19:07:13.682Z,-0.012269792,0.0035655168,-0.20227274,-0.01675415,-0.24885559,9.8033905,-19.854736,67.793274,-119.59076,-0.019803025,-0.24980187,9.803449,-0.00029074587,0.00072807074,-0.00035762787,-1.5258789e-05,0.00015258789,3.0517578e-05
2019-07-01T19:07:13.929Z,-0.012278913,0.0035462407,-0.20222811,-0.023925781,-0.24885559,9.793823,-19.93103,67.78259,-118.91174,-0.019408002,-0.24989967,9.803447,0.000748286,-0.00036728382,-0.00023937225,4.5776367e-05,-0.0001373291,0.00016784668
2019-07-01T19:07:14.099Z,-0.012304591,0.0035583877,-0.20227303,-0.011962891,-0.24645996,9.796219,-19.888306,66.986084,-119.37714,-0.019145947,-0.25086626,9.803422,-9.352341e-05,-0.0005480647,-0.00047016144,-0.0002593994,-1.5258789e-05,0.00015258789
2019-07-01T19:07:14.339Z,-0.012338166,0.0035174112,-0.20218572,-0.01914978,-0.24885559,9.800995,-19.215393,67.68799,-119.41528,-0.018630087,-0.2509224,9.803422,0.0014049709,0.00018715858,-0.00015163422,-1.5258789e-05,0.00015258789,0.00021362305
2019-07-01T19:07:14.538Z,-0.012276848,0.0034997917,-0.20210774,-0.01914978,-0.24885559,9.815353,-20.587158,67.674255,-119.96307,-0.018554779,-0.24967356,9.803454,0.00012495555,0.0025340468,0.00085544586,-1.5258789e-05,3.0517578e-05,0.00022888184
2019-07-01T19:07:14.768Z,-0.012270333,0.0035071506,-0.20212317,-0.01675415,-0.24645996,9.808182,-19.740295,66.78162,-119.80286,-0.018718017,-0.2495779,9.803456,-0.00018532388,-0.00020833313,-0.00055217743,-7.6293945e-05,9.1552734e-05,0.000289917
2019-07-01T19:07:14.964Z,-0.01228904,0.0035383122,-0.20221317,-0.01675415,-0.25125122,9.805786,-20.506287,67.68036,-120.04242,-0.019219367,-0.2500624,9.803443,-0.00015711598,-0.0006721914,-0.00020217896,-1.5258789e-05,9.1552734e-05,0.00016784668
2019-07-01T19:07:15.156Z,-0.012309841,0.0035010003,-0.20212846,-0.01675415,-0.24885559,9.805786,-19.766235,68.09387,-120.13855,-0.018441884,-0.25031233,9.803438,0.001689557,-0.0006700158,-0.00029850006,0.00010681152,9.1552734e-05,9.1552734e-05
2019-07-01T19:07:15.368Z,-0.012283955,0.0034970287,-0.20210443,-0.026321411,-0.25125122,9.7986145,-19.473267,67.30652,-119.48242,-0.018474374,-0.24979901,9.803451,0.00029082038,0.0007658452,0.0033092499,-1.5258789e-05,-7.6293945e-05,0.00035095215
2019-07-01T19:07:15.569Z,-0.012276573,0.0035417045,-0.20221522,-0.01914978,-0.24885559,9.808182,-19.944763,67.567444,-119.70825,-0.019333448,-0.24983649,9.803448,-0.001965845,0.00053341687,-0.0032110214,-7.6293945e-05,0.00015258789,0.00022888184
2019-07-01T19:07:15.773Z,-0.0122666005,0.0035685068,-0.20227872,-0.026321411,-0.24885559,9.7986145,-19.87915,67.28363,-119.84558,-0.019871589,-0.24975257,9.80345,-0.00022146851,-2.95192e-05,0.0007266998,-7.6293945e-05,0.00015258789,0.00047302246
2019-07-01T19:07:15.976Z,-0.012281606,0.0035439627,-0.2022237,-0.026321411,-0.25125122,9.805786,-20.225525,68.418884,-119.07196,-0.019354692,-0.24994227,9.803446,0.0011686049,0.00015623868,-0.0003042221,-1.5258789e-05,9.1552734e-05,0.00016784668
2019-07-01T19:07:16.177Z,-0.012254809,0.0035455206,-0.2022134,-0.021530151,-0.25125122,9.815353,-20.619202,68.46161,-118.36853,-0.01949355,-0.24943367,9.803459,0.000117065385,0.0010789782,-0.00020217896,-0.0001373291,-7.6293945e-05,0.0004119873
2019-07-01T19:07:16.377Z,-0.012303817,0.0035451453,-0.2022386,-0.01914978,-0.24645996,9.800995,-19.702148,67.811584,-120.651245,-0.019285478,-0.25037378,9.803434,0.000381276,-0.0018047988,-0.0007753372,0.00010681152,0.00015258789,0.00022888184
2019-07-01T19:07:16.580Z,-0.012285193,0.0035495732,-0.20224003,-0.021530151,-0.2536316,9.800995,-19.656372,67.08679,-121.10443,-0.019444047,-0.25003374,9.803443,0.00054011494,0.0012001097,0.00029182434,-0.00019836426,0.00015258789,9.1552734e-05
2019-07-01T19:07:16.786Z,-0.01229668,0.0035242245,-0.20218107,-0.0143585205,-0.24885559,9.815353,-19.299316,67.68799,-120.01495,-0.018926686,-0.25015265,9.803441,0.0009823386,0.00033560395,-0.0017232895,-0.00019836426,-0.0001373291,0.00035095215
2019-07-01T19:07:16.988Z,-0.012279827,0.0034811327,-0.20206141,-0.023925781,-0.2536316,9.8033905,-19.891357,68.73627,-119.32373,-0.018196397,-0.24965596,9.803455,0.0004958287,0.0020007193,-0.0003376007,-0.0001373291,-0.0002593994,0.00016784668
2019-07-01T19:07:17.190Z,-0.012267933,0.0034951703,-0.20209111,-0.021530151,-0.25125122,9.7986145,-20.350647,67.54303,-119.92493,-0.018505596,-0.24948373,9.803459,-0.0008729156,0.00038604438,0.0005683899,4.5776367e-05,-1.5258789e-05,0.00047302246
2019-07-01T19:07:17.413Z,-0.0122951865,0.0034592787,-0.20201348,-0.01914978,-0.25125122,9.796219,-20.185852,67.62848,-119.91577,-0.017727995,-0.24986346,9.803451,0.0016903598,-0.00067973137,-0.0008916855,-1.5258789e-05,3.0517578e-05,0.00016784668
2019-07-01T19:07:17.596Z,-0.012330362,0.0034876904,-0.20210522,-0.021530151,-0.24885559,9.800995,-19.81659,66.99829,-120.43457,-0.018110823,-0.2506532,9.80343,-0.00103865,-0.001783967,0.0010004044,-1.5258789e-05,-7.6293945e-05,0.000289917
2019-07-01T19:07:17.801Z,-0.012332031,0.003517694,-0.20218317,-0.011962891,-0.2416687,9.815353,-19.212341,67.837524,-119.8349,-0.018660516,-0.25080565,9.803425,-0.0009630006,-0.00045514107,-0.0010938644,4.5776367e-05,9.1552734e-05,-9.1552734e-05
2019-07-01T19:07:18.001Z,-0.012277487,0.0035376002,-0.20220517,-0.01675415,-0.25842285,9.7986145,-19.517517,68.18237,-119.903564,-0.019253563,-0.24983755,9.803448,-0.0006125327,0.0019542724,0.0016622543,-1.5258789e-05,0.00015258789,3.0517578e-05
2019-07-01T19:07:18.201Z,-0.012287571,0.003492276,-0.20209417,-0.023925781,-0.2416687,9.7986145,-19.311523,67.39502,-119.921875,-0.018371372,-0.24984942,9.80345,0.0018620137,4.1380525e-05,-0.00016307831,4.5776367e-05,3.0517578e-05,-0.00033569336
2019-07-01T19:07:18.404Z,-0.012270071,0.0035599365,-0.20225856,-0.01914978,-0.24885559,9.800995,-19.572449,67.015076,-120.365906,-0.01969836,-0.2497848,9.803449,-0.0023199506,-0.00050356984,-0.00059223175,0.00010681152,0.00015258789,-0.00015258789
2019-07-01T19:07:18.604Z,-0.012261707,0.0034911283,-0.20207742,-0.009567261,-0.24885559,9.796219,-19.77539,67.79785,-119.66858,-0.018456133,-0.2493479,9.803463,0.002189381,0.00072452426,-0.0010375977,-1.5258789e-05,-0.0001373291,-9.1552734e-05
2019-07-01T19:07:18.819Z,-0.012276466,0.0035173811,-0.2021527,-0.026321411,-0.25125122,9.805786,-19.683838,68.022156,-119.55261,-0.018882658,-0.24973679,9.803452,-0.00026622042,-0.00029705465,0.0018663406,-0.0001373291,0.00021362305,3.0517578e-05
2019-07-01T19:07:19.011Z,-0.012332769,0.0035319258,-0.20222011,-0.023925781,-0.24885559,9.812973,-18.901062,67.56592,-119.8288,-0.018921455,-0.25087696,9.803422,1.7343089e-05,-0.0013000667,0.00061130524,-0.0001373291,3.0517578e-05,0.00010681152
2019-07-01T19:07:19.214Z,-0.012331897,0.003528743,-0.20221147,-0.0143585205,-0.2632141,9.8033905,-19.873047,67.35382,-119.529724,-0.018866,-0.25084743,9.803423,0.0013954174,0.0010402501,-0.0018463135,-0.00019836426,-7.6293945e-05,9.1552734e-05
2019-07-01T19:07:19.420Z,-0.01236425,0.003568758,-0.20233151,-0.026321411,-0.24885559,9.808182,-19.621277,67.588806,-119.56787,-0.01947535,-0.25162977,9.803402,-0.00086377375,-0.0012737811,5.340576e-05,-0.00019836426,0.00015258789,3.0517578e-05
2019-07-01T19:07:19.625Z,-0.0123371305,0.0035628425,-0.20230184,-0.01675415,-0.2536316,9.8033905,-19.360352,67.96875,-119.27338,-0.019476991,-0.25108495,9.803416,0.000101221725,0.0020377636,0.002120018,-7.6293945e-05,3.0517578e-05,-0.0002746582
2019-07-01T19:07:19.828Z,-0.012290068,0.0035866366,-0.2023378,-0.01914978,-0.25842285,9.800995,-20.20874,67.19055,-120.2301,-0.020111566,-0.25027633,9.803435,-0.0009429697,0.0014530122,-0.00034809113,-7.6293945e-05,-7.6293945e-05,-9.1552734e-05
2019-07-01T19:07:20.025Z,-0.012328653,0.0035466256,-0.20225567,-0.01675415,-0.24645996,9.7986145,-19.732666,67.00287,-120.1355,-0.019211007,-0.2508569,9.803422,0.0017413367,-0.0008458793,-0.00087070465,0.00010681152,9.1552734e-05,-9.1552734e-05
2019-07-01T19:07:20.231Z,-0.012254096,0.003543813,-0.20220864,-0.0143585205,-0.25602722,9.805786,-19.569397,67.012024,-119.98901,-0.019464789,-0.24941307,9.803458,-0.00015683286,0.002724111,-0.00041866302,-0.0001373291,9.1552734e-05,-3.0517578e-05
2019-07-01T19:07:20.431Z,-0.012284736,0.0035551128,-0.20225401,-0.01914978,-0.25125122,9.812973,-19.850159,67.866516,-119.57703,-0.019548686,-0.25004718,9.803442,0.00017031096,-0.00048318505,-0.0009126663,-7.6293945e-05,0.00015258789,-0.00015258789
2019-07-01T19:07:20.638Z,-0.012301685,0.0035703613,-0.20230222,-0.021530151,-0.2416687,9.7986145,-20.06073,66.83502,-120.0058,-0.019761974,-0.25043413,9.803432,0.00014159642,-0.00029808283,0.0021123886,-0.0002593994,9.1552734e-05,-3.0517578e-05
2019-07-01T19:07:20.837Z,-0.0123015605,0.003561387,-0.2022791,-0.01914978,-0.24885559,9.800995,-20.544434,66.726685,-119.63196,-0.019596022,-0.25039566,9.803433,0.00044829212,0.00062021613,-0.00033664703,-1.5258789e-05,9.1552734e-05,-9.1552734e-05
2019-07-01T19:07:21.039Z,-0.012298866,0.0035676262,-0.20229368,-0.023925781,-0.2536316,9.7986145,-20.71991,66.34979,-119.3985,-0.019722812,-0.25036898,9.803434,0.00033120625,-0.0003645718,0.00024032593,0.00010681152,0.00015258789,-0.00015258789
2019-07-01T19:07:21.237Z,-0.012311681,0.0035617712,-0.2022855,-0.0143585205,-0.25125122,9.7986145,-20.254517,67.68646,-118.84155,-0.019561604,-0.25059167,9.803429,0.0011312999,-0.00038579106,8.583069e-06,-7.6293945e-05,0.00015258789,-3.0517578e-05
2019-07-01T19:07:21.457Z,-0.012335675,0.0035834424,-0.20235397,-0.01675415,-0.24406433,9.812973,-19.425964,66.50696,-119.26727,-0.01986504,-0.25113976,9.803413,-0.0004727114,-0.0008006394,-0.00015449524,-7.6293945e-05,-7.6293945e-05,0.00022888184
2019-07-01T19:07:21.646Z,-0.012308035,0.0035665773,-0.20229588,-0.021530151,-0.25125122,9.8033905,-20.072937,66.389465,-119.114685,-0.01966572,-0.25054094,9.803431,0.0005184673,0.0017175376,0.00037956238,-7.6293945e-05,0.00015258789,-9.1552734e-05
2019-07-01T19:07:21.850Z,-0.01229543,0.0035303168,-0.20219605,-0.021530151,-0.25125122,9.800995,-19.073486,67.185974,-119.14368,-0.01904483,-0.25015306,9.80344,0.0020636953,0.0008493662,-0.000538826,-0.0001373291,0.0002746582,-3.0517578e-05
2019-07-01T19:07:22.058Z,-0.012293815,0.003572163,-0.20230263,-0.01914978,-0.24885559,9.796219,-19.335938,66.65802,-119.0155,-0.019827705,-0.25029013,9.803435,-0.0005104989,0.0004954934,-0.00019931793,-0.00019836426,0.0002746582,3.0517578e-05
2019-07-01T19:07:22.262Z,-0.012286329,0.0035558408,-0.20225672,-0.023925781,-0.24406433,9.805786,-19.741821,66.555786,-118.7912,-0.019555654,-0.2500807,9.803441,0.0013674926,0.0009849966,-0.0013990402,4.5776367e-05,9.1552734e-05,-3.0517578e-05
2019-07-01T19:07:22.510Z,-0.012256372,0.003561531,-0.20225534,-0.021530151,-0.24885559,9.7986145,-20.262146,67.61627,-119.158936,-0.01978416,-0.24952799,9.803455,-0.0003111828,0.0009226054,0.00018501282,4.5776367e-05,9.1552734e-05,0.00033569336
2019-07-01T19:07:22.663Z,-0.012239773,0.003548821,-0.20221385,-0.01914978,-0.25602722,9.7986145,-19.509888,68.17474,-118.92395,-0.019616464,-0.249158,9.803465,0.0004674215,0.0005558878,0.0002746582,-1.5258789e-05,3.0517578e-05,0.00015258789
2019-07-01T19:07:22.862Z,-0.012273241,0.0035631978,-0.20226863,-0.026321411,-0.2536316,9.800995,-20.088196,67.848206,-119.2688,-0.019745845,-0.24985881,9.803447,-0.000119818375,-0.0008879155,0.0005130768,-0.00032043457,-7.6293945e-05,0.00016784668
2019-07-01T19:07:23.078Z,-0.012334517,0.0035433231,-0.20225032,-0.0143585205,-0.24406433,9.8033905,-19.699097,67.733765,-119.98749,-0.019125683,-0.2509563,9.803419,0.0011832584,-0.0007428825,0.00067043304,-0.0002593994,9.1552734e-05,9.1552734e-05
2019-07-01T19:07:23.285Z,-0.012283451,0.0035776554,-0.2023112,-0.023925781,-0.2536316,9.800995,-20.005798,68.00079,-119.54498,-0.01997213,-0.25011307,9.803439,-0.0010837298,0.0017616451,-0.0006713867,4.5776367e-05,4.5776367e-05,0.00022888184
2019-07-01T19:07:23.480Z,-0.012280331,0.003552992,-0.2022462,-0.0143585205,-0.2536316,9.8033905,-20.742798,67.81006,-120.08209,-0.019527424,-0.24995403,9.803445,0.00086655654,0.00038935244,-0.00059986115,-0.0001373291,-1.5258789e-05,0.0004119873
2019-07-01T19:07:23.681Z,-0.012320218,0.0035312243,-0.2022116,-0.023925781,-0.2416687,9.805786,-19.439697,67.88483,-118.53485,-0.018959954,-0.250633,9.803429,0.0012607723,-0.00060483813,0.00039958954,-1.5258789e-05,3.0517578e-05,-3.0517578e-05
2019-07-01T19:07:23.882Z,-0.01229874,0.0035319694,-0.20220205,-0.0143585205,-0.24885559,9.805786,-20.487976,67.89093,-118.94226,-0.019061903,-0.25022334,9.803439,-8.739717e-05,0.0011298954,-0.0005245209,-0.0001373291,0.00021362305,-9.1552734e-05
2019-07-01T19:07:24.087Z,-0.012298465,0.0035181108,-0.20216632,-0.01914978,-0.24406433,9.7986145,-18.818665,67.49725,-119.392395,-0.018805958,-0.2501624,9.803441,0.001580745,0.0006156862,0.0015678406,-7.6293945e-05,0.00015258789,-9.1552734e-05
2019-07-01T19:07:24.290Z,-0.012266156,0.003548635,-0.20222746,-0.009567261,-0.25842285,9.7986145,-19.699097,67.73224,-119.76166,-0.019504761,-0.24966419,9.8034525,-0.0013066102,0.0013023019,-0.0003862381,-0.0002593994,0.00015258789,-0.00015258789
2019-07-01T19:07:24.493Z,-0.01233438,0.0035335997,-0.20222527,-0.01914978,-0.2536316,9.8033905,-20.315552,68.04199,-118.16406,-0.018945895,-0.25091463,9.803421,0.0021934137,-0.0015046597,6.67572e-05,-0.0001373291,0.00021362305,9.1552734e-05
2019-07-01T19:07:24.691Z,-0.012267108,0.003584074,-0.20231895,-0.011962891,-0.28953552,9.805786,-19.366455,67.97333,-120.02869,-0.020158293,-0.24982485,9.803446,-0.0016130805,0.0022108853,0.0011644363,-7.6293945e-05,0.00021362305,4.5776367e-05
2019-07-01T19:07:24.899Z,-0.012292608,0.0036039266,-0.20238355,-0.01914978,-0.22970581,9.810577,-18.992615,67.42096,-120.60852,-0.020421853,-0.25039464,9.8034315,8.434616e-05,-0.001070559,-0.0005044937,4.5776367e-05,0.00015258789,0.000289917
2019-07-01T19:07:25.100Z,-0.012334296,0.0036183153,-0.20244278,-0.01914978,-0.2416687,9.7986145,-19.621277,67.58728,-119.49158,-0.020517487,-0.25125355,9.803411,0.00017935038,-0.00140962,-0.0006494522,-0.0001373291,-1.5258789e-05,0.00016784668
2019-07-01T19:07:25.300Z,-0.012281995,0.003589625,-0.20234115,-0.028717041,-0.27038574,9.796219,-20.672607,67.52319,-120.06683,-0.020366909,-0.251646,9.8034,0.0003359653,0.0027461648,0.0010061264,-7.6293945e-05,-7.6293945e-05,-9.1552734e-05
2019-07-01T19:07:25.506Z,-0.0122623565,0.0035571333,-0.20224725,-0.01675415,-0.27038574,9.808182,-20.666504,67.51709,-119.16199,-0.019678013,-0.24962533,9.803453,0.001962427,0.004842147,-0.0011873245,-0.00019836426,9.1552734e-05,-0.00021362305
2019-07-01T19:07:25.702Z,-0.0122601595,0.0035707273,-0.20228098,-0.023925781,-0.24406433,9.7986145,-18.966675,67.77649,-119.25354,-0.01993922,-0.24963771,9.803452,-0.00015754998,0.0005261451,-0.0007867813,-1.5258789e-05,0.00015258789,0.00022888184
2019-07-01T19:07:25.906Z,-0.012274825,0.0035792512,-0.2023107,-0.01914978,-0.23928833,9.8033905,-18.945312,68.21289,-119.0155,-0.020037146,-0.24995376,9.803444,0.00041384995,-0.0005864501,0.00043201447,-7.6293945e-05,3.0517578e-05,0.00022888184
2019-07-01T19:07:26.112Z,-0.012225933,0.0035432049,-0.20219204,-0.01675415,-0.25602722,9.7986145,-19.822693,66.77704,-120.103455,-0.019569047,-0.24886952,9.8034725,0.00042061694,0.0017095804,0.0018815994,4.5776367e-05,-0.00019836426,9.1552734e-05
2019-07-01T19:07:26.314Z,-0.012272439,0.003519207,-0.20215525,-0.021530151,-0.23210144,9.808182,-20.1828,67.62695,-119.53888,-0.01893305,-0.24966674,9.803453,0.00074619614,-0.0010748208,0.00030231476,-0.0001373291,-7.6293945e-05,0.00016784668
2019-07-01T19:07:26.516Z,-0.012269293,0.00351311,-0.20213792,-0.01675415,-0.26081848,9.805786,-19.386292,67.46063,-119.60449,-0.018832842,-0.24958181,9.803455,-0.0005453937,0.00025886297,-0.0012331009,0.00010681152,-0.00019836426,9.1552734e-05
2019-07-01T19:07:26.715Z,-0.012281311,0.0035034784,-0.20211959,-0.01914978,-0.24885559,9.800995,-20.024109,67.48505,-119.044495,-0.01860487,-0.24977408,9.803452,0.00041574053,-0.0007687509,-0.0011510849,4.5776367e-05,9.1552734e-05,4.5776367e-05
2019-07-01T19:07:26.965Z,-0.012288019,0.0034991966,-0.20211217,-0.023925781,-0.24645996,9.805786,-20.01648,67.85889,-120.10193,-0.018497923,-0.2498858,9.803449,0.0010259803,0.00030453503,3.1471252e-05,-7.6293945e-05,3.0517578e-05,3.0517578e-05
2019-07-01T19:07:27.142Z,-0.012253342,0.003463792,-0.20200276,-0.021530151,-0.25602722,9.8033905,-19.631958,67.292786,-119.09943,-0.017983237,-0.24907753,9.80347,3.871508e-05,0.0018978119,0.00051116943,-7.6293945e-05,-7.6293945e-05,3.0517578e-05
2019-07-01T19:07:27.331Z,-0.0122766495,0.0034913884,-0.20208606,-0.023925781,-0.24406433,9.8033905,-20.71991,67.79175,-117.36755,-0.01839969,-0.24963601,9.803454,-3.1128526e-05,-0.0013466328,0.0020895004,4.5776367e-05,0.00021362305,-0.00015258789
2019-07-01T19:07:27.535Z,-0.012245248,0.0034839525,-0.20205021,-0.021530151,-0.24885559,9.7986145,-19.77539,67.79785,-119.51904,-0.018390475,-0.24900283,9.803471,-0.00027034804,0.0015907139,-0.0011577606,-0.0002593994,-1.5258789e-05,-9.1552734e-05
2019-07-01T19:07:27.733Z,-0.012252603,0.0035574632,-0.20224288,-0.021530151,-0.25125122,9.8033905,-20.097351,67.70172,-119.374084,-0.019724155,-0.24943922,9.803457,-0.00229319,-0.00011976063,0.00035381317,-1.5258789e-05,-1.5258789e-05,0.000289917
2019-07-01T19:07:27.933Z,-0.012259453,0.0035809467,-0.20230684,-0.01675415,-0.23928833,9.8033905,-20.166016,66.3208,-120.55664,-0.020131705,-0.2496652,9.803451,-0.0004520174,-0.0003758222,-0.0007200241,-7.6293945e-05,0.00021362305,3.0517578e-05
2019-07-01T19:07:28.139Z,-0.012273117,0.003589476,-0.20233603,-0.0143585205,-0.24406433,9.812973,-20.271301,67.32178,-118.91632,-0.020233834,-0.24996208,9.803444,0.00036794692,-0.00031480193,0.0006418228,-7.6293945e-05,-1.5258789e-05,-0.00021362305
2019-07-01T19:07:28.337Z,-0.012277139,0.0035814217,-0.2023175,-0.01914978,-0.25602722,9.796219,-19.270325,66.52222,-119.94934,-0.020067908,-0.25000694,9.803442,0.00044625998,-0.00026857853,0.00010108948,-0.0001373291,0.00015258789,0.00021362305
2019-07-01T19:07:28.542Z,-0.012292092,0.0035362758,-0.20220956,-0.01675415,-0.24645996,9.7986145,-19.186401,68.34717,-119.506836,-0.019169068,-0.25011286,9.803441,0.0021717865,0.0005532801,-7.8201294e-05,-7.6293945e-05,3.0517578e-05,9.1552734e-05
2019-07-01T19:07:28.747Z,-0.012306134,0.0035629654,-0.2022856,-0.011962891,-0.25125122,9.805786,-20.909119,67.72766,-120.166016,-0.019606523,-0.2504899,9.8034315,-0.0007313397,-0.0004903376,0.0010595322,-0.00019836426,3.0517578e-05,0.00016784668
2019-07-01T19:07:28.953Z,-0.012295997,0.00355993,-0.20227239,-0.021530151,-0.25125122,9.8033905,-19.75708,68.315125,-120.32013,-0.019591827,-0.2502829,9.803436,-2.9938295e-05,0.0009675622,-0.0010385513,-1.5258789e-05,3.0517578e-05,0.00022888184
2019-07-01T19:07:29.156Z,-0.0123260785,0.0035566005,-0.20227991,-0.023925781,-0.24645996,9.815353,-19.294739,67.759705,-119.85016,-0.019406587,-0.25084752,9.803422,0.0005028974,-0.0010956228,0.0009050369,4.5776367e-05,-1.5258789e-05,3.0517578e-05
2019-07-01T19:07:29.358Z,-0.012311554,0.0035610613,-0.2022836,-0.01675415,-0.25125122,9.793823,-20.658875,67.66205,-119.05823,-0.019548956,-0.25058636,9.803429,-0.0005595777,0.0008021295,0.0006055832,-7.6293945e-05,-7.6293945e-05,0.00022888184
2019-07-01T19:07:29.557Z,-0.012299331,0.0035761103,-0.20231572,-0.011962891,-0.24645996,9.817749,-20.176697,67.770386,-119.43207,-0.019878281,-0.250412,9.803432,-0.00093170814,0.00015985966,0.0004014969,-1.5258789e-05,-1.5258789e-05,0.00022888184
2019-07-01T19:07:29.766Z,-0.012329698,0.003571841,-0.20232098,-0.026321411,-0.24885559,9.800995,-20.326233,66.30707,-120.1004,-0.01967441,-0.2509783,9.803418,0.00052979775,-0.00019174814,0.0021886826,-0.00019836426,3.0517578e-05,0.00016784668
2019-07-01T19:07:29.976Z,-0.012339649,0.0035556366,-0.20228468,-0.021530151,-0.23928833,9.812973,-20.314026,68.19763,-119.18793,-0.019333005,-0.25110438,9.803416,0.00042948313,-0.0001192987,-0.0030069351,-7.6293945e-05,-7.6293945e-05,0.00021362305
2019-07-01T19:07:30.174Z,-0.012298107,0.0035493071,-0.20224623,-0.023925781,-0.25125122,9.805786,-20.509338,67.53235,-119.54346,-0.019386115,-0.25028077,9.803436,0.00048245303,0.0024120212,-8.4877014e-05,-0.0002593994,0.00021362305,9.1552734e-05
2019-07-01T19:07:30.371Z,-0.012303181,0.0035482273,-0.20224617,-0.021530151,-0.24406433,9.7986145,-20.075989,66.39252,-119.41681,-0.019345261,-0.25037393,9.803434,0.00091423653,0.00082179904,-0.0003633499,-0.00019836426,3.0517578e-05,9.1552734e-05
2019-07-01T19:07:30.576Z,-0.012308122,0.0034974017,-0.20211829,-0.0143585205,-0.25125122,9.793823,-20.098877,67.70325,-119.599915,-0.01838218,-0.25026485,9.803439,0.0018744767,0.0009676218,0.000872612,-7.6293945e-05,0.00015258789,-3.0517578e-05
2019-07-01T19:07:30.781Z,-0.012273498,0.00355307,-0.20224276,-0.021530151,-0.25125122,9.805786,-18.734741,67.49725,-118.870544,-0.019556908,-0.24982305,9.803448,-0.0017434042,0.0009796619,-0.0014829636,-7.6293945e-05,9.1552734e-05,0.000289917
2019-07-01T19:07:30.981Z,-0.012268852,0.0035566867,-0.20224957,-0.021530151,-0.25125122,9.8033905,-20.753479,67.518616,-120.06531,-0.019643072,-0.24974832,9.80345,-0.00022263452,0.00043541193,0.00028514862,-7.6293945e-05,-7.6293945e-05,-3.0517578e-05
2019-07-01T19:07:31.181Z,-0.012233696,0.0035557002,-0.20222826,-0.021530151,-0.2536316,9.7986145,-19.567871,66.93573,-119.400024,-0.01976903,-0.24906886,9.803467,-0.0003255587,0.0014190376,2.7656555e-05,-0.00019836426,-1.5258789e-05,-9.1552734e-05
2019-07-01T19:07:31.392Z,-0.01222074,0.0035620676,-0.2022377,-0.01914978,-0.2536316,9.810577,-20.283508,67.333984,-120.42389,-0.019940324,-0.2488455,9.803472,-0.00039839745,0.0012108535,2.4795532e-05,-7.6293945e-05,-1.5258789e-05,9.1552734e-05
2019-07-01T19:07:31.585Z,-0.012260951,0.0035727555,-0.2022866,-0.01675415,-0.2536316,9.827316,-20.272827,67.474365,-119.79065,-0.019973593,-0.24966109,9.803452,-0.00012142584,-0.0010917932,-0.00045681,-1.5258789e-05,-7.6293945e-05,0.00016784668
2019-07-01T19:07:31.789Z,-0.012243879,0.0035710959,-0.20227323,-0.023925781,-0.25842285,9.805786,-21.06781,67.4881,-118.774414,-0.020396706,-0.24975069,9.803449,-0.0005704183,0.0007250458,2.0980835e-05,-1.5258789e-05,-7.6293945e-05,9.1552734e-05
2019-07-01T19:07:31.992Z,-0.0122502735,0.0035730258,-0.2022816,-0.01675415,-0.24645996,9.812973,-19.935608,67.86499,-120.17822,-0.020022433,-0.249457,9.803456,0.0008740295,0.0010915995,0.0011825562,-7.6293945e-05,-7.6293945e-05,0.000289917
2019-07-01T19:07:32.198Z,-0.012255455,0.0035652567,-0.20226441,-0.021530151,-0.25602722,9.808182,-20.213318,67.04559,-120.33386,-0.01985704,-0.24952535,9.803455,0.0009509679,0.00043545663,-0.0017595291,-0.0001373291,0.0002746582,0.0002746582
2019-07-01T19:07:32.401Z,-0.0122639965,0.0035526776,-0.20223668,-0.026321411,-0.24885559,9.810577,-19.87915,67.359924,-120.28198,-0.019588623,-0.24963892,9.8034525,0.0006826576,6.201863e-05,0.00010108948,-0.00019836426,-7.6293945e-05,0.00035095215
2019-07-01T19:07:32.603Z,-0.012233013,0.0035618434,-0.20224367,-0.0143585205,-0.2536316,9.793823,-18.795776,68.0069,-119.288635,-0.019885805,-0.24908042,9.803466,-0.0004549399,0.0014204979,-0.0004081726,4.5776367e-05,3.0517578e-05,9.1552734e-05
2019-07-01T19:07:32.803Z,-0.012229691,0.0035425744,-0.20219243,-0.01675415,-0.25602722,9.796219,-19.467163,67.45453,-119.7525,-0.019541929,-0.2489392,9.803471,0.0006363597,8.4504485e-05,0.0008459091,4.5776367e-05,9.1552734e-05,9.1552734e-05
2019-07-01T19:07:33.010Z,-0.012234665,0.0035728025,-0.2022727,-0.023925781,-0.24645996,9.808182,-19.902039,66.77246,-119.94934,-0.020082355,-0.24915624,9.803465,-0.00025646016,-0.00040224195,0.0010433197,-0.0001373291,0.00015258789,0.00016784668
2019-07-01T19:07:33.211Z,-0.012267003,0.003595653,-0.20234863,-0.01914978,-0.25125122,9.808182,-20.269775,67.47284,-119.63959,-0.02037352,-0.2498694,9.803445,3.465824e-05,-0.0013682842,-9.727478e-05,4.5776367e-05,9.1552734e-05,3.0517578e-05
2019-07-01T19:07:33.414Z,-0.012269229,0.0035644188,-0.20226963,-0.026321411,-0.25125122,9.796219,-20.185852,67.62848,-120.06683,-0.019784963,-0.24978663,9.803449,0.0008803215,0.00022646785,-6.484985e-05,4.5776367e-05,-1.5258789e-05,3.0517578e-05
2019-07-01T19:07:33.617Z,-0.012275059,0.0035734049,-0.20229581,-0.01914978,-0.2536316,9.800995,-20.759583,67.370605,-119.94476,-0.019927736,-0.24993473,9.803444,-0.00016437657,0.00016438961,0.002667427,-0.00019836426,3.0517578e-05,9.1552734e-05
2019-07-01T19:07:33.822Z,-0.012319654,0.0035712305,-0.20231405,-0.023925781,-0.24885559,9.810577,-19.700623,67.733765,-120.13855,-0.019704325,-0.25078288,9.803424,0.00055731833,-0.0013790727,-0.0009250641,-0.00019836426,-1.5258789e-05,-9.1552734e-05
2019-07-01T19:07:34.024Z,-0.012295956,0.0035878052,-0.20234394,-0.01914978,-0.24885559,9.786652,-20.178223,67.69714,-119.44885,-0.020109065,-0.25039414,9.8034315,-0.00022890046,0.0015634596,-0.0007724762,4.5776367e-05,0.0002746582,-0.0002746582
2019-07-01T19:07:34.228Z,-0.01227743,0.0036062319,-0.20238136,-0.026321411,-0.24645996,9.779465,-20.391846,66.59241,-119.88983,-0.020526944,-0.2501123,9.803438,-5.367957e-05,0.0008261204,0.0014009476,-0.0001373291,0.00015258789,-0.00021362305
2019-07-01T19:07:34.494Z,-0.012255678,0.0036084882,-0.20237553,-0.023925781,-0.24645996,9.796219,-19.51294,66.65802,-120.97015,-0.02065813,-0.24970342,9.803449,0.00056543015,0.0008856207,-0.00033664703,-1.5258789e-05,0.0002746582,-3.0517578e-05
2019-07-01T19:07:34.699Z,-0.012250485,0.003607493,-0.2023702,-0.01914978,-0.2536316,9.815353,-17.967224,67.43469,-123.21625,-0.020660983,-0.24959962,9.803451,0.00056685694,0.00053568184,-0.0013399124,-1.5258789e-05,3.0517578e-05,-9.1552734e-05
2019-07-01T19:07:34.835Z,-0.012280485,0.0036400324,-0.20246977,-0.011962891,-0.24406433,9.805786,-19.721985,67.7536,-122.85309,-0.021141378,-0.25030702,9.803433,-0.0008738246,-0.0016231239,0.0013437271,-0.0001373291,0.00015258789,-0.00015258789
2019-07-01T19:07:35.141Z,-0.012245994,0.0036502297,-0.20247751,-0.023925781,-0.24885559,9.8033905,-17.832947,66.633606,-121.94977,-0.021472236,-0.24968536,9.803448,-0.0003002882,0.0018116236,-0.0013370514,-0.0001373291,-7.6293945e-05,-3.0517578e-05
2019-07-01T19:07:35.345Z,-0.01224549,0.003654815,-0.20248902,-0.023925781,-0.24885559,9.82254,-18.475342,68.56384,-122.587585,-0.02155937,-0.24969415,9.803448,-0.00021642633,0.001065284,-0.0029582977,-0.0001373291,0.00015258789,0.00010681152
2019-07-01T19:07:35.550Z,-0.012254513,0.0036452133,-0.20246918,-0.023925781,-0.25125122,9.8033905,-20.353699,67.39807,-119.955444,-0.021344183,-0.24982886,9.803445,0.0005306881,-0.0004669726,0.0008955002,4.5776367e-05,-7.6293945e-05,-0.00015258789
2019-07-01T19:07:35.755Z,-0.012250324,0.0036072487,-0.20236948,-0.01675415,-0.24885559,9.796219,-20.333862,68.0603,-120.50018,-0.020657118,-0.24959557,9.803452,0.0015072916,0.000983566,0.0004491806,-0.0001373291,-1.5258789e-05,0.000289917
2019-07-01T19:07:35.961Z,-0.012256081,0.0035804114,-0.20230366,-0.0023956299,-0.17706299,9.769897,-19.863892,67.726135,-120.3598,-0.020135611,-0.24959828,9.8034525,0.00075770915,-0.00043807924,0.00077342987,0.00010681152,3.0517578e-05,-9.1552734e-05
2019-07-01T19:07:36.165Z,-0.0121229505,0.0036345643,-0.20237157,-0.047851562,-0.31825256,9.815353,-18.778992,66.85333,-120.961,-0.02168688,-0.24725808,9.803509,-0.0020059291,0.004430592,0.0030679703,4.5776367e-05,0.00016784668,0.00015258789
2019-07-01T19:07:36.370Z,-0.012255716,0.0035222503,-0.20215413,0.021530151,-0.20817566,9.810577,-20.393372,66.74652,-120.765686,-0.019058103,-0.24935764,9.803461,0.004699195,-0.0033329725,-0.0041742325,-0.00019836426,0.00021362305,-7.6293945e-05
2019-07-01T19:07:36.576Z,-0.012264366,0.0036434382,-0.2024699,-0.035888672,-0.23210144,9.824936,-19.924927,68.23425,-120.70618,-0.021270776,-0.25001103,9.80344,-0.0031442754,-0.0007635206,-0.00053977966,-0.0002593994,-7.6293945e-05,-7.6293945e-05
2019-07-01T19:07:36.781Z,-0.0121834325,0.0035603624,-0.2022134,0.0047912598,-0.2871399,9.8033905,-20.43457,67.541504,-120.5246,-0.020061746,-0.24812183,9.803491,0.0021168012,0.004767135,0.0004415512,-0.0001373291,0.00016784668,-7.6293945e-05
2019-07-01T19:07:36.985Z,-0.012367145,0.0036351283,-0.20250352,-0.0382843,-0.21296692,9.851257,-19.348145,68.33801,-119.65332,-0.020694291,-0.25195235,9.803391,-0.0006059129,-0.0071747005,0.0014181137,-0.0001373291,4.5776367e-05,0.00010681152
2019-07-01T19:07:37.191Z,-0.012277298,0.003577201,-0.20230675,-0.011962891,-0.27278137,9.82254,-20.324707,68.05267,-119.296265,-0.019988962,-0.24999303,9.803443,0.0013270583,0.0044893175,-0.001288414,-0.0001373291,0.00015258789,-0.00015258789
2019-07-01T19:07:37.396Z,-0.012259669,0.0036211426,-0.20241015,-0.033493042,-0.23928833,9.789032,-19.406128,67.25006,-121.00372,-0.020876488,-0.24983104,9.803446,-0.00042136572,5.5015087e-05,0.0036058426,4.5776367e-05,0.00010681152,-3.0517578e-05
2019-07-01T19:07:37.600Z,-0.012258782,0.00361083,-0.2023832,-0.011962891,-0.23928833,9.789032,-19.703674,67.81464,-121.02814,-0.02068882,-0.24977249,9.803447,0.000106263906,0.00021843612,-0.0017366409,-0.00019836426,0.00016784668,0.00021362305
2019-07-01T19:07:37.662Z,-0.012229924,0.0036009785,-0.2023425,-0.021530151,-0.26560974,9.8033905,-19.88678,67.13867,-120.1004,-0.020624552,-0.24917838,9.803462,0.0012458321,0.0017563999,-0.0014781952,-1.5258789e-05,-1.5258789e-05,0.00021362305
2019-07-01T19:07:37.864Z,-0.012275895,0.0036183137,-0.20241156,-0.01914978,-0.22970581,9.805786,-19.464111,67.75513,-120.82367,-0.02075736,-0.2501314,9.803437,-0.0007731635,-0.0018414557,-0.00034427643,4.5776367e-05,3.0517578e-05,3.0517578e-05
2019-07-01T19:07:38.074Z,-0.012257823,0.0035829942,-0.20231122,-0.011962891,-0.2632141,9.796219,-20.170593,66.32385,-121.00983,-0.020176379,-0.24964213,9.803452,0.0015150718,0.0007889271,0.00056266785,4.5776367e-05,-1.5258789e-05,9.1552734e-05
2019-07-01T19:07:38.267Z,-0.012274369,0.0035804396,-0.2023135,-0.021530151,-0.24406433,9.796219,-20.677185,67.44995,-120.15686,-0.01894741,-0.24977505,9.803451,0.002192609,0.0001937598,-0.00091457367,0.00016784668,-7.6293945e-05,9.1552734e-05
2019-07-01T19:07:38.471Z,-0.012222423,0.0035971708,-0.20232871,-0.021530151,-0.26081848,9.812973,-20.884705,68.16101,-119.400024,-0.020584699,-0.24901897,9.803467,-0.003098324,0.001825124,-0.00060749054,-7.6293945e-05,0.00010681152,0.00015258789
2019-07-01T19:07:38.681Z,-0.012278609,0.003497184,-0.20210199,-0.0143585205,-0.24885559,9.810577,-19.07959,67.19208,-120.199585,-0.018499175,-0.24969693,9.803453,0.00389597,-0.001317516,0.00071430206,-0.00019836426,-0.0001373291,3.0517578e-05
2019-07-01T19:07:38.883Z,-0.01226201,0.0035684942,-0.20227623,-0.028717041,-0.2536316,9.808182,-18.33496,67.75665,-120.49255,-0.019890198,-0.2496643,9.803452,-0.002128018,0.00033837557,0.0007944107,-1.5258789e-05,0.00021362305,9.1552734e-05
2019-07-01T19:07:39.088Z,-0.012278802,0.0035437637,-0.20222169,-0.01675415,-0.24885559,9.7986145,-19.73114,68.75,-119.85626,-0.019362506,-0.24988759,9.803447,0.0011747722,-0.0006368607,0.0005283356,4.5776367e-05,4.5776367e-05,0.00016784668
2019-07-01T19:07:39.289Z,-0.012283605,0.0035817963,-0.20232192,-0.03111267,-0.24645996,9.805786,-19.110107,68.20526,-119.38934,-0.020048315,-0.25013268,9.803439,-0.0007649958,-0.000405401,-0.0010814667,-1.5258789e-05,0.00021362305,9.1552734e-05
2019-07-01T19:07:39.487Z,-0.012291099,0.003504791,-0.20212819,-0.009567261,-0.2536316,9.796219,-19.490051,68.5379,-118.548584,-0.018589078,-0.24996743,9.803447,0.0032687057,0.0006314367,-0.00024032593,4.5776367e-05,0.00010681152,-3.0517578e-05
2019-07-01T19:07:39.707Z,-0.012271862,0.0035650136,-0.20227255,-0.026321411,-0.24645996,9.808182,-19.830322,68.151855,-118.61267,-0.019785192,-0.24983959,9.803447,-0.0015153736,4.6864152e-05,0.0012731552,-0.0001373291,0.00022888184,9.1552734e-05
2019-07-01T19:07:39.898Z,-0.012314484,0.0035238105,-0.2021895,-0.011962891,-0.25125122,9.800995,-20.037842,67.49878,-120.85266,-0.018845959,-0.25049308,9.803432,0.002091473,-0.000518471,-0.0010576248,-0.0001373291,-1.5258789e-05,3.0517578e-05
2019-07-01T19:07:40.107Z,-0.012323394,0.0035587058,-0.20228387,-0.023925781,-0.24406433,9.808182,-20.523071,67.39349,-120.62836,-0.019456659,-0.2508044,9.803423,-0.0011248402,-0.00016906857,0.0029716492,-7.6293945e-05,-1.5258789e-05,-9.1552734e-05
2019-07-01T19:07:40.315Z,-0.012345306,0.0035523828,-0.20227934,-0.009567261,-0.24406433,9.7986145,-20.974731,67.78717,-119.02008,-0.019249432,-0.2512,9.803413,0.00034644827,-0.0007337332,5.9127808e-05,0.00010681152,9.1552734e-05,-9.1552734e-05
2019-07-01T19:07:40.510Z,-0.012272231,0.0035753727,-0.20229936,-0.03111267,-0.2536316,9.805786,-19.876099,67.50946,-120.93048,-0.019975845,-0.24988832,9.803445,-0.0006069895,0.0024829805,-0.0013961792,-1.5258789e-05,3.0517578e-05,0.00047302246
2019-07-01T19:07:40.715Z,-0.0122801075,0.003514324,-0.2021468,-0.011962891,-0.23928833,9.810577,-20.106506,67.63306,-120.14313,-0.01881101,-0.24979448,9.803451,0.0020582285,0.0002399087,0.00018787384,-0.0001373291,9.1552734e-05,0.00016784668
2019-07-01T19:07:40.915Z,-0.012233318,0.0035469914,-0.2022057,-0.028717041,-0.25842285,9.800995,-20.347595,67.39197,-118.97583,-0.019609004,-0.24902661,9.803468,-0.0014477316,0.0018544793,-0.0009908676,-7.6293945e-05,-0.00019836426,0.00016784668
2019-07-01T19:07:41.113Z,-0.012319747,0.0035182955,-0.20217815,-0.01675415,-0.24406433,9.791428,-19.171143,66.893005,-119.80438,-0.018722065,-0.25057206,9.803431,0.0012516286,-0.0025748014,0.00046253204,-0.0002593994,-1.5258789e-05,0.00022888184
2019-07-01T19:07:41.322Z,-0.012315546,0.0035761811,-0.20232457,-0.026321411,-0.2536316,9.8033905,-19.398499,67.24243,-119.94934,-0.019813016,-0.25072384,9.803425,-0.0022049975,0.0014005303,-0.00047016144,-0.00044250488,-1.5258789e-05,0.000289917
2019-07-01T19:07:41.518Z,-0.012317614,0.0035127574,-0.20216279,-0.01914978,-0.24645996,9.8033905,-19.270325,66.52222,-119.94934,-0.018628089,-0.25050884,9.803432,0.0025919285,0.0009472072,0.00048446655,-7.6293945e-05,0.00015258789,0.00045776367
2019-07-01T19:07:41.731Z,-0.012326092,0.0036010772,-0.20239413,-0.026321411,-0.2536316,9.824936,-19.747925,68.30597,-119.03992,-0.02023147,-0.25102657,9.803416,-0.0032220148,1.04904175e-05,-0.001581192,-0.00032043457,-0.00019836426,0.0004119873
2019-07-01T19:07:41.925Z,-0.0123165725,0.0035660956,-0.2022992,-0.01675415,-0.24885559,9.793823,-18.812561,67.86957,-120.4483,-0.019621732,-0.25070304,9.803426,0.00071653165,0.0013800263,0.0011796951,-1.5258789e-05,3.0517578e-05,0.00022888184
2019-07-01T19:07:42.125Z,-0.012318253,0.003551898,-0.20226365,-0.021530151,-0.2536316,9.8033905,-20.497131,67.74902,-119.27185,-0.019351492,-0.25067827,9.803427,0.0009181928,0.00013539195,-0.0011253357,4.5776367e-05,-7.6293945e-05,0.0004119873
2019-07-01T19:07:42.329Z,-0.012367046,0.0035477467,-0.20227905,-0.021530151,-0.24645996,9.8033905,-19.233704,67.32483,-119.63806,-0.01907419,-0.2515991,9.803404,-7.5696036e-05,-0.0020338893,0.00052928925,-1.5258789e-05,-0.00016784668,0.00021362305
2019-07-01T19:07:42.532Z,-0.012309864,0.003538114,-0.20222378,-0.01675415,-0.2536316,9.8033905,-18.89038,67.78412,-119.558716,-0.01913024,-0.25046173,9.803432,-0.00024823286,0.0018527508,0.0003490448,4.5776367e-05,0.00012207031,0.000289917
2019-07-01T19:07:42.735Z,-0.012330595,0.0035274983,-0.20220758,-0.01675415,-0.24885559,9.791428,-21.073914,67.492676,-119.5282,-0.018848259,-0.25081742,9.803424,0.00041590445,-0.00018617511,7.43866e-05,-0.0001373291,-0.00010681152,0.00022888184
2019-07-01T19:07:42.937Z,-0.01231825,0.0035046623,-0.20214234,-0.01914978,-0.24406433,9.810577,-18.977356,67.63458,-119.885254,-0.018475322,-0.25048855,9.803432,0.000760898,0.00092974305,0.0008459091,-7.6293945e-05,-4.5776367e-05,0.000289917
2019-07-01T19:07:43.151Z,-0.012297601,0.003531044,-0.20219907,-0.023925781,-0.2416687,9.805786,-21.228027,65.956116,-120.28656,-0.019049412,-0.2501977,9.803439,-0.0012897328,0.00087985396,-0.00022697449,-0.00019836426,0.0,0.00035095215
2019-07-01T19:07:43.343Z,-0.012279607,0.0035464484,-0.20222902,-0.011962891,-0.24885559,9.7986145,-19.0979,66.82892,-120.42389,-0.019409005,-0.24991384,9.803446,-0.00068552606,0.0013190657,0.00049591064,-7.6293945e-05,-4.5776367e-05,0.00016784668
