rotationVector_x,rotationVector_y,rotationVector_z,accelerometer_x,accelerometer_y,accelerometer_z,magneticField_x,magneticField_y,magneticField_z,gravity_x,gravity_y,gravity_z,linearAcceleration_x,linearAcceleration_y,linearAcceleration_z,gyroscope_x,gyroscope_y,gyroscope_z
-0.015234591,0.0037068473,-0.7336182,0.17468262,-0.26081848,9.839294,-14.781189,0.43640137,-36.65924,0.1698122,-0.2563361,9.801829,0.00030352175,0.0013000071,-0.0029211044,-0.00018310547,0.0004272461,3.0517578e-05
-0.015257976,0.00369632,-0.733638,0.18185425,-0.25842285,9.796219,-14.663696,1.3244629,-37.013245,0.17029643,-0.2564911,9.801816,0.0024161786,0.0005352497,0.0031490326,-0.00018310547,0.0004272461,3.0517578e-05
-0.015273685,0.0037435305,-0.73372364,0.18185425,-0.26081848,9.882355,-14.665222,1.248169,-36.878967,0.16992594,-0.25735813,9.801801,0.0022739172,2.8580427e-05,0.0018281937,-0.00018310547,0.00036621094,0.0002593994
-0.015305531,0.0036648249,-0.73366475,0.16270447,-0.26081848,9.800995,-14.486694,1.6983032,-37.097168,0.17141055,-0.25666454,9.801792,0.0039783567,0.0018438101,-0.008835793,-0.00018310547,0.00030517578,-4.5776367e-05
-0.015307267,0.0036690333,-0.73367286,0.16989136,-0.2632141,9.796219,-13.499451,0.76446533,-39.59198,0.17138253,-0.25674617,9.801791,0.0018434078,3.5256147e-05,0.001282692,0.0,0.00048828125,-9.1552734e-05
-0.015260393,0.003659509,-0.73359233,0.16989136,-0.26081848,9.7986145,-15.031433,0.58288574,-38.583374,0.1708045,-0.25600514,9.80182,0.0009773225,0.001689285,0.0011606216,-0.00012207031,0.0004272461,0.0001373291
-0.015254517,0.003681729,-0.7336135,0.17228699,-0.25842285,9.7986145,-15.72876,1.0391235,-37.783813,0.17043185,-0.25624126,9.801821,0.0013557225,0.000482589,-0.000664711,-0.00018310547,0.00061035156,-9.1552734e-05
-0.015271451,0.003689154,-0.7336479,0.17706299,-0.2536316,9.810577,-15.582275,0.68359375,-37.78534,0.17058957,-0.25656494,9.801808,0.0023985952,-0.00015538931,-0.001244545,-0.00018310547,0.00048828125,-0.00015258789
-0.015280631,0.003705986,-0.73368365,0.17228699,-0.25602722,9.796219,-15.087891,0.93536377,-37.680054,0.17051092,-0.2569204,9.8018,0.0017504543,-2.9534101e-05,0.0010786057,-0.00012207031,0.00061035156,-9.1552734e-05
-0.0152574405,0.0037269867,-0.7336781,0.17228699,-0.25602722,9.8033905,-14.758301,0.7965088,-35.90851,0.1698953,-0.25691515,9.801812,0.00020441413,0.00045374036,0.0011930466,-0.00018310547,0.0004272461,0.0001373291
-0.015289349,0.0036822252,-0.7336645,0.17228699,-0.25602722,9.796219,-16.490173,1.8569946,-36.9812,0.17094575,-0.25669944,9.8018,0.003473118,0.0009458363,-0.0019140244,-0.00012207031,0.00030517578,7.6293945e-05
-0.015272141,0.0036465295,-0.73359203,0.16749573,-0.2536316,9.796219,-15.066528,1.2939453,-36.927795,0.1711464,-0.25597498,9.801815,0.0023029894,0.0018966794,0.00094509125,-0.00018310547,0.00036621094,3.0517578e-05
-0.015278605,0.0036625632,-0.7336228,0.17468262,-0.25602722,9.8033905,-16.925049,1.0971069,-36.816406,0.17103733,-0.25628397,9.801808,0.0012134165,-0.00040611625,0.0009393692,0.0,0.00048828125,-4.5776367e-05
-0.015274693,0.003676068,-0.7336351,0.17228699,-0.25842285,9.786652,-16.319275,0.33874512,-37.52289,0.17080578,-0.2564231,9.801809,0.00095668435,-3.799796e-05,-1.04904175e-05,-0.00012207031,0.00036621094,-3.0517578e-05
-0.0152662955,0.0036658242,-0.7336093,0.17468262,-0.25842285,9.8033905,-18.02826,-3.0258179,-31.419373,0.1708117,-0.25617036,9.801816,0.0014266074,0.0006891787,0.0014209747,0.0,0.00036621094,7.6293945e-05
-0.015249941,0.0037639278,-0.73371655,0.18424988,-0.24645996,9.8033905,-16.409302,-35.97412,0.61798096,0.16930975,-0.2573372,9.801811,4.221499e-05,-0.0017019212,0.0020551682,-0.00018310547,0.0004272461,-0.00016784668
-0.01525648,0.0036805489,-0.73361474,0.1651001,-0.25125122,9.836899,-0.83465576,-30.535889,6.6741943,0.17047629,-0.25625008,9.801819,0.0031983703,0.0029174984,-0.0023012161,-0.00012207031,0.0014648438,-0.00033569336
-0.015336875,0.0036287208,-0.7336619,0.25842285,-0.18664551,9.324829,6.413269,-58.065796,18.139648,0.17234159,-0.25656322,9.801779,0.0008698702,-0.00037047267,-0.001200676,0.0,-0.0020141602,-0.00033569336
-0.015086688,0.0035672225,-0.7332179,0.21296692,-0.2416687,9.774673,15.873718,-73.550415,18.527222,0.16939558,-0.25245726,9.801936,0.004082024,0.0021667182,-0.004258156,0.0007324219,0.0034942627,0.00021362305
-0.015135974,0.0036283538,-0.73337084,0.16989136,-0.2536316,9.796219,20.59021,-79.87671,19.308472,0.16934651,-0.25395504,9.801899,1.6465783e-05,-0.0017450154,0.0064201355,0.00036621094,-0.0005950928,1.5258789e-05
-0.015142845,0.0035843486,-0.733322,0.17468262,-0.2536316,9.793823,21.316528,-79.678345,18.565369,0.17001373,-0.2534259,9.801901,0.0031846464,0.0015319288,-0.00067043304,-0.00012207031,0.0005493164,-0.00015258789
-0.015162156,0.0036222585,-0.7334005,0.17468262,-0.25125122,9.808182,21.203613,-78.897095,20.013428,0.16981551,-0.25420877,9.801884,0.0009989887,-0.0017613173,-0.0014133453,6.1035156e-05,0.0004272461,-9.1552734e-05
-0.015097803,0.0035884322,-0.7332623,0.16749573,-0.2536316,9.800995,22.540283,-79.53339,19.750977,0.1692892,-0.25289935,9.801928,0.0010471195,0.0026513338,-0.0011072159,-6.1035156e-05,0.00036621094,0.0001373291
-0.015056799,0.0036491088,-0.73328406,0.17468262,-0.2536316,9.8033905,21.687317,-78.63464,18.913269,0.16789857,-0.25322008,9.801943,-0.000897184,9.36687e-05,-0.0007429123,0.0,0.00061035156,-3.0517578e-05
-0.015064544,0.0036230143,-0.7332604,0.17228699,-0.25602722,9.810577,21.012878,-79.33655,19.023132,0.16834903,-0.25295386,9.801941,0.0029648393,0.00077435374,-0.0011463165,-0.00024414062,0.0005493164,-4.5776367e-05
-0.015082109,0.0035917838,-0.7332441,0.16989136,-0.2536316,9.8033905,22.517395,-78.297424,20.07904,0.169012,-0.25274292,9.801936,0.0027565807,0.0010637343,0.0021028519,-6.1035156e-05,0.00048828125,-0.00015258789
-0.015053134,0.003605879,-0.73322105,0.1651001,-0.2536316,9.805786,21.783447,-78.48816,19.844055,0.16839875,-0.25256518,9.80195,-0.000696525,0.0006532371,-3.4332275e-05,6.1035156e-05,0.00036621094,-0.00010681152
-0.015047365,0.0035851789,-0.73318505,0.16989136,-0.25602722,9.796219,22.328186,-78.8147,19.45343,0.16857842,-0.25219956,9.801957,0.001997918,0.00027933717,-0.00066661835,-6.1035156e-05,0.00030517578,3.0517578e-05
-0.015079005,0.0036065152,-0.73325926,0.16749573,-0.25842285,9.7986145,21.324158,-79.608154,18.8797,0.16877659,-0.2529096,9.801935,0.002050072,-0.0006830096,-0.00077342987,0.0,0.0004272461,0.00019836426
-0.015095631,0.0036524863,-0.73334473,0.17706299,-0.25125122,9.805786,21.728516,-79.504395,18.431091,0.16843472,-0.25377107,9.801919,0.0009575933,-0.0012556314,-4.2915344e-05,-0.00012207031,0.0004272461,7.6293945e-05
-0.0150988065,0.003611748,-0.7332949,0.17228699,-0.25125122,9.805786,21.336365,-79.39148,19.302368,0.1690049,-0.25323987,9.801923,0.0030175894,0.0017902553,-0.00067424774,-0.00018310547,0.0005493164,-0.00015258789
-0.015098075,0.0036318502,-0.7333207,0.17228699,-0.2536316,9.800995,20.67566,-79.800415,19.548035,0.16873603,-0.25351283,9.801921,0.0016048998,0.0006336272,0.00035190582,-0.00030517578,0.0004272461,0.0002593994
-0.015091376,0.0036182287,-0.7332928,0.17468262,-0.2536316,9.7986145,21.7453,-79.37317,20.419312,0.16881084,-0.25323457,9.801926,0.0013102591,0.0010589063,-0.0010499954,-0.00018310547,0.00048828125,0.0001373291
-0.015103907,0.003586552,-0.7332686,0.16749573,-0.25125122,9.808182,21.052551,-78.611755,19.848633,0.16940439,-0.25295204,9.801923,0.0026174635,0.0010149777,0.00074100494,-0.00012207031,0.00036621094,0.00019836426
-0.015063531,0.0035646188,-0.73318094,0.17468262,-0.2536316,9.774673,21.414185,-79.45862,19.284058,0.16908354,-0.2521204,9.80195,0.001738742,0.001875788,0.0011129379,-6.1035156e-05,0.0004272461,-0.00021362305
-0.01509362,0.0035932777,-0.7332627,0.16749573,-0.25125122,9.800995,21.191406,-79.11224,19.59076,0.16916457,-0.25291315,9.8019285,0.0018728077,-0.00089654326,0.0015420914,-0.00012207031,0.00048828125,0.0002593994
-0.015113996,0.0036233398,-0.73333234,0.17228699,-0.25842285,9.812973,21.273804,-78.95813,19.166565,0.16908284,-0.25359967,9.801912,0.001961872,-0.0014033616,0.0008535385,-0.00018310547,0.00048828125,9.1552734e-05
-0.015154548,0.0036013902,-0.73336166,0.17228699,-0.24645996,9.805786,22.20459,-79.77142,19.415283,0.16996971,-0.253817,9.801891,0.003220871,0.00027155876,0.0005674362,0.0,0.0004272461,7.6293945e-05
-0.015147365,0.0036134312,-0.7333674,0.17228699,-0.2536316,9.800995,21.50879,-79.1626,19.644165,0.169708,-0.25389305,9.801894,0.001337558,0.0005669892,-0.0007457733,-0.00012207031,0.00048828125,7.6293945e-05
-0.015136833,0.003571484,-0.7332961,0.17706299,-0.2536316,9.805786,22.280884,-78.16925,20.26825,0.1700891,-0.25316724,9.801906,0.0024033934,0.0019735396,-0.0014591217,-0.00018310547,0.00048828125,0.0001373291
-0.015168412,0.0036082824,-0.7333909,0.17468262,-0.25602722,9.805786,20.852661,-79.34723,18.951416,0.17008822,-0.25409353,9.801883,0.001667276,-0.001151979,0.0004682541,-0.00018310547,0.00036621094,0.0002593994
-0.015202128,0.0036035655,-0.7334334,0.1603241,-0.2536316,9.805786,21.115112,-79.19922,20.86029,0.17065203,-0.25446424,9.801864,0.0025485307,0.00018665195,0.0004644394,-0.00024414062,0.00036621094,-3.0517578e-05
-0.015159705,0.0035989597,-0.7333659,0.16749573,-0.25842285,9.805786,21.16394,-79.54559,18.977356,0.17007786,-0.2538497,9.801888,0.0007289499,0.0012325644,-0.00017929077,0.0,0.0004272461,3.0517578e-05
-0.015163862,0.0035725317,-0.7333366,0.16749573,-0.25602722,9.817749,21.090698,-79.47998,19.444275,0.17047901,-0.25353232,9.801889,0.0022401363,0.0009075105,-0.00060367584,-0.00012207031,0.00048828125,0.0002746582
-0.015125341,0.0035301954,-0.73322433,0.17468262,-0.25842285,9.800995,20.980835,-80.067444,18.875122,0.17044759,-0.25243837,9.801919,0.0018038601,0.0026741028,-0.0005722046,-6.1035156e-05,0.00030517578,7.6293945e-05
-0.0151238525,0.0035933303,-0.7333065,0.1651001,-0.24885559,9.796219,21.929932,-78.69568,19.267273,0.16961503,-0.25330585,9.80191,0.0002426058,-0.0010077953,-0.00022411346,-0.00024414062,0.0006866455,3.0517578e-05
-0.015132842,0.0035647748,-0.7332814,0.17228699,-0.25842285,9.7986145,20.809937,-78.549194,19.343567,0.17011565,-0.25302127,9.801909,0.0023939908,0.0010848641,-0.0014352798,-6.1035156e-05,0.00036621094,0.0002593994
-0.0151650505,0.0035709862,-0.73333627,0.17468262,-0.2536316,9.800995,21.113586,-79.1214,20.272827,0.1705166,-0.25352603,9.801889,0.0024599284,-0.0010257661,0.0006303787,-0.00012207031,0.0004272461,0.00019836426
-0.015192766,0.0035578674,-0.73335886,0.18424988,-0.26081848,9.805786,21.281433,-78.81012,19.345093,0.17109857,-0.25370097,9.801875,0.0028323084,0.000105410814,0.00074005127,0.0,0.00036621094,-3.0517578e-05
-0.015193799,0.0035450263,-0.7333432,0.16989136,-0.26081848,9.808182,21.336365,-79.39148,19.377136,0.17124285,-0.25400814,9.801864,0.0014974177,-0.00031131506,-0.006058693,-0.00012207031,0.00036621094,0.00032043457
-0.015193571,0.0035638602,-0.733368,0.17228699,-0.2536316,9.796219,21.266174,-79.252625,19.859314,0.17103371,-0.2537956,9.801874,0.0017084628,0.0009076297,-0.00022220612,-0.00012207031,0.00036621094,0.0001373291
-0.015228455,0.0036345862,-0.7335129,0.17228699,-0.25125122,9.808182,21.958923,-79.93469,19.692993,0.17064716,-0.25524116,9.801842,0.0011303276,-0.0017156005,0.00032901764,-0.00024414062,0.00061035156,7.6293945e-05
-0.015174414,0.0035802254,-0.73336214,0.17228699,-0.25125122,9.808182,20.593262,-79.88129,19.836426,0.17053781,-0.2537772,9.801884,0.0017029792,0.0030829906,0.0029268265,-0.00024414062,0.0005493164,9.1552734e-05
-0.01518902,0.003557337,-0.7333527,0.17228699,-0.2536316,9.796219,21.398926,-79.97742,20.236206,0.17104948,-0.25364497,9.801877,0.0026374906,0.0007662475,-0.0014009476,-0.00012207031,0.0004272461,-9.1552734e-05
-0.015148726,0.003520734,-0.73324555,0.16749573,-0.2632141,9.805786,21.130371,-78.756714,20.34607,0.17091794,-0.25260863,9.801906,0.0018203557,0.0016336441,-0.0014390945,0.0,0.0005493164,-0.00015258789
-0.015168317,0.0035704442,-0.73334026,0.17468262,-0.25602722,9.805786,21.783447,-80.085754,18.765259,0.1705723,-0.25356075,9.8018875,0.0012084395,-0.0014710128,0.0012712479,0.00012207031,0.00048828125,3.0517578e-05
-0.015173941,0.0035521195,-0.73332393,0.17706299,-0.2536316,9.800995,21.195984,-79.04053,19.906616,0.17089137,-0.25337625,9.801887,0.0020637363,0.0012516975,0.0018033981,-0.00018310547,0.00036621094,-0.00015258789
-0.015228313,0.0035745916,-0.7334326,0.17228699,-0.25125122,9.800995,21.157837,-79.844666,19.821167,0.17141461,-0.25439653,9.801851,0.0036972463,-0.001321584,-0.0007200241,-0.00024414062,0.0005493164,-4.5776367e-05
-0.015151093,0.003563123,-0.7333056,0.17706299,-0.2536316,9.805786,21.121216,-78.82233,19.5755,0.17040922,-0.25323468,9.8019,0.00062668324,0.002539575,0.0003004074,-0.00018310547,0.0006866455,-9.1552734e-05
-0.015131747,0.003566789,-0.7332825,0.16749573,-0.2536316,9.800995,21.3974,-79.59442,17.897034,0.17007346,-0.25303537,9.801909,0.0009662807,0.0004119873,-0.00043964386,0.0,0.00048828125,-0.00015258789
-0.015144007,0.0035497744,-0.7332775,0.17468262,-0.25125122,9.793823,21.774292,-79.92401,16.607666,0.17047478,-0.25295532,9.801905,0.0022333115,0.0008350909,0.0011396408,-6.1035156e-05,0.0004272461,9.1552734e-05
-0.015157516,0.0035862334,-0.73334575,0.17468262,-0.25125122,9.805786,21.769714,-78.85895,20.298767,0.1702085,-0.25364256,9.801892,0.00083239377,-0.00041672587,-0.0013151169,-0.00024414062,0.00030517578,-0.00021362305
-0.015189642,0.0035682288,-0.73336816,0.17468262,-0.25602722,9.808182,21.307373,-78.302,19.82727,0.17091899,-0.253806,9.801874,0.0018214881,0.00018814206,-0.0024728775,-6.1035156e-05,0.00036621094,-0.00021362305
-0.015160038,0.0035542832,-0.7333067,0.17945862,-0.25602722,9.805786,21.57898,-79.45099,19.960022,0.17065614,-0.25322646,9.801895,0.0015953928,0.0017989576,0.0018548965,-0.00024414062,0.00018310547,-0.0002746582
-0.015180055,0.003566543,-0.73335207,0.16989136,-0.25125122,9.8033905,21.766663,-78.855896,19.770813,0.17079754,-0.2536581,9.801881,0.0021683872,6.79791e-05,0.00027751923,-0.00018310547,0.0006866455,-0.00015258789
-0.015148914,0.003497487,-0.73321474,0.17228699,-0.25842285,9.8033905,20.64209,-78.78418,19.831848,0.17121917,-0.25228462,9.801909,0.002229765,0.0037147999,-0.0010967255,-0.00030517578,0.00036621094,3.0517578e-05
-0.0151377255,0.0034992304,-0.7332009,0.17228699,-0.2536316,9.7986145,20.613098,-79.289246,18.89801,0.17102985,-0.25216404,9.801915,0.0017069131,0.000947088,-0.0005750656,-0.00018310547,0.0004272461,-0.00016784668
-0.015204593,0.0034890522,-0.733284,0.17706299,-0.25125122,9.8033905,21.911621,-78.982544,18.67981,0.17215817,-0.2528878,9.801877,0.00058563054,-0.00049111247,-0.00084400177,-0.00018310547,0.00048828125,-0.00021362305
-0.015235131,0.003527622,-0.7333797,0.17706299,-0.25125122,9.793823,21.354675,-78.79944,18.363953,0.17211898,-0.25382516,9.801854,0.0032506436,-0.0014404356,0.0014972687,-0.00024414062,0.0,0.0001373291
-0.015201883,0.003562249,-0.7333779,0.17945862,-0.25125122,9.7986145,21.670532,-79.0741,18.974304,0.17117845,-0.25388068,9.801869,0.0012889802,0.00054982305,0.0021047592,-6.1035156e-05,0.0007324219,-9.1552734e-05
-0.01516327,0.0035401208,-0.73329246,0.17228699,-0.24645996,9.793823,20.680237,-79.652405,19.049072,0.17088613,-0.25306943,9.801895,0.0015890449,0.0025956333,-0.0008392334,-0.00024414062,0.00062561035,0.0002593994
-0.0151489265,0.0035554979,-0.7332923,0.16989136,-0.24406433,9.805786,20.663452,-80.09338,19.488525,0.17047475,-0.2530995,9.801902,0.0013131648,0.00045260787,-0.0016870499,-0.00024414062,0.0006866455,7.6293945e-05
-0.015105621,0.0035328958,-0.7331994,0.17468262,-0.24645996,9.805786,20.936584,-79.3457,19.630432,0.17011872,-0.25222063,9.80193,0.0016516596,0.0029340088,0.00031661987,-0.00012207031,0.00044250488,7.6293945e-05
-0.0151770525,0.0035756559,-0.7333599,0.16989136,-0.24885559,9.812973,20.167542,-78.523254,19.602966,0.17063579,-0.25374717,9.801881,0.0018559098,-9.262562e-05,-0.0001077652,-0.00061035156,-0.00061035156,-0.00010681152
-0.015148882,0.0036131684,-0.73336923,0.16749573,-0.2536316,9.796219,19.688416,-78.55835,19.992065,0.169734,-0.253909,9.801892,0.0017917007,0.000572294,0.0023069382,-0.00036621094,0.0007324219,0.00021362305
-0.015211478,0.003614552,-0.7334616,0.1651001,-0.26081848,9.800995,-9.564209,-27.001953,2.3147583,0.17065065,-0.2547397,9.801855,0.0011082292,0.0011675656,-0.0005083084,-0.00036621094,0.0019073486,0.00019836426
-0.015234533,0.0036237736,-0.7335073,0.17706299,-0.25842285,9.8033905,-16.981506,0.077819824,-28.260803,0.1708766,-0.25516802,9.801841,0.0004260242,0.0006095469,-0.0019235611,-0.0008544922,-0.0014038086,1.5258789e-05
-0.015212482,0.0036175014,-0.733467,0.17228699,-0.25602722,9.800995,-18.122864,2.36969,-32.429504,0.17062783,-0.25479418,9.801855,0.0013866127,0.0009608567,0.000620842,-6.1035156e-05,0.00030517578,-3.0517578e-05
-0.015231874,0.003645875,-0.7335329,0.17706299,-0.24885559,9.808182,-17.745972,3.8635254,-33.877563,0.17055345,-0.25544408,9.801839,0.0012449026,-0.0003156066,-0.0014982224,-6.1035156e-05,0.00048828125,-9.1552734e-05
-0.015217461,0.0036594872,-0.7335302,0.16989136,-0.25842285,9.8033905,-17.478943,4.4662476,-33.992004,0.17016365,-0.25544858,9.801846,0.0013756901,0.00065732,0.0017108917,-0.00036621094,0.00048828125,3.0517578e-05
-0.01521741,0.0036480303,-0.73351485,0.17228699,-0.25842285,9.8033905,-17.132568,3.4042358,-35.203552,0.17030984,-0.25528696,9.801847,0.0024082512,0.0009857714,0.0012969971,-0.00012207031,0.0005493164,7.6293945e-05
-0.01519391,0.003657715,-0.7334938,0.17945862,-0.25842285,9.812973,-17.85431,3.503418,-35.30426,0.16983475,-0.25511852,9.801861,1.4394522e-05,0.00034490228,5.531311e-05,-6.1035156e-05,0.0004272461,7.6293945e-05
-0.015207848,0.0036870202,-0.73355305,0.18185425,-0.25842285,9.8033905,-17.330933,4.18396,-34.132385,0.169667,-0.2557109,9.801847,0.0008919537,-0.00024160743,0.000831604,-6.1035156e-05,0.00018310547,0.0001373291
-0.015190839,0.0036664044,-0.73350096,0.17706299,-0.26081848,9.779465,-16.462708,4.032898,-35.406494,0.16967744,-0.2552008,9.801861,0.0016256124,0.00087082386,-0.0031194687,-0.00018310547,0.00036621094,0.0001373291
-0.015224302,0.00370831,-0.73360527,0.18185425,-0.27038574,9.805786,-16.490173,4.9682617,-33.70514,0.16963977,-0.25622332,9.801835,0.001392439,-0.0016520023,0.0030231476,0.0,0.00036621094,0.0002593994
-0.015256532,0.0036950898,-0.73363423,0.17468262,-0.26081848,9.796219,-15.655518,3.704834,-33.392334,0.17029065,-0.25645512,9.801818,0.0031441152,0.0002476275,-0.0008678436,-0.00018310547,0.0005493164,-9.1552734e-05
-0.015244608,0.003693769,-0.7336152,0.17706299,-0.2632141,9.877579,-16.111755,4.408264,-33.833313,0.17012948,-0.25628206,9.801825,0.0023517758,0.0008029938,0.00084400177,-0.00018310547,0.0005493164,1.5258789e-05
-0.0152189,0.0036563138,-0.7335281,0.16270447,-0.2536316,9.779465,-15.071106,4.40979,-34.405518,0.17022584,-0.25542265,9.801846,0.0015529543,0.0020498335,-0.0034313202,-6.1035156e-05,0.00048828125,-4.5776367e-05
-0.015200233,0.003674564,-0.73352545,0.17468262,-0.26081848,9.810577,-16.845703,4.3670654,-34.79309,0.16971305,-0.2554372,9.801854,0.001110509,0.00041505694,0.0010614395,-0.00012207031,0.0005493164,0.00019836426
-0.015188327,0.003681197,-0.73351705,0.16749573,-0.25602722,9.7986145,-16.549683,3.65448,-34.12018,0.1694502,-0.2553761,9.80186,0.0006543249,0.00058573484,0.00022697449,-6.1035156e-05,0.00030517578,-3.0517578e-05
-0.015225831,0.0037009856,-0.7335977,0.17468262,-0.25602722,9.815353,-15.771484,4.7943115,-33.543396,0.16975652,-0.2561402,9.801835,0.0022576004,-0.0010491312,-0.00033187866,-0.00012207031,0.00036621094,-0.00015258789
-0.015259808,0.0036879235,-0.7336294,0.16989136,-0.2632141,9.7986145,-15.5807495,4.0985107,-35.957336,0.17043144,-0.25639683,9.801816,0.0030115992,0.00064983964,0.00057315826,-0.00024414062,0.0004272461,0.00015258789
-0.015283961,0.0036614444,-0.733629,0.17228699,-0.2536316,9.810577,-16.218567,3.970337,-34.672546,0.17113169,-0.25633764,9.8018055,0.0030303746,0.0005876422,-0.0002641678,-0.00018310547,0.00036621094,-9.1552734e-05
-0.015280933,0.0036841524,-0.7336549,0.17228699,-0.25602722,9.805786,-15.69519,3.2089233,-35.45227,0.17079534,-0.25661752,9.801805,0.001215294,0.00015041232,-1.8119812e-05,-0.00012207031,0.00048828125,7.6293945e-05
-0.01527457,0.003668644,-0.73362505,0.17468262,-0.25842285,9.805786,-16.467285,3.7338257,-34.40857,0.17089912,-0.25631717,9.80181,0.0023142844,0.0012882948,0.0002965927,-0.00024414062,0.00048828125,-9.1552734e-05
-0.015287313,0.0036660668,-0.73364,0.16989136,-0.2536316,9.800995,-15.376282,2.8533936,-33.87909,0.17112248,-0.256446,9.801803,0.002093032,-0.00024926662,-0.000289917,-0.00012207031,0.00061035156,-3.0517578e-05
-0.015262848,0.0036763868,-0.73361844,0.17468262,-0.25602722,9.793823,-15.226746,4.852295,-36.271667,0.17062476,-0.2562741,9.801816,0.00066035986,0.0010249615,0.00092220306,-6.1035156e-05,0.0004272461,3.0517578e-05
-0.015281695,0.0035765935,-0.73351246,0.18185425,-0.24885559,9.805786,-18.203735,7.449341,-30.258179,0.1721859,-0.25511622,9.801819,0.002667129,0.003722757,0.002790451,-6.1035156e-05,0.00036621094,-0.00015258789
-0.01528295,0.0036009194,-0.7335468,0.17468262,-0.25602722,9.805786,-18.80951,3.8711548,-15.710449,0.17189267,-0.2554742,9.801815,0.0008120388,-0.00024193525,-0.00037193298,-0.00024414062,0.00036621094,-9.1552734e-05
-0.015327161,0.0036236811,-0.7336411,0.15074158,-0.26560974,9.860825,-11.889648,-5.9783936,-11.808777,0.17226109,-0.2563666,9.801785,0.0014177263,-0.0012758374,-0.0015296936,-6.1035156e-05,0.00024414062,3.0517578e-05
-0.01561754,0.0032454636,-0.73355615,0.275177,-0.31106567,9.394226,-5.6030273,-9.503174,-11.198425,0.18144734,-0.25481474,9.80166,-0.0025048554,0.0009995699,-0.00010967255,6.1035156e-05,-0.0040283203,-9.1552734e-05
-0.015055664,0.0037624133,-0.73343366,0.16270447,-0.25125122,9.82254,2.305603,-18.391418,-9.78241,0.16642778,-0.2547977,9.801927,0.006286159,0.00027534366,0.0006723404,-6.1035156e-05,0.008804321,0.00062561035
-0.01517267,0.003686441,-0.73350143,0.16989136,-0.25842285,9.800995,2.5421143,-20.19043,-10.687256,0.16914916,-0.25524688,9.801868,0.00092954934,-0.00093877316,0.0011148453,0.0004272461,-0.0021362305,-0.0002746582
-0.015119089,0.0036792662,-0.73341435,0.17468262,-0.2632141,9.808182,2.9556274,-19.94934,-10.276794,0.16844125,-0.25445148,9.801901,0.0004413575,0.0016086996,-0.0010271072,0.0,0.00048828125,-3.0517578e-05
-0.015159908,0.003677071,-0.7334705,0.17228699,-0.25842285,9.800995,2.420044,-19.099426,-11.366272,0.16907881,-0.2549498,9.801878,0.0024433136,-0.0005324781,-4.673004e-05,-0.00012207031,0.00048828125,-9.1552734e-05
-0.015133097,0.0036811118,-0.7334371,0.17228699,-0.24645996,9.805786,2.911377,-19.14978,-10.113525,0.1686267,-0.25465903,9.801892,0.0009774119,0.0006042421,-0.0005197525,0.0,0.00030517578,-3.0517578e-05
-0.015128397,0.0036934237,-0.7334467,0.16989136,-0.2536316,9.805786,3.3950806,-19.11621,-10.353088,0.16839862,-0.25477114,9.801894,0.0014458001,0.00047817826,0.00044250488,-0.00012207031,0.0005493164,7.6293945e-05
-0.015129124,0.0036990873,-0.73345536,0.16749573,-0.25125122,9.815353,2.8259277,-19.380188,-9.62677,0.1683368,-0.25486013,9.801892,0.00127469,0.0010385215,-0.0012998581,-0.00018310547,0.0004272461,0.0002593994
-0.015110944,0.0036805049,-0.7334043,0.16989136,-0.25602722,9.8033905,3.1036377,-20.233154,-10.040283,0.1683038,-0.25436333,9.801907,0.002276495,0.0014915466,-0.0008764267,-0.00030517578,0.00048828125,-3.0517578e-05
-0.015141268,0.0037130343,-0.73349154,0.17228699,-0.26560974,9.800995,3.137207,-19.425964,-10.404968,0.16833921,-0.25521356,9.801883,0.0019890964,-0.0014761388,0.00084114075,0.0,0.0005493164,0.0001373291
-0.015091388,0.0037025234,-0.73340535,0.1651001,-0.2632141,9.805786,3.2165527,-19.111633,-12.533569,0.16772938,-0.25441918,9.801914,0.00068317354,0.0015722215,0.0010280609,-6.1035156e-05,0.0005493164,0.0001373291
-0.015087143,0.003697435,-0.7333924,0.17228699,-0.26081848,9.808182,3.2852173,-19.476318,-12.005615,0.16773129,-0.2542926,9.801917,0.0023590773,0.0002411604,4.1007996e-05,-0.00012207031,0.0005493164,3.0517578e-05
-0.015108271,0.0036520713,-0.73336244,0.17228699,-0.2536316,9.767502,3.4210205,-18.5318,-10.235596,0.1686287,-0.2539291,9.801911,0.003164187,0.0008023083,-0.0028600693,0.00012207031,0.0004272461,-9.1552734e-05
-0.015097482,0.0036758163,-0.7333785,0.16270447,-0.24885559,9.793823,3.691101,-19.45343,-11.338806,0.16816302,-0.2541229,9.801915,0.0009791106,0.0005245209,0.0012845993,-0.00024414062,0.0004272461,0.00019836426
-0.015111656,0.003672221,-0.7333942,0.16749573,-0.25125122,9.808182,2.6885986,-18.803406,-9.80835,0.16842069,-0.25425613,9.801907,0.0023963451,0.00019007921,0.0003709793,-6.1035156e-05,0.00048828125,-9.1552734e-05
-0.0151017085,0.0036746305,-0.73338306,0.17706299,-0.2536316,9.810577,2.923584,-18.782043,-10.566711,0.1682413,-0.25416103,9.801912,0.001349017,0.00084427,0.0024824142,-0.00018310547,0.0004272461,0.00019836426
-0.015109678,0.0036560579,-0.73336977,0.16270447,-0.25125122,9.911072,3.5491943,-19.100952,-11.035156,0.16859855,-0.25400338,9.80191,0.0021759868,0.0009625256,0.0024461746,-0.00018310547,0.0004272461,-3.0517578e-05
-0.015080572,0.003692138,-0.73337585,0.17468262,-0.24645996,9.808182,2.2247314,-19.993591,-11.010742,0.16770118,-0.254133,9.801922,-3.799796e-06,-0.00016665459,-0.0041275024,-6.1035156e-05,0.0004272461,3.0517578e-05
-0.015048582,0.0037223059,-0.7333699,0.16989136,-0.25602722,9.7986145,3.0548096,-19.578552,-9.980774,0.16683663,-0.25414214,9.801937,0.0013369024,8.2194805e-05,-0.00157547,-0.00024414062,0.0004272461,-3.0517578e-05
-0.015077634,0.0036923874,-0.733372,0.16270447,-0.25602722,9.808182,2.998352,-19.075012,-9.646606,0.16765414,-0.25409842,9.801925,0.0012287647,0.00029414892,0.0008764267,-0.00018310547,-4.5776367e-05,1.5258789e-05
-0.015108735,0.003697444,-0.73342365,0.16749573,-0.25602722,9.812973,3.2684326,-20.06836,-10.917664,0.16805351,-0.25457272,9.801905,0.00061027706,-0.00020769238,-0.001168251,0.0,-0.00016784668,1.5258789e-05
-0.015112993,0.0037200316,-0.73345995,0.1651001,-0.25842285,9.808182,3.8772583,-19.082642,-10.516357,0.16782732,-0.25494537,9.801899,-0.00084887445,0.00017556548,0.000828743,-0.00024414062,-4.5776367e-05,-3.0517578e-05
-0.015113299,0.003719491,-0.7334597,0.1651001,-0.25602722,9.800995,3.4072876,-18.823242,-10.444641,0.1678388,-0.2549417,9.801898,-0.0006401688,0.00042924285,0.0010385513,-0.00018310547,-0.00010681152,-0.00015258789
-0.015144064,0.0036423614,-0.73340124,0.16749573,-0.24885559,9.796219,2.6931763,-20.326233,-10.871887,0.16928753,-0.2542567,9.801891,0.0022408515,0.002121687,-0.001373291,-0.00018310547,-0.00016784668,-3.0517578e-05
-0.01517594,0.0036716345,-0.7334864,0.16989136,-0.2536316,9.805786,3.7002563,-19.610596,-9.861755,0.16938788,-0.25508118,9.801868,-0.00048467517,-0.00090560317,-0.001709938,-0.00018310547,-0.00016784668,1.5258789e-05
-0.015171828,0.0036625678,-0.73346835,0.1651001,-0.25602722,9.8033905,2.4154663,-19.398499,-10.520935,0.16944279,-0.2549005,9.801872,0.00017507374,0.0008247793,0.0003080368,-0.00012207031,-4.5776367e-05,1.5258789e-05
-0.015181558,0.0036658822,-0.73348683,0.1603241,-0.25842285,9.805786,2.772522,-18.725586,-9.719849,0.16954555,-0.25507316,9.801866,5.684793e-05,0.0005477071,0.0018014908,-0.00012207031,-0.00010681152,-0.00010681152
-0.015194862,0.0036684126,-0.7335095,0.16749573,-0.25602722,9.7986145,2.5680542,-19.610596,-10.116577,0.16971172,-0.25528112,9.801857,0.00013530254,3.772974e-05,-6.580353e-05,-0.00024414062,-4.5776367e-05,-0.00021362305
-0.015166706,0.0036594113,-0.73345673,0.1651001,-0.25842285,9.796219,2.5772095,-19.541931,-9.423828,0.16940683,-0.25478977,9.801876,-0.00052447617,0.0009857714,0.0004339218,-0.00012207031,7.6293945e-05,7.6293945e-05
-0.015139491,0.0036669355,-0.7334274,0.1603241,-0.25842285,9.805786,4.2877197,-19.065857,-9.248352,0.168904,-0.2545427,9.80189,-0.0014495999,0.0016905665,-0.0006542206,-0.00012207031,-4.5776367e-05,1.5258789e-05
-0.015138556,0.003655525,-0.73341084,0.17228699,-0.2536316,9.8033905,3.0593872,-19.58313,-9.376526,0.16903645,-0.25437027,9.801893,9.056926e-05,0.00032138824,0.0006837845,-0.00012207031,-0.00010681152,-3.0517578e-05
-0.01512039,0.0036467186,-0.7333728,0.17228699,-0.24645996,9.810577,2.6550293,-19.459534,-10.241699,0.16887827,-0.25401103,9.801906,-0.0007188916,0.0009329617,0.0007753372,-6.1035156e-05,-0.00010681152,-3.0517578e-05
-0.015163253,0.0036121497,-0.73338866,0.17468262,-0.25602722,9.812973,2.4154663,-19.551086,-9.494019,0.16996159,-0.25408098,9.801885,0.0020157248,0.00053209066,0.0013275146,0.0,1.5258789e-05,-0.0002746582
-0.015164672,0.00361989,-0.733401,0.17468262,-0.25125122,9.805786,2.0858765,-19.64264,-10.179138,0.16988346,-0.25420812,9.801883,0.00041173398,-0.000754267,0.00039958954,-0.00018310547,1.5258789e-05,-4.5776367e-05
-0.015187989,0.0036438128,-0.7334667,0.17706299,-0.24645996,9.812973,4.208374,-18.99414,-9.680176,0.16992465,-0.25484642,9.801866,-0.00035201013,-0.0017861128,0.000579834,0.00018310547,-4.5776367e-05,-0.0002746582
-0.015214711,0.0036164497,-0.73346883,0.16989136,-0.25125122,9.800995,2.9754639,-19.664001,-9.313965,0.17067459,-0.25480828,9.801853,0.0010568798,0.0010329187,-0.00087451935,-0.00012207031,-0.00010681152,-0.00021362305
-0.015202569,0.0036328298,-0.7334731,0.1603241,-0.25125122,9.7986145,3.062439,-19.586182,-8.924866,0.1702832,-0.25488105,9.801858,-0.0006880015,0.00061014295,-0.0017061234,-0.00018310547,-0.00010681152,-0.00015258789
-0.015164022,0.0036554234,-0.73344755,0.17228699,-0.26081848,9.808182,1.940918,-19.363403,-9.738159,0.1694179,-0.25469893,9.801878,-0.0019568056,0.0008752644,-0.0019254684,-0.00012207031,7.6293945e-05,0.00019836426
-0.015198428,0.003642572,-0.73348016,0.1651001,-0.2536316,9.800995,4.6661377,-19.624329,-9.375,0.17009643,-0.2549643,9.80186,0.00096549094,0.00042369962,8.583069e-06,-0.00018310547,-4.5776367e-05,-0.00015258789
-0.015214376,0.0036627399,-0.7335301,0.17228699,-0.24885559,9.808182,2.3422241,-19.337463,-9.82666,0.17007586,-0.2554543,9.8018465,-0.00046499074,-0.00028944016,0.000166893,-0.00024414062,-0.00016784668,0.0001373291
-0.015230948,0.0036703995,-0.7335643,0.16989136,-0.24885559,9.7986145,3.378296,-19.482422,-10.350037,0.17022511,-0.25577667,9.801836,-0.00036980212,-0.0001963675,-3.33786e-05,-6.1035156e-05,-4.5776367e-05,-0.0002746582
-0.015187,0.003648099,-0.733471,0.1603241,-0.25842285,9.743576,3.8604736,-19.372559,-11.027527,0.16985491,-0.25489384,9.801866,-0.00095179677,0.0020198524,-0.0009756088,-0.00012207031,-0.00016784668,-0.00015258789
-0.015155048,0.0036423397,-0.7334171,0.16749573,-0.25125122,9.8033905,2.2277832,-20.069885,-10.272217,0.169483,-0.25411385,9.801892,-0.00033719838,0.0009978712,0.001534462,-6.1035156e-05,-4.5776367e-05,-0.00022888184
-0.015179844,0.0036425767,-0.7334533,0.17706299,-0.24645996,9.805786,2.8411865,-18.859863,-10.653687,0.1698189,-0.2547235,9.80187,0.00027750432,-0.001489222,0.0011863708,0.0,-0.00010681152,-0.00010681152
-0.015154043,0.003644133,-0.73341805,0.16749573,-0.25602722,9.808182,3.0654907,-19.438171,-9.423828,0.16941378,-0.25441095,9.801886,-0.00052787364,0.0008304119,0.0006284714,6.1035156e-05,-0.00010681152,-4.5776367e-05
-0.015149388,0.0036346402,-0.7333986,0.17468262,-0.24885559,9.805786,2.987671,-19.216919,-10.35614,0.16946608,-0.25421724,9.801889,-0.00033132732,0.0001565516,-0.00053691864,6.1035156e-05,1.5258789e-05,-0.0002746582
-0.015169371,0.003612106,-0.7333974,0.17468262,-0.24645996,9.8033905,3.4088135,-20.497131,-10.934448,0.17005347,-0.25415966,9.801881,0.000988841,0.00081560016,-3.528595e-05,-0.00012207031,-4.5776367e-05,-9.1552734e-05
-0.015152453,0.003630011,-0.7333969,0.16749573,-0.25602722,9.805786,2.0950317,-19.500732,-9.698486,0.16957122,-0.25419194,9.801888,-0.0006826967,0.0006226003,0.00030612946,-0.00024414062,-4.5776367e-05,-0.00010681152
-0.015152757,0.0036367367,-0.7334063,0.17228699,-0.25125122,9.808182,2.748108,-19.386292,-9.324646,0.16948947,-0.25429037,9.8018875,-0.00011712313,1.0609627e-05,0.00052165985,-6.1035156e-05,7.6293945e-05,-0.00021362305
-0.015157223,0.003609413,-0.73337626,0.17468262,-0.2536316,9.808182,3.1295776,-17.974854,-9.4314575,0.1699067,-0.2539644,9.801889,0.00018121302,0.00087693334,0.00019073486,-0.00012207031,-4.5776367e-05,-0.00015258789
-0.015165566,0.0035767779,-0.73334473,0.17228699,-0.25602722,9.800995,2.9815674,-19.285583,-10.746765,0.17044997,-0.25361407,9.801888,0.00084629655,0.00097230077,-0.0020971298,-6.1035156e-05,-0.00010681152,-0.00015258789
-0.01522523,0.0036069597,-0.73347133,0.16270447,-0.25125122,9.805786,3.0792236,-18.91632,-10.676575,0.17095336,-0.25481126,9.801848,0.0003489703,-0.0016694367,-0.0007581711,-6.1035156e-05,-4.5776367e-05,-0.00021362305
-0.015202834,0.0036368598,-0.73347884,0.1603241,-0.25125122,9.810577,2.885437,-19.58313,-10.879517,0.17023548,-0.25494114,9.801858,-0.0018165112,-6.780028e-05,0.0017366409,-0.00012207031,-0.00010681152,-0.00010681152
-0.015220716,0.0036328307,-0.73349935,0.1651001,-0.2536316,9.800995,2.31781,-19.847107,-10.005188,0.17055413,-0.25511622,9.801847,1.02669e-05,-0.00012785196,0.00068569183,-0.00012207031,-0.00022888184,0.0002593994
-0.015226963,0.0036298388,-0.7335044,0.16989136,-0.25842285,9.805786,2.798462,-19.810486,-10.620117,0.17068578,-0.25515515,9.801845,-0.00083971024,0.00038579106,0.00015163422,-6.1035156e-05,-0.000289917,7.6293945e-05
-0.015218837,0.0036324533,-0.7334961,0.16989136,-0.25842285,9.805786,3.1600952,-18.991089,-9.790039,0.17053092,-0.25508657,9.801848,-0.0011695474,0.00033473969,0.0013799667,-0.00012207031,-0.00016784668,-0.00015258789
-0.015245565,0.0036219745,-0.7335208,0.1651001,-0.25602722,9.805786,3.086853,-20.594788,-10.414124,0.1710644,-0.25528568,9.801834,0.00067459047,0.00030887127,0.00028705597,-6.1035156e-05,-0.00022888184,0.00019836426
-0.015203986,0.0036373462,-0.73348117,0.17228699,-0.25125122,9.805786,2.9678345,-19.654846,-10.444641,0.17024644,-0.2549629,9.801857,-0.0025532693,0.00091296434,-0.0013990402,-0.00012207031,-0.00016784668,-3.0517578e-05
-0.0151262805,0.0036502036,-0.733386,0.1531372,-0.2679901,9.875183,2.5787354,-19.468689,-9.561157,0.16892147,-0.25413635,9.801901,-0.00024445355,0.0014871359,-0.00253582,0.0,-0.00016784668,1.5258789e-05
-0.015618964,0.0032157213,-0.7335185,0.20100403,-0.24406433,9.769897,2.6657104,-19.163513,-10.484314,0.18185005,-0.25441593,9.801662,-0.0074977875,0.0009049475,0.0066633224,6.1035156e-05,-0.005722046,-0.0004119873
-0.015360842,0.0034961607,-0.73351955,0.16989136,-0.2536316,9.793823,1.5670776,-19.114685,-7.25708,0.17439926,-0.25501165,9.801783,0.006485313,0.0018652976,-0.008429527,-0.0010986328,-0.00047302246,0.00015258789
-0.015311573,0.0035470352,-0.7335162,0.16989136,-0.2632141,9.808182,-14.709473,3.791809,-36.05652,0.17301111,-0.25508806,9.8018055,-0.0014630705,3.901124e-05,0.0015563965,-0.00012207031,0.004119873,0.00033569336
-0.015319826,0.0035777807,-0.7335692,0.17228699,-0.25602722,9.7986145,-14.944458,3.9215088,-36.094666,0.17274006,-0.2556268,9.801796,-0.0007182956,-0.00036922097,-7.43866e-05,-6.1035156e-05,7.6293945e-05,-0.00010681152
-0.015299662,0.00359971,-0.7335693,0.17228699,-0.25602722,9.805786,-14.7994995,3.3370972,-34.86023,0.17215773,-0.25567368,9.801805,-0.000605613,-9.8377466e-05,-0.0003681183,-0.00018310547,0.00015258789,-0.00015258789
-0.015287731,0.0035845002,-0.7335318,0.16989136,-0.2632141,9.810577,-14.942932,3.919983,-35.943604,0.17217463,-0.2553055,9.801815,-0.00014847517,0.00073733926,-9.1552734e-05,0.0,-4.5776367e-05,1.5258789e-05
-0.0152856065,0.003612288,-0.7335658,0.17468262,-0.26081848,9.8033905,-15.708923,2.7633667,-34.71222,0.17178656,-0.25566834,9.801812,-0.0009624809,0.00015667081,0.0013818741,-0.00024414062,-4.5776367e-05,-0.00022888184
-0.015288738,0.0035872164,-0.73353684,0.17228699,-0.2536316,9.796219,-15.92865,4.9316406,-33.963013,0.17215481,-0.25535667,9.801813,9.4130635e-05,0.0008201897,0.0010900497,0.0,-4.5776367e-05,-9.1552734e-05
-0.015306868,0.0035690751,-0.73353887,0.16989136,-0.26081848,9.8033905,-16.212463,4.1168213,-34.643555,0.1726582,-0.2553367,9.8018055,0.0010353029,0.00029665232,-0.0011835098,-0.00012207031,-0.00010681152,-0.00015258789
-0.015324294,0.0035276453,-0.73350877,0.17468262,-0.25125122,9.812973,-15.913391,5.1467896,-33.31604,0.17344972,-0.25498047,9.8018,0.0014238507,0.000916332,0.0011262894,0.0,-4.5776367e-05,0.00033569336
-0.015318555,0.0035175947,-0.733487,0.17468262,-0.24645996,9.836899,-15.625,4.362488,-32.955933,0.17349295,-0.254765,9.801805,-0.0002835244,-1.4990568e-05,0.0001077652,6.1035156e-05,1.5258789e-05,0.0001373291
-0.015316395,0.0035545486,-0.73353326,0.17468262,-0.25602722,9.8033905,-14.677429,4.2175293,-34.384155,0.17298675,-0.25525603,9.801801,-0.0012051314,-0.00049456954,-0.0007162094,0.0,-0.00016784668,-0.00021362305
-0.015302375,0.0035899763,-0.73356026,0.17468262,-0.26560974,9.812973,-15.881348,4.055786,-33.311462,0.17232306,-0.25557208,9.801805,-0.001749441,-0.00064751506,0.00031852722,-6.1035156e-05,-0.00010681152,1.5258789e-05
-0.015312122,0.0036175877,-0.7336112,0.16989136,-0.26081848,9.805786,-14.517212,4.0771484,-33.740234,0.1721146,-0.25608623,9.801795,-0.0005899817,-0.0008350313,0.0011720657,-6.1035156e-05,-4.5776367e-05,-0.00015258789
-0.015292124,0.0036170853,-0.7335816,0.17228699,-0.25842285,9.796219,-15.412903,3.8757324,-34.121704,0.17182235,-0.25582013,9.801806,-0.00053596497,8.028746e-05,-0.0006570816,6.1035156e-05,1.5258789e-05,-3.0517578e-05
-0.015313547,0.0035892902,-0.7335755,0.17945862,-0.25125122,9.812973,-16.497803,3.0792236,-34.69391,0.1724987,-0.25570714,9.801798,0.00093868375,0.0009290874,4.863739e-05,-0.00024414062,-0.00010681152,-3.0517578e-05
-0.015323944,0.0035765853,-0.7335736,0.17468262,-0.25125122,9.793823,-16.575623,4.812622,-33.581543,0.17281689,-0.25566334,9.801793,-7.44611e-05,0.000608176,-0.0025129318,-0.00012207031,-0.00010681152,-0.0002746582
-0.015338903,0.003585893,-0.73360765,0.16749573,-0.25842285,9.805786,-16.317749,3.3737183,-33.657837,0.17292096,-0.25598782,9.801784,-0.00019197166,6.5267086e-06,0.0015268326,-0.00012207031,-0.00016784668,-0.00010681152
-0.015376206,0.0035353585,-0.7335942,0.16749573,-0.25842285,9.808182,-16.20636,4.1122437,-33.88977,0.174126,-0.25576103,9.801767,0.001726225,0.00071007013,-0.0012140274,-6.1035156e-05,-0.00016784668,-0.00015258789
-0.015410865,0.0035433548,-0.733655,0.17706299,-0.26081848,9.796219,-16.952515,3.4729004,-33.08258,0.17454116,-0.2563221,9.801746,0.0003594309,-0.0006504357,-0.00111866,-0.00012207031,-0.00010681152,-0.0002746582
-0.01540626,0.003567903,-0.7336811,0.17228699,-0.2536316,9.800995,-15.92865,3.263855,-34.906006,0.17415766,-0.25660723,9.801744,-0.001170367,0.00011655688,0.0006971359,-0.00012207031,-0.00010681152,-0.00021362305
-0.015393232,0.0035539865,-0.73364365,0.16989136,-0.26560974,9.793823,-15.367126,2.9968262,-33.47168,0.17414147,-0.2562431,9.801755,0.0002747178,0.00047758222,0.000623703,6.1035156e-05,0.0002746582,7.6293945e-05
-0.015380317,0.0035584278,-0.7336309,0.16989136,-0.2632141,9.808182,-15.963745,4.1275024,-33.972168,0.17389163,-0.2561383,9.801763,-0.00044734776,0.00015953183,0.0012083054,-6.1035156e-05,-0.000289917,-0.00021362305
-0.015370512,0.0035630004,-0.73362285,0.17468262,-0.25602722,9.8033905,-15.324402,3.9459229,-33.43048,0.17368656,-0.25607556,9.801767,-0.0012104362,0.0005799532,0.00081443787,0.0,-4.5776367e-05,-4.5776367e-05
-0.015380528,0.003532922,-0.73359716,0.17468262,-0.26081848,9.805786,-14.457703,3.5705566,-33.921814,0.1742218,-0.25578278,9.801765,0.001126036,6.070733e-05,0.0013418198,0.00012207031,-0.00010681152,-0.0002746582
-0.015402428,0.003567605,-0.7336752,0.17468262,-0.25842285,9.808182,-14.381409,3.65448,-34.587097,0.17410426,-0.25655347,9.801748,-0.0009061396,-0.0015513003,-0.00022029877,0.0,-0.00010681152,-3.0517578e-05
-0.015383767,0.0035767662,-0.7336604,0.17706299,-0.2536316,9.800995,-17.422485,3.8848877,-33.81195,0.17370807,-0.25644055,9.801758,-0.0014638603,0.00047650933,-0.00078201294,-0.00018310547,-0.00016784668,-0.00033569336
-0.015347785,0.0036047364,-0.7336457,0.16989136,-0.26081848,9.8033905,-15.852356,3.1951904,-34.92279,0.17281201,-0.25636753,9.801775,-0.0024823844,0.0006207526,-0.000828743,-0.00018310547,-0.00016784668,-0.0002746582
-0.015364351,0.0035961834,-0.7336582,0.16989136,-0.26081848,9.7986145,-14.926147,3.9047241,-33.83484,0.1731691,-0.2564619,9.801766,0.00051523745,0.00048944354,0.00024795532,-0.00012207031,1.5258789e-05,-0.00015258789
-0.015381433,0.0036151065,-0.7337082,0.17228699,-0.25842285,9.805786,-15.802002,4.2129517,-34.03778,0.17318173,-0.25694892,9.801754,-0.00044481456,-0.00047832727,-0.001578331,-0.00012207031,-0.00016784668,-0.00033569336
-0.015402127,0.0036343217,-0.73376375,0.16989136,-0.25602722,9.805786,-15.644836,4.3060303,-35.308838,0.17324463,-0.2574868,9.801739,-0.0005168915,-0.0006439388,0.0010309219,-0.00018310547,-4.5776367e-05,7.6293945e-05
-0.015370013,0.0036113265,-0.7336866,0.16749573,-0.2536316,9.796219,-15.487671,4.1656494,-34.739685,0.17305958,-0.25674796,9.801762,-8.486211e-05,0.0019545853,-0.00026607513,0.0,-0.00010681152,-9.1552734e-05
-0.015380832,0.0036166417,-0.73370934,0.17945862,-0.24885559,9.7986145,-15.766907,3.1188965,-33.8089,0.17315306,-0.2569627,9.801753,-0.0006735623,-0.00044488907,0.0007839203,-6.1035156e-05,-0.00010681152,-3.0517578e-05
-0.013255804,0.0037994375,-0.7319688,0.45942688,1.7467651,10.069,-14.247131,2.9312134,-34.062195,0.13954203,-0.23165081,9.80292,0.13633674,0.3263657,0.31364346,0.0012817383,0.013580322,0.00064086914
0.020256678,-0.00619065,-0.7071581,-1.5122681,3.723236,9.442078,-12.214661,-3.401184,-36.868286,-0.19514263,0.36664975,9.797851,-1.3669722,4.615117,1.2672882,0.9367676,0.301239,0.14944458
0.08792608,-0.0681559,-0.65867126,0.43788147,3.8692017,11.638687,-14.138794,2.5344849,-38.372803,-0.14112563,2.163808,9.563911,0.90719277,-2.2763662,-0.7587023,0.23213196,-0.02079773,1.6231537
0.05939707,-0.0878162,-0.47888675,0.72024536,0.7034912,7.554138,-5.7113647,14.825439,-37.878418,0.8417785,-0.009148528,9.770452,2.539505,0.42272556,1.1202698,-0.015197754,0.2986145,3.6462402
-0.012797804,-0.11154825,-0.12676871,0.7920227,1.9956207,9.176468,0.6134033,10.968018,-40.65857,2.1880505,0.029966408,9.559388,-2.0987117,2.0526886,-1.1625414,0.5345154,-0.26631165,3.201828
-0.0047645513,-0.080324255,0.124544054,1.0265198,-0.4905243,11.212769,5.3085327,6.4102173,-42.460632,1.5463704,-0.28862524,9.67966,-0.8315617,1.3021672,-0.42913055,-0.025344849,0.080963135,1.3284149
-0.049100414,-0.056041256,0.16914774,1.7252197,0.1603241,9.418152,6.550598,9.120178,-42.86499,0.91732305,-1.1323481,9.697767,-0.3933286,1.1640892,0.5679884,-0.035842896,0.062149048,0.47361755
-0.014882097,-0.0747089,0.19522037,2.2612152,0.25125122,9.121445,4.873657,7.395935,-41.940308,1.3757713,-0.5714602,9.692836,0.1165576,0.94731545,0.20781326,0.30439758,-0.31878662,0.14888
0.01582506,-0.120287456,0.20985611,2.6153564,0.55513,9.506683,0.92163086,5.6900024,-43.710327,2.354007,-0.19397496,9.517952,0.5691414,0.792552,-0.19048595,0.059020996,-0.43833923,-0.20809937
0.026067564,-0.106759146,0.19903347,2.428711,0.22732544,9.243469,-0.44708252,3.8513184,-43.876648,2.140823,0.08112545,9.569779,0.11804581,0.341961,0.05827427,0.09786987,0.11340332,0.20245361
0.019424286,-0.10705055,0.20538343,2.3042908,0.37327576,9.489929,0.6515503,5.01709,-43.684387,2.1203632,-0.060684584,9.574486,0.17953873,0.35675436,-0.122997284,-0.08648682,-0.0010070801,-0.05203247
0.02753377,-0.10287976,0.2045821,1.8281097,-0.28234863,9.114258,2.5680542,4.5532227,-42.877197,2.0738885,0.112659946,9.584189,-0.251817,0.23127744,0.37287998,0.07350159,0.67889404,-0.02973938
0.007632648,-0.04508964,0.21779566,2.4335022,-6.731003,10.301102,6.2408447,3.9993286,-43.29071,0.8947834,-0.046661768,9.765632,-0.32730436,-1.1685234,-0.4573164,-0.009338379,-0.21084595,0.1421051
-0.030051818,-0.038776085,0.28444207,0.18185425,-0.9643097,9.066406,7.9223633,4.046631,-44.483948,0.56050235,-0.7806541,9.759447,-1.7754108,-3.1059623,0.06689644,-0.004333496,0.11242676,1.233841
-0.058882102,-0.04166689,0.5126093,0.933197,-3.4959106,12.071793,7.8445435,3.9657593,-44.04297,0.10720872,-1.4070106,9.704597,1.7016933,-2.3860989,1.88657,-0.66773987,-0.18885803,3.6835022
0.013121583,-0.0649289,0.75469065,6.3888397,0.41156006,8.532806,-0.67749023,-10.066223,-46.551514,1.025455,-0.79309136,9.720588,1.8886664,0.50111103,-1.0561657,1.7007294,-0.8488312,3.1530762
0.10208462,0.0054283114,0.9262494,7.0707855,-1.0217285,7.6211395,-11.270142,-19.33136,-42.49115,1.8159273,0.8249846,9.601677,3.628488,-1.4916658,-1.9547796,0.58839417,-0.33558655,2.247345
0.19768871,0.0076443697,0.93722624,3.6059875,0.36131287,9.052048,-19.898987,-22.038269,-40.04364,3.5908775,1.2539797,9.0390005,1.598398,-1.2999032,-0.39052773,0.19940186,-0.41755676,0.44607544
0.1725779,-0.0018528255,0.9463635,3.3954163,0.279953,9.365509,-18.208313,-20.173645,-40.263367,3.2131984,0.8901647,9.222437,0.5401869,-0.78063095,-0.23325634,-0.213974,0.29403687,0.07221985
0.16016288,-0.016739367,0.9472882,3.373886,-0.25125122,9.449265,-16.82129,-19.335938,-42.414856,3.0666714,0.55904543,9.298031,0.33253837,-0.7516204,0.2942524,-0.1585083,-0.010787964,-0.07144165
0.16732615,-0.026407558,0.9447081,3.8237305,0.16749573,9.286545,-18.21289,-18.197632,-41.59851,3.2457817,0.43213093,9.243839,0.49666715,-0.42576373,0.11416626,0.009536743,-0.13937378,-0.007003784
0.17584102,-0.027620373,0.9425086,3.7567291,0.14596558,9.054443,-19.558716,-19.750977,-40.65094,3.4037633,0.46485937,9.185243,0.14645529,-0.26089832,-0.13024521,0.018508911,-0.022079468,-0.05307007
0.17968601,-0.029358909,0.9405495,3.5700989,0.122039795,9.047256,-17.376709,-19.456482,-40.907288,3.4798281,0.4689343,9.156489,0.26365542,-0.35013252,0.021140099,-0.023330688,-0.03289795,-0.012924194
0.18278493,-0.03174822,0.9388477,3.7447662,-0.011962891,9.355942,-19.02008,-19.993591,-42.30957,3.5464134,0.4553341,9.131595,0.23387194,-0.27095982,-0.11739159,0.016860962,-0.046157837,-0.029174805
0.18555738,-0.013165195,0.9666533,3.9170532,0.49291992,8.427521,-17.893982,-20.06836,-41.992188,3.5634768,0.39093623,9.127934,0.22733164,-0.3123964,0.10648537,-0.012023926,0.015045166,0.030319214
0.19068652,0.0009899382,0.97246283,3.871582,0.105285645,9.119049,-17.811584,-19.761658,-43.141174,3.6344018,0.5200082,9.093465,0.17517948,-0.32468122,0.044326782,0.023468018,0.0031433105,0.011383057
0.19185367,-0.008579526,0.97132206,3.677765,0.15792847,9.305695,-19.844055,-20.109558,-43.806458,3.6785612,0.36405584,9.083283,0.17090297,-0.1886265,0.006545067,0.005630493,-0.021469116,0.0016021729
0.19498253,-0.013655643,0.96967524,3.723236,0.13160706,9.102295,-18.650818,-20.317078,-44.503784,3.7475765,0.3013649,9.057331,0.09194493,-0.084595114,-0.023724556,0.017715454,-0.018112183,-0.0032806396
0.19277018,-0.013544768,0.9713238,3.4002075,0.21774292,8.9730835,-18.052673,-21.369934,-44.441223,3.7092364,0.2656639,9.074215,-0.066907644,-0.1303842,2.9563904e-05,-0.00982666,0.049804688,0.009674072
0.17790309,-0.011667942,0.975644,2.9575348,-0.3014984,9.135803,-15.667725,-18.522644,-43.5791,3.4335294,0.22265892,9.183229,-0.28746223,-0.2629751,-0.03134632,0.026031494,0.29013062,0.16262817
0.14283192,-0.009864175,0.983509,2.411972,-0.37327576,9.332016,-14.21051,-18.203735,-44.102478,2.776587,0.119296595,9.404612,0.009942532,-0.06379438,0.3703928,-0.05618286,0.25354004,0.1395874
0.13540056,-0.008852847,0.985146,3.144165,0.15074158,8.609375,-15.498352,-18.444824,-42.816162,2.634478,0.10842988,9.445536,0.18519926,0.14008386,-0.8018217,0.1756897,0.028671265,0.13018799
0.13608116,-0.0036335518,0.9863586,2.8809662,0.13400269,9.540192,-17.58728,-18.055725,-44.766235,2.6391873,0.17672166,9.443191,0.070613384,-0.07683349,0.18048191,-0.1457367,-0.0597229,-0.0652771
0.16159971,-0.009717139,0.9800436,3.5413818,-0.009567261,9.963715,-20.600891,-20.96405,-43.423462,3.1282356,0.1788219,9.292607,0.6089716,-0.048655525,0.45638275,0.12181091,-0.4551239,-0.29063416
0.19034557,0.004225692,0.9712914,3.6921234,1.2801666,8.537598,-20.196533,-22.83783,-42.764282,3.7893016,1.0256095,8.986641,-0.05871916,0.08557427,-0.13967037,0.13879395,-0.03564453,-0.0708313
0.20541131,0.034192108,0.96823114,3.7519531,1.3088684,9.166901,-20.707703,-23.832703,-41.056824,3.8079631,1.2070601,8.956161,0.014537573,-0.10667765,-0.095098495,-0.016845703,0.0042419434,0.07899475
0.20592903,0.028586963,0.96905476,3.4408722,-1.0839539,11.174484,-22.54181,-23.36731,-41.64276,3.839348,1.0808165,8.958884,-0.13011909,0.20880473,1.0546083,-0.04458618,-0.03491211,-0.016479492
0.18838657,0.015250298,0.97185355,3.247055,0.73220825,7.944168,-22.703552,-23.37799,-41.48712,3.5488195,0.81032413,9.106023,-0.2344408,-0.13486868,-1.4780617,0.10758972,0.18023682,0.10014343
0.18578637,0.020364704,0.97542715,3.632309,0.22492981,9.485153,-20.162964,-21.954346,-43.492126,3.5077453,0.814716,9.121532,0.11749101,-0.79564726,0.63227844,-0.32191467,0.09194946,0.1986084
0.17934246,0.00393715,0.97802186,4.5918274,0.5647125,9.253052,-18.136597,-21.44928,-44.529724,3.431983,0.44933897,9.175509,0.57011914,0.0828436,0.14097023,0.10935974,0.030380249,0.19683838
0.17387103,0.015461418,0.9810134,2.8953094,0.75613403,8.908478,-19.569397,-23.08197,-43.66913,3.3198085,0.58569795,9.20903,0.02231741,0.07097566,0.08197117,0.21832275,0.16508484,0.062026978
0.15657562,0.03566181,0.9843175,-1.5936127,3.9242249,7.7240295,-16.348267,-23.091125,-43.199158,2.9717333,0.91270745,9.300869,-0.035445213,-0.18424213,0.12839603,0.0061187744,0.2375946,0.22041321
0.12044963,0.036488406,0.99107593,0.6652069,1.3328094,11.471191,-13.983154,-22.270203,-44.03534,2.3099008,0.8130279,9.495984,-1.5370231,1.7869546,1.1703863,0.14613342,0.26869202,0.36201477
-0.11685972,0.009994459,-0.9853158,-0.36610413,-1.8209381,0.8374939,-22.492981,-5.874634,-40.951538,2.234025,-0.47754607,9.536848,-2.4091122,-1.8086743,-0.28400326,-0.65844727,-0.23240662,2.7907104
-0.1392561,0.1322767,-0.8709956,0.9571228,-2.7900238,4.194626,-17.041016,16.688538,-36.58142,1.2057672,-3.494754,9.083127,0.026415348,0.2156372,-0.9432516,-0.94647217,0.4108429,3.3531952
-0.102023214,0.18993516,-0.7122481,-6.6807556,-4.141983,10.286743,-6.70166,19.718933,-37.898254,-1.0632386,-3.989974,8.894944,-2.7383504,0.99597096,-0.7730789,0.3925476,-0.04664612,2.410202
0.012026365,0.22938165,-0.56319565,-0.34695435,-3.316452,6.312271,2.481079,19.80896,-36.593628,-3.703903,-2.3465497,8.771842,0.043050766,-1.4214745,-0.34122372,-0.26004028,0.22329712,2.0771027
-0.0053041894,0.24932751,-0.3975853,-11.265411,-2.3569336,7.125824,11.82251,30.767822,-25.382996,-4.276751,-2.0361094,8.586853,-0.9669781,0.50683546,0.9968748,-1.5864105,0.7513428,0.94363403
-0.15070504,0.40578163,-0.33218113,-5.355133,-11.294128,5.8672028,6.6101074,38.20343,-13.536072,-5.687731,-5.1207876,6.1316915,-0.29038,-1.3064389,0.0815835,-1.9798737,-0.65830994,0.16757202
-0.35221365,0.25720674,-0.36612415,6.1375885,14.469406,12.191437,-25.273132,14.993286,-20.051575,-1.6176916,-7.5256615,6.0760093,1.9111998,3.6158624,-1.5075798,1.3925476,-1.8400269,-4.692688
-0.23828572,-0.11886201,-0.7185801,2.5292206,-2.9934235,10.815552,-30.758667,5.744934,-21.484375,4.856049,-1.3272978,8.415906,0.9075794,0.12988257,-0.008712769,0.9011688,0.42965698,-1.9914856
-0.2714093,-0.03707009,-0.75212556,8.776871,-4.1036835,13.177277,-33.459473,0.05645752,-16.036987,4.4395366,-2.6438537,8.334923,2.5744176,0.077605724,0.34163475,-0.61972046,-0.6505585,-1.3313751
-0.32173234,-0.12227948,-0.8257312,3.6514435,5.2498474,2.2468567,-29.336548,-16.15448,-14.7491455,6.2823167,-0.83957815,7.483181,0.07363272,1.4893339,0.43980217,-0.04647827,0.056106567,-2.3669739
-0.25687486,-0.2450355,-0.90278685,2.2085724,3.7902374,2.1439667,-24.893188,-26.870728,-14.170837,5.7152443,3.115518,7.334843,-0.60541105,-0.7660632,1.3034635,0.06958008,0.07778931,-1.8382721
-0.21002668,-0.34343046,-0.91320217,0.90927124,5.647064,6.4295197,-12.835693,-34.150696,-15.466309,4.1881046,5.890424,6.6282034,-6.3259177,-2.3471594,-0.541646,-0.14372253,-0.43014526,-2.663559
0.16834408,0.24961263,0.9519181,9.547363,4.7162476,10.016357,-12.759399,-29.733276,-20.458984,2.8658383,4.847274,8.028779,4.131287,-0.1721549,4.598606,-1.0229492,0.38664246,0.18902588
0.13387373,0.1971878,0.96761054,-0.5431671,0.5886383,4.2759705,-4.866028,-37.626648,-16.122437,2.218828,3.9607344,8.692513,0.4338963,-1.5177143,-2.9201775,0.7192383,-0.8459015,-1.6782227
0.2296699,0.22831091,0.9051368,6.254837,6.793228,9.59761,-2.9922485,-34.6344,-19.441223,2.8439777,5.2937684,7.7497225,2.30005,-3.9285436,1.1157479,-0.32136536,-1.5348969,-1.0441437
0.26812986,0.13447626,0.8812815,-1.7682953,5.539383,5.7882385,3.8635254,-31.36139,-25.474548,3.6713781,4.244914,8.041894,-3.4624236,3.396648,2.1502552,-1.380188,-0.12574768,-0.7682648
0.22327302,0.11349932,0.85236764,2.5005035,2.6201477,4.7569275,6.6970825,-32.929993,-24.552917,2.7107084,3.9077334,8.57625,-0.5174141,-2.1825464,1.0718307,-0.16950989,0.45487976,-0.34866333
0.22433151,0.15958574,0.8500798,0.7680969,7.520645,5.8217316,7.1411133,-36.125183,-22.198486,2.3349793,4.6361575,8.320114,1.5525777,-2.3531194,0.7320719,0.34991455,0.07022095,0.032333374
0.2167021,0.20229289,0.8525021,5.3886414,4.417145,12.241684,5.001831,-35.16693,-23.051453,1.9151491,5.2122803,8.08299,0.111929774,1.7378931,-0.16624689,0.5682373,-0.16203308,-0.127594
0.2347185,0.1570923,0.8532322,0.062210083,4.857437,8.264816,5.580139,-37.269592,-19.651794,2.5770862,4.647268,8.242083,-0.13569307,-0.003911972,0.78383446,-0.015563965,-0.30393982,0.02456665
0.25080332,0.21206419,0.8287054,-2.067398,3.7567291,5.4340973,11.877441,-36.92932,-19.0094,2.1915588,5.6760554,7.6908946,-2.0049183,-0.7395468,-0.27875662,0.48564148,-0.018173218,-0.5578308
0.1642374,0.27653235,0.8642199,4.1850433,5.0823517,13.182068,6.3293457,-34.199524,-23.587036,0.685505,5.933528,7.7777705,-3.8585348,-1.3590398,1.6861877,-0.80340576,0.6073456,-0.3864746
0.18191282,0.17497963,0.90681666,3.5772705,6.4295197,3.9553375,2.1606445,-36.026,-21.598816,2.0768244,4.316654,8.557084,3.028716,2.137168,-0.86897755,0.029083252,-0.14419556,1.5714722
0.16987154,0.20538117,0.9263949,3.3475647,3.3882294,7.2550354,4.359436,-37.03766,-22.573853,2.0150156,4.6179414,8.413364,2.1414506,-0.99154663,0.2907362,-0.0974884,0.47076416,0.07814026
0.1688006,0.23586254,0.90323293,-1.8137665,6.352951,6.587448,6.819153,-36.528015,-19.927979,1.5271513,5.2255793,8.156686,-3.128922,-0.43121672,-0.9990568,0.2928009,-0.14878845,-0.6579437
0.14706993,0.2558825,0.90155363,1.0480499,5.6159515,10.638489,8.274841,-36.434937,-19.517517,1.0127445,5.437231,8.098226,-0.064275146,0.44888973,1.8279614,-0.5869751,0.6761322,0.6486969
0.07508383,0.19260342,0.9444417,-0.55513,4.491333,9.056839,7.371521,-34.353638,-23.132324,0.42553198,3.9440184,8.968502,0.32369944,0.45502305,0.8964453,-0.3296814,-0.039855957,0.08798218
0.07350943,0.1973193,0.94528365,-3.3403778,4.2257233,6.6807556,7.196045,-34.962463,-21.435547,0.3984531,4.017612,8.937025,-0.86653256,0.17647624,1.603879,0.38723755,-0.11708069,-0.062408447
0.13712762,0.287921,0.91297615,1.4715881,3.500702,3.4049835,4.2541504,-38.923645,-15.325928,1.0182695,5.840144,7.8119283,0.4905131,-2.0304847,-1.5364795,1.2513733,-0.66716003,0.3728943
0.20664893,0.35427108,0.8864752,4.0079803,5.391037,17.694931,1.7593384,-41.83197,-9.475708,2.1034834,7.0284195,6.5074615,-0.7292845,-1.4240918,-1.6129804,0.41864014,-9.1552734e-05,0.109176636
0.17082565,0.21271405,0.9431063,4.520035,6.168701,6.604187,-3.4866333,-36.78131,-19.33136,2.3669105,4.571441,8.346858,2.3445811,2.3625593,2.5689154,-1.2206421,0.30662537,1.0038605
0.24777338,0.24400227,0.92785,4.4291077,5.36232,7.5637054,-8.802795,-37.983704,-13.391113,3.8640158,5.0953846,7.434838,1.0685863,-0.13364697,0.3497939,0.46536255,-0.6751709,0.10209656
0.26027113,0.29002118,0.90890217,0.9643097,4.524826,5.6614227,-7.044983,-39.14337,-8.413696,3.7952015,5.9279923,6.8283052,0.44079804,-0.47568226,-0.80106306,0.88119507,0.3715515,-0.30064392
0.18632612,0.34517002,0.90995187,4.7282104,4.7976074,6.9439697,-6.1279297,-40.551758,-6.776428,2.413891,6.6523414,6.788953,-0.56380653,-2.2192788,-0.5481329,0.0143585205,0.64352417,0.17111206
0.18530129,0.33493963,0.9216351,3.672989,6.649658,8.736191,-9.172058,-39.634705,-10.314941,2.9305892,6.286264,6.9328876,1.3247609,0.5893369,0.044466496,-0.23754883,0.5135193,0.58522034
0.14824262,0.2957893,0.9410727,0.74894714,5.716461,8.458633,-6.6375732,-38.606262,-13.0355835,2.329474,5.663382,7.6596375,0.4494691,1.0419269,-0.22340536,-0.4041443,-0.006881714,-0.49465942
0.14428604,0.24366826,0.9483014,0.53359985,4.204193,6.798004,-2.7359009,-36.853027,-17.671204,1.9988229,4.9375615,8.233807,-0.9757879,-0.72051525,0.09885216,-0.65411377,-0.31463623,-0.72184753
0.1565914,0.20107706,0.9478472,1.8592224,2.823532,11.475983,-1.0604858,-34.36737,-23.274231,2.1562698,4.3259377,8.53271,-1.4234397,-0.776598,1.0944471,-0.89271545,-0.16270447,-0.27963257
0.13515827,0.107016705,0.96301013,3.2614136,2.3808594,11.837296,-0.9552002,-29.748535,-25.43335,2.1181471,2.5703166,9.223736,0.33327675,0.03219366,2.1268482,-0.5472107,0.055984497,0.19812012
0.13504155,0.114777185,0.96417874,-4.9818573,1.0552368,7.1976166,1.1169434,-32.551575,-22.312927,2.1094544,2.6932392,9.190597,-1.5633917,-0.19966698,-0.19513988,0.5665283,-0.24224854,-0.580246
0.19293597,0.21116292,0.9379462,4.2831573,5.8121643,9.521042,-3.250122,-33.592224,-19.552612,2.7372549,4.626545,8.202006,-0.97843647,-0.7785535,-0.36779308,0.29566956,-1.2270813,-0.06510925
0.23394679,0.16206864,0.9547132,2.0362854,3.4241333,5.781067,-10.411072,-32.040405,-17.962646,4.1049247,3.4327898,8.218025,0.50568676,0.69977593,0.18901062,0.024505615,0.24577332,0.7110596
0.23412333,0.19533351,0.9520175,4.8502502,2.967102,7.767105,-11.628723,-32.26471,-18.182373,4.270684,3.768262,7.9832225,0.54124165,-1.0123692,-0.487545,0.3798523,0.119018555,0.7500458
-0.23858264,-0.17251404,-0.9546384,3.7040863,3.8548431,8.475372,-12.716675,-30.931091,-20.73822,4.6177907,3.0217233,8.106515,-0.1838584,0.6448734,-0.32639837,-0.1494751,0.20014954,0.29444885
-0.22023998,-0.14472157,-0.9636705,3.4337006,1.8999023,11.129013,-11.92627,-27.522278,-21.058655,4.286076,2.5475955,8.444507,0.33045626,0.010735035,2.2337055,-0.45942688,0.17332458,-0.058135986
-0.19059314,-0.10765026,-0.97545946,5.481964,1.2466583,9.355942,-8.906555,-28.266907,-21.710205,3.696588,1.9707489,8.866893,1.0684288,-0.20072258,0.25179672,0.18766785,0.3097992,-0.060150146
-0.18209755,-0.1503802,-0.9712148,3.8285217,2.2612152,8.298309,-7.888794,-31.437683,-17.489624,3.5605013,2.7534199,8.712744,0.29967284,-0.5170653,-1.1891384,0.54685974,-0.05506897,-0.37780762
0.20350206,0.20855993,0.95624006,3.402588,3.907486,7.901108,-5.7998657,-33.41217,-17.52472,3.7088761,4.0167418,8.141278,0.07983518,-1.3414993,-0.23523521,0.12902832,-0.6864624,-0.5907593
0.26787987,0.17734705,0.9414972,5.6159515,3.0628204,9.401398,-6.7214966,-29.72107,-22.019958,4.5923977,3.8099358,7.78233,-0.28819513,0.42036748,0.84148407,-0.96736145,-0.76239014,-0.40852356
0.30716735,0.08651296,0.93577725,6.4031982,2.5842438,7.4153595,-8.834839,-26.585388,-21.746826,5.3832173,2.4912086,7.8093047,1.2167993,0.20315361,-0.40369558,-0.40829468,-0.27578735,0.066848755
0.3184504,0.07422024,0.93115354,5.699707,2.1463623,7.463211,-6.8496704,-26.57013,-25.299072,5.5809803,2.363253,7.7096105,0.515429,-0.18027353,0.07140732,-0.2459259,-0.068878174,-0.29100037
0.32390627,0.06394633,0.9210504,4.68515,2.376068,7.7407837,-5.6762695,-25.624084,-24.476624,5.592264,2.4673464,7.668714,-0.29996777,-0.22714686,-0.18059826,-0.22271729,-0.29814148,-0.46522522
0.33985627,0.04372805,0.9045043,5.522629,2.5100708,8.451447,-7.243347,-24.55597,-25.325012,5.811412,2.4680707,7.5037656,-0.65581083,0.091044664,0.29580307,-0.31079102,-0.17486572,-0.2151947
0.3352358,0.023942046,0.9034487,6.6257324,2.038681,9.195618,-6.326294,-23.684692,-26.245117,5.8152785,2.1740575,7.591204,-0.32097435,0.42729878,1.1433597,-0.1415863,0.12953186,0.008880615
0.31756964,0.02633685,0.9117025,6.0394897,2.5052795,6.8123627,-3.3706665,-26.04065,-26.01471,5.54466,2.0862303,7.815035,0.95924854,0.07093334,-0.4939103,0.25474548,0.30778503,0.071121216
0.28552026,0.07857509,0.9207187,3.7615204,4.749756,8.212173,0.53100586,-29.153442,-23.63739,4.7643785,2.842052,8.086645,-0.235466,0.9912627,-0.3994913,0.41307068,0.6242676,-0.20657349
0.17767602,0.23785068,0.93593425,0.38523865,4.5056915,6.22612,4.069519,-33.465576,-20.202637,2.3778372,5.026312,8.077901,-0.2181642,-0.5515089,1.3328667,0.50831604,0.44314575,0.6958618
0.16875419,0.28551862,0.93679374,-0.447464,5.1517487,9.032898,2.140808,-35.803223,-17.355347,2.4765723,5.614853,7.64921,-2.6845,-0.5004058,-0.7786131,0.41503906,0.4493103,0.3584137
0.12023117,0.25689566,0.95723855,1.1820526,2.411972,8.717056,0.6561279,-36.631775,-17.234802,1.9703383,4.957414,8.228743,-1.7442247,-0.9409766,1.4304266,-0.57774353,0.46887207,0.7720337
-0.16751534,-0.18388371,-0.96706265,24.22493,6.3218384,24.990646,-7.7041626,-32.43103,-19.662476,3.3720386,3.3103826,8.593084,7.5217557,3.3849964,8.975753,-0.9911194,-0.24743652,1.7574921
0.31540826,0.22206987,0.9213513,-8.224136,-8.090134,6.324234,-12.950134,-34.37805,-10.78186,5.4901285,4.3105683,6.8882422,-1.5154276,-7.6821866,-0.0051651,4.1875763,-3.589508,-4.2326965
0.68343544,0.4347887,0.18385088,-3.1298065,-1.8664093,-46.727036,28.140259,-30.07965,3.5095215,-2.284139,9.031969,-3.0621305,2.746069,-18.334562,2.6118999,4.2559357,-3.9812622,-3.1759033
-0.8980982,-0.3796279,0.117483266,10.537994,-17.359924,13.923828,24.172974,-8.410645,32.77893,-0.66653985,-4.1936116,-8.839667,5.723226,-7.1333528,-20.798677,3.3418427,0.95658875,0.5714264
0.65928334,0.39897102,-0.022108171,7.779068,-18.869797,-36.949966,25.733948,-26.834106,-3.5079956,-5.2699337,8.062955,-1.8403629,14.384917,-17.29308,15.354442,-4.694336,-3.2857208,0.39048767
-0.85763645,-0.4515819,0.2460087,0.5790558,-25.16771,-1.0695953,29.231262,-15.637207,20.677185,-4.1059375,-2.2400453,-8.619389,-2.399264,-8.498697,-31.557665,5.4521484,1.348587,-1.7594757
0.5778808,0.47033566,0.101925045,6.8721924,-21.219559,8.597412,32.32422,-26.377869,3.3370972,-4.9251113,8.410894,-1.0819054,9.327843,-14.243856,21.13161,-8.201416,-2.668808,1.0578003
0.791518,0.5417121,-0.04458454,1.2059784,-5.3407745,-36.196228,25.427246,8.110046,28.237915,-3.660608,3.8636472,-8.236659,7.512955,-12.721048,-26.210108,9.1418,4.7484436,-1.6022949
-0.7029294,-0.707077,0.06901761,-7.915451,2.376068,9.489929,23.135376,-13.749695,25.18158,-0.4773824,-1.42851,-9.690297,-4.8622303,-5.852311,12.083296,-7.620407,-0.15898132,-3.4836578
0.39836508,0.7724046,0.36828014,3.596405,-0.9954071,-9.312866,-1.9073486,-17.732239,14.071655,-2.1256485,8.159565,-5.0073476,-2.471943,-2.1583993,1.0598168,-0.09059143,3.6378174,1.3629303
-0.42531005,-0.53407776,-0.654204,13.670197,4.89093,7.5972137,-18.037415,-18.502808,3.022766,8.865838,4.1383505,0.6643477,12.050718,-0.057087183,8.111621,-3.210907,5.1201477,5.2787323
-0.4610879,-0.1231017,-0.75174123,3.4049835,-0.5623169,8.918045,-20.045471,-20.458984,-5.9768677,7.8971806,-2.3007786,5.3396015,4.2207375,4.0135393,3.5393713,-1.5870209,0.8148651,-0.5107269
-0.46430966,-0.061658032,-0.8297185,7.0085754,3.5868378,3.5102692,-20.292664,-21.838379,-9.117126,7.9231186,-1.761521,5.503783,3.0831695,1.1137588,6.2608747,-1.5435944,-0.015914917,-0.7033386
-0.48122385,-0.0863119,-0.83988637,2.8881378,3.6993103,6.611374,-14.532471,-25.274658,-14.584351,8.326218,-0.8030216,5.118559,-1.2931762,3.2927701,3.1368582,-0.3317566,0.07376099,-1.3781586
-0.4299934,-0.09498906,-0.8901889,6.9511566,1.1868439,15.670593,-13.432312,-23.274231,-18.829346,7.725126,0.67326915,6.003293,-0.2698393,3.0275428,7.217418,-0.58807373,0.44503784,-0.37573242
-0.37533554,-0.024886193,-0.92142457,4.639679,2.794815,5.132599,-13.787842,-27.748108,-18.363953,6.830656,-0.26703823,7.031445,1.8940206,1.8330207,5.1295576,0.021270752,0.09269714,-0.10298157
-0.36048967,-0.13562314,-0.91858,3.969696,3.5389862,7.585251,-9.657288,-30.906677,-17.74292,6.730614,1.8164263,6.8970866,0.09483051,2.2851343,2.3186445,0.4769745,0.1650238,-0.70718384
-0.31098464,-0.18415448,-0.9315146,5.0321045,2.5124664,14.306686,-8.204651,-30.807495,-17.85736,5.8287034,3.1162927,7.2446766,-0.18417048,1.5738251,5.3237557,0.011245728,-0.09513855,-0.7645416
0.3508907,0.18733157,0.9164287,1.8568268,3.9888306,5.93898,-4.194641,-33.177185,-16.54358,6.1451,3.6703448,6.703485,-0.66708803,1.6166208,2.2403622,0.31015015,-0.8672943,-0.70632935
0.3219157,0.23775864,0.91455144,2.4741821,6.2572327,8.925232,-3.2562256,-33.692932,-16.911316,5.5009418,4.6349106,6.665406,-1.4032955,2.46012,2.0686564,-0.15667725,0.5157776,-0.19888306
0.28536886,0.25370842,0.92136216,1.8305054,3.9266205,6.4869385,-1.1291504,-34.487915,-18.519592,4.7950215,4.991776,6.946965,-0.2554977,0.738065,2.0822878,-0.014282227,0.18322754,0.137146
0.2478554,0.24823794,0.93171674,3.6705933,5.1852417,8.403595,-2.2766113,-35.15625,-17.401123,4.0713043,4.9936194,7.393148,-0.29328132,1.0999849,1.9034019,0.20922852,0.17118835,0.17344666
0.2647939,0.25840718,0.9249154,3.1537476,3.9385834,9.286545,-4.2907715,-35.520935,-15.730286,4.360491,5.141663,7.121784,0.41180325,0.98684716,4.793135,-0.4777527,-0.37400818,-0.15293884
0.2689316,0.2135947,0.93129873,2.6990967,4.68515,6.32901,-3.88031,-34.436035,-20.585632,4.40372,4.5417795,7.493322,-0.24755359,1.1458604,0.114271164,-0.01586914,-0.05177307,0.03904724
0.2629398,0.21941583,0.93250775,1.9669037,7.470398,8.331802,-6.0562134,-36.401367,-20.52002,4.3155837,4.6043715,7.5063896,-1.0643163,2.221018,3.5700874,-0.07910156,0.24162292,-0.15324402
0.228676,0.23931247,0.9380255,2.7756805,3.0436707,6.5060883,-3.175354,-36.41815,-22.151184,3.7251363,4.8633876,7.6577544,0.12149525,0.36694932,4.016337,-0.17549133,0.22720337,0.041427612
0.22192074,0.20415857,0.9478679,2.7804565,3.6969147,7.7455597,-4.0252686,-35.368347,-23.564148,3.713098,4.243961,8.023222,-0.6902969,-0.0535779,0.90989256,-0.032485962,-0.06448364,0.085113525
0.22215728,0.2234935,0.94474566,3.7040863,3.0436707,12.49292,-4.1122437,-37.57019,-22.64862,3.7206957,4.53466,7.8589864,0.63144016,0.67843294,3.4886727,0.26567078,-0.21981812,-0.13418579
0.22106387,0.19484732,0.9464688,1.8185425,4.0797577,5.5704956,-4.10614,-36.96747,-24.942017,3.6001372,4.188331,8.103535,-0.41800547,0.6551547,1.1906271,-0.32380676,-0.087753296,-0.22618103
0.2223877,0.1986009,0.94579,1.2107697,5.1421814,9.796219,-3.2440186,-37.26654,-26.245117,3.6237035,4.2457395,8.063055,-1.0817518,1.0687351,1.3292117,-0.0859375,0.03967285,-0.03541565
0.20393294,0.19769366,0.9492725,2.428711,3.247055,9.279373,-4.2266846,-37.620544,-26.657104,3.2736576,4.220488,8.224418,-0.50350666,0.731277,4.804615,-0.2861786,0.01260376,0.0060577393
0.20627575,0.17388205,0.9560529,2.6488495,3.2326965,6.3936157,-5.6747437,-37.261963,-28.48816,3.4764478,3.7249606,8.379103,0.0010831356,0.09969592,-0.11671448,0.07551575,0.07217407,0.3829651
0.20916249,0.18868406,0.9556107,2.9335938,4.5009003,8.659622,-6.3919067,-39.294434,-26.455688,3.6006813,3.8907142,8.250322,-0.3345201,0.035071373,2.0820503,0.3187561,0.050064087,-0.020996094
0.20582277,0.19272432,0.9544712,3.0939178,3.1657104,7.319641,-7.1228027,-37.6709,-26.17035,3.4850495,4.000895,8.247281,0.06647968,0.043785572,2.503286,-0.24726868,0.014144897,-0.14555359
0.19824538,0.16764282,0.96036273,2.9527435,3.6634064,10.523636,-6.1660767,-36.228943,-25.161743,3.4004602,3.5522766,8.484609,-0.81015086,0.6328039,0.13474035,-0.077697754,-0.11555481,0.098846436
0.19147779,0.16955957,0.9622917,2.5579224,2.2994995,14.084152,-7.626343,-36.395264,-25.58899,3.305842,3.5480962,8.523663,-0.4984162,1.7315173,3.3573108,0.24960327,0.16087341,0.035446167
0.17010362,0.16286495,0.9680454,2.050644,3.048462,5.5992126,-7.911682,-33.944702,-24.54834,2.9543827,3.3797834,8.718892,-0.9804082,-0.30152273,1.3854203,-0.096450806,-0.0234375,0.16629028
0.1887671,0.19936351,0.9607064,3.5198364,3.3930206,9.487549,-9.869385,-34.96704,-22.18628,3.3973436,3.907576,8.328222,-0.18368554,-0.26702476,0.6560278,0.49829102,-0.079818726,0.37112427
0.19653703,0.2246216,0.9542712,2.6105652,3.3834534,8.738586,-10.189819,-33.47168,-20.358276,3.6041164,4.2691636,8.059464,-0.13672423,0.02211833,2.6540952,-0.14556885,-0.05732727,-0.06417847
0.18000597,0.18887806,0.96471804,1.9597168,3.728012,8.178665,-8.544922,-31.71997,-25.50354,3.2753932,3.698242,8.471435,-0.538131,0.28081918,-0.162004,-0.3062744,0.18304443,0.055847168
0.17896423,0.17458002,0.966608,1.208374,5.8121643,9.291336,-6.7977905,-32.411194,-24.508667,3.2003083,3.5071511,8.580694,-0.8011315,1.6376755,1.7252874,0.17703247,0.12036133,0.11943054
0.15680225,0.19495118,0.96768653,2.7876434,2.9886322,5.9102783,-7.220459,-32.80182,-25.024414,2.8557303,3.7968419,8.578997,-0.24672914,-0.1984837,2.5001483,-0.12931824,0.2576294,0.19897461
-0.16143712,-0.18404333,-0.96956646,2.8785706,3.2398834,8.133209,-8.51593,-33.262634,-23.405457,3.079471,3.4914918,8.631148,-0.30209875,-0.0831089,-0.5681329,0.28753662,-0.049697876,0.48120117
-0.15935643,-0.21137105,-0.96347183,3.4791565,2.5100708,12.088547,-9.950256,-34.895325,-22.695923,2.9557073,3.282686,8.755464,0.21688175,0.7270019,-0.07143593,0.2247467,-0.041152954,0.05291748
-0.14709584,-0.15586743,-0.97671145,2.0147552,4.54158,9.908676,-7.774353,-32.318115,-26.261902,2.8488512,2.95662,8.905775,-0.84810877,1.4021311,0.33149052,-0.12710571,-0.05899048,-0.14248657
0.1550079,0.17083177,0.9729024,2.7445679,1.9932251,8.568695,-8.09021,-32.19452,-26.223755,2.904869,3.3078415,8.763008,-0.9489119,-0.2547822,3.646618,-0.18984985,-0.08049011,-0.1687622
-0.14381473,-0.15751608,-0.9765774,2.7014923,2.864212,7.451248,-8.683777,-30.838013,-27.433777,2.8421378,2.9371374,8.914363,0.0100541115,-0.0783999,-1.0148354,0.048202515,0.32104492,0.6345825
-0.15419842,-0.1674223,-0.97164416,4.833496,3.6059875,9.169296,-8.401489,-30.859375,-22.164917,3.148848,2.9969335,8.790536,1.1317666,-0.22002602,1.6632519,0.6251068,-0.32531738,0.07093811
-0.17767613,-0.21168466,-0.96022993,1.1294098,3.385849,9.233902,-5.7281494,-30.465698,-21.891785,3.5112166,3.8482308,8.308602,-0.5332167,0.030592442,0.3861475,0.23526001,-0.37242126,-0.44596863
0.18334235,0.19546363,0.96341807,2.6321106,4.8598175,8.008774,-3.6026,-31.716919,-21.099854,3.4556668,3.7016373,8.398015,-1.2127373,0.68517876,-0.009328842,-0.24568176,-0.12294006,-0.21298218
-0.17622647,-0.21827275,-0.95979565,-0.55274963,1.174881,15.615555,-2.2399902,-27.819824,-22.930908,3.358826,4.075503,8.263107,-1.8054421,0.6944027,1.8205929,0.054382324,0.50479126,0.25517273
-0.08693499,-0.11240104,-0.98508006,2.4717865,2.383255,6.8817596,-6.651306,-25.939941,-21.23413,1.893673,2.0061245,9.4106245,0.71062326,0.061403513,0.8092756,-0.77397156,0.7891388,1.1458282
-0.08530913,-0.15518643,-0.9700051,3.9673004,2.555542,8.874985,-6.9213867,-26.765442,-20.484924,2.1298532,2.673798,9.191568,0.5465473,-0.12013078,-1.1592379,0.5584717,-0.105773926,0.10331726
-0.11078886,-0.13996741,-0.9743894,4.5272217,2.0530396,6.731003,-8.554077,-21.159363,-24.110413,2.492692,2.3777692,9.181672,1.1233494,-1.2935476,1.7256889,-1.0345612,-0.12550354,-0.31591797
-0.18238543,-0.09558961,-0.97517395,2.9359894,2.170288,9.279373,-8.763123,-20.521545,-23.516846,3.641076,1.5369252,8.975011,-0.33817315,1.0961137,-0.466815,-0.16278076,-0.9210968,-0.39326477
-0.20136034,-0.08827575,-0.9744949,2.589035,-1.4117584,18.28595,-6.802368,-21.627808,-23.97461,3.9264505,1.5096684,8.858571,-0.46366334,0.22263432,4.079026,0.08229065,0.07821655,-0.38354492
-0.17164023,-0.07404983,-0.98216873,1.3088684,2.6033936,2.835495,-5.3482056,-23.660278,-21.955872,3.3354824,1.359062,9.121287,-0.6441839,-0.3616054,-0.2833643,0.10501099,0.2407074,0.04840088
-0.14028187,-0.13801676,-0.9784826,3.4959106,1.701294,9.032898,-6.919861,-27.223206,-17.785645,2.8600228,2.4781277,9.047073,-0.9302292,0.07938528,-1.3549433,0.80171204,0.39237976,0.50312805
-0.119649164,-0.16112584,-0.9726971,3.225525,2.074585,7.1066895,-8.958435,-23.695374,-20.30487,2.650952,2.8004265,9.016676,0.62110686,-0.6065688,1.9304113,-0.5249176,-0.018295288,0.099349976
-0.15091464,-0.09985934,-0.9791074,3.6514435,2.2301178,7.9872437,-8.56781,-22.593689,-17.907715,3.079741,1.6431329,9.1643715,0.22828293,0.18004394,-1.0833912,-0.52593994,-0.26985168,-0.062469482
-0.17422047,-0.071710736,-0.9820807,3.0604248,3.6418762,10.566711,-9.613037,-23.428345,-13.201904,3.3624437,1.3651584,9.110472,-0.3281777,1.5376959,0.7088728,0.29011536,-0.10253906,-0.07762146
-0.16419835,-0.09648131,-0.981619,5.099106,0.79681396,7.757538,-11.656189,-20.88623,-10.940552,3.1847878,1.8175206,9.095281,0.7300172,-0.43159688,1.7069006,0.038742065,0.03857422,0.169281
-0.19125909,-0.074078426,-0.97858423,3.1968079,0.7417755,10.435104,-13.175964,-20.39032,-12.663269,3.6962707,1.3562691,8.9815645,-0.4144082,-0.14923334,-0.36229515,-0.293396,-0.14401245,-0.08390808
-0.15938824,-0.073709324,-0.98445016,4.2711945,0.23928833,12.145966,-13.708496,-21.290588,-13.729858,3.0840242,1.4091349,9.201821,0.5295398,-0.4510373,0.93729687,0.3579712,-0.0033874512,-0.27218628
0.18233053,0.08193419,0.9793346,1.6797638,2.182251,7.410568,-14.2074585,-20.54596,-20.129395,3.4527717,1.6837882,9.022948,-0.8067291,0.052063465,0.055983543,-0.34861755,0.08029175,-0.1331482
0.15740922,0.052324418,0.98587114,4.5009003,2.8307037,8.676376,-13.12561,-21.568298,-19.927979,3.0197895,1.0836679,9.26698,-0.581625,1.2270633,0.16704273,-0.2657776,0.33428955,0.17233276
0.15150146,0.10786178,0.98252785,2.498108,1.3184509,10.918457,-12.32605,-23.02246,-22.824097,2.9042466,2.1000237,9.128287,-0.62214947,0.2954929,1.2479248,0.77342224,0.26826477,0.07533264
-0.10547756,-0.10440294,-0.98868656,1.7156525,2.074585,7.4895325,-9.339905,-24.420166,-24.212646,2.0899131,1.979506,9.374658,0.60887027,-0.8986622,-0.09066105,-0.28611755,0.03753662,0.12200928
0.08497074,0.05359734,0.994725,2.2660065,1.8185425,8.446671,-4.310608,-24.946594,-25.80719,1.6359785,1.0802156,9.608699,0.253788,-0.09034109,1.9235449,-0.25569153,-0.17279053,-0.24279785
0.09836914,0.102880895,0.9896656,2.6967163,3.493515,5.235489,-3.6727905,-29.225159,-23.384094,1.8743981,2.0304523,9.4092655,-0.76222456,0.8567692,-2.6502285,0.49212646,0.022384644,0.12792969
-0.10278988,-0.14066558,-0.98461896,2.321045,3.1680908,13.055237,-2.1240234,-30.729675,-22.772217,2.021316,2.689973,9.211337,0.16223848,0.8260236,0.62739086,0.055358887,0.14094543,0.2191925
-0.09575012,-0.07499608,-0.9925577,3.069992,0.7848511,8.642868,-2.7191162,-27.095032,-26.464844,1.8729086,1.4485991,9.5165205,0.4235803,-0.4994198,1.8019886,-0.5349884,-0.35916138,0.040390015
-0.1355542,-0.047849756,-0.98954093,2.6871338,0.69392395,8.934799,-4.6829224,-23.399353,-31.06842,2.642127,0.89675266,9.401351,-0.067662954,0.185521,-0.8082695,-0.4043274,-0.07192993,0.19342041
-0.13295488,-0.066167004,-0.9887895,3.3044891,-0.2632141,12.366104,-7.270813,-27.288818,-31.225586,2.5985658,1.2427857,9.374078,0.6065266,-1.0976115,0.48531437,0.54319763,-0.3683319,-0.27920532
0.1830914,0.050206307,0.9816591,2.313858,1.2299042,8.085342,-11.036682,-28.170776,-34.495544,3.5080435,1.0290858,9.099726,-0.40322948,-0.16264915,-0.22940445,-0.51727295,-0.23020935,-0.067855835
0.16871838,0.004054393,0.98553747,3.1011047,0.68434143,11.595627,-10.160828,-27.716064,-38.3667,3.260051,0.12894155,9.248018,-0.6883702,1.0295862,0.63224125,-0.28245544,0.31114197,0.05897522
0.13730425,0.025732836,0.9901919,1.8209381,-0.55752563,12.526428,-8.74939,-32.59735,-36.09619,2.6653996,0.50603354,9.423903,-0.14664507,0.36759323,2.7618027,0.43995667,0.25512695,0.09365845
-0.12456259,-0.04272666,-0.99123025,2.2420807,1.3232269,6.8315125,-9.739685,-37.123108,-34.55963,2.4308832,0.8037679,9.466528,-0.25296068,0.12571216,-1.959691,-0.052703857,-0.04560852,0.25187683
-0.13464911,-0.057540454,-0.9881644,3.041275,0.45703125,9.982849,-10.61554,-41.52069,-29.45404,2.6612475,0.9944754,9.386116,0.14514256,-0.14184558,-0.04545307,0.4179077,-0.003768921,0.16793823
-0.13808756,-0.07802841,-0.98726565,4.261612,-0.028717041,10.518845,-10.952759,-44.19098,-26.661682,2.6926055,1.4777379,9.313246,0.89418364,-1.0780343,1.4868622,-0.24281311,0.06820679,-0.24841309
0.14116055,0.038799584,0.98913854,2.244461,1.4333038,9.389435,-7.1151733,-43.1427,-25.32196,2.728536,0.7891664,9.386304,-0.4490192,0.971606,-1.9656277,-0.19076538,-0.065093994,-0.07157898
0.13920994,0.05004312,0.9885956,3.4073792,0.7537384,13.859222,-4.2755127,-43.426514,-20.741272,2.671553,1.0473044,9.377439,-0.16765428,1.2851622,1.0155201,0.2033081,0.09593201,-0.15397644
0.1118328,0.04327099,0.99237674,2.5028992,1.1174469,6.8027954,-3.0349731,-41.781616,-15.245056,2.1525433,0.904622,9.5246315,0.25343752,-0.7120424,1.3366728,0.019012451,0.017623901,0.16641235
-0.13723014,-0.076017104,-0.98760444,2.3066864,1.6534424,9.178864,-7.9956055,-36.84082,-8.827209,2.6658783,1.4585551,9.323953,-0.53440523,0.47711647,-1.9574928,0.28149414,-0.110672,0.21166992
-0.14159718,-0.10370516,-0.9843877,2.6033936,0.8374939,12.313461,-6.6238403,-29.997253,-5.5999756,2.7608428,1.9653618,9.202472,0.4731624,-1.0480834,2.6465645,-0.032852173,-0.1570282,-0.13400269
0.1440898,0.072085485,0.9868398,2.5052795,2.5435638,5.4628143,-7.575989,-25.210571,-10.176086,2.7694416,1.4340923,9.297524,0.42984414,0.36327553,-2.2808924,-0.09486389,-0.07701111,-0.019714355
0.15195349,0.07919857,0.9851883,3.000595,2.7684937,11.23909,-9.109497,-26.756287,-12.239075,2.926134,1.5495849,9.230759,-0.56155634,0.9772588,0.42106342,-0.12734985,0.17301941,-0.074020386
0.12574354,0.08453841,0.98842186,3.2996979,1.3495483,7.044464,-15.638733,-25.601196,-10.3012085,2.424415,1.6586264,9.356364,-0.095801115,0.13401926,1.9656954,0.10990906,0.20143127,0.10118103
-0.14659227,-0.09133167,-0.98474747,2.0937195,1.1700897,8.671585,-17.739868,-22.782898,-6.4697266,2.8689513,1.7035681,9.22157,-0.15697503,-0.44503617,-1.401206,-0.08111572,-0.2368164,0.24143982
-0.13403139,-0.08172334,-0.9874746,3.000595,1.409378,9.324829,-15.988159,-22.946167,-8.009338,2.6212554,1.5411563,9.323318,-0.25245,-0.5903194,0.2594118,0.28375244,0.08584595,-0.22996521
0.13910902,0.07029837,0.98764867,2.9742737,1.8520508,7.566101,-16.537476,-23.675537,-12.590027,2.672586,1.4054883,9.33018,0.62499666,-0.59432244,1.1564617,-0.4974823,-0.05923462,-0.13804626
0.1424442,0.05139105,0.9883573,2.1056824,1.9429779,9.332016,-15.219116,-26.420593,-13.807678,2.7463748,1.0375084,9.356891,-0.54051304,0.869396,-1.4147854,0.031585693,-0.0022277832,-0.101760864
0.12485427,0.079598084,0.98866796,1.7348022,1.4787598,7.290924,-16.331482,-27.496338,-16.169739,2.3824573,1.6040314,9.376639,-0.62133265,-0.06892836,-0.7932091,0.1656189,-0.12489319,0.35383606
-0.13423306,-0.087992735,-0.98695785,2.7924194,0.97387695,9.918243,-18.974304,-28.677368,-18.266296,2.619762,1.6707567,9.301387,-0.013556004,-0.5776963,-0.44601536,0.050048828,0.09513855,0.15896606
-0.11791682,-0.110663466,-0.9867646,3.3260193,1.3974152,9.013763,-17.063904,-28.903198,-19.750977,2.3082523,2.1139119,9.293747,0.41311026,-0.82414246,1.3126516,-0.0962677,0.059524536,-0.147995
-0.13133033,-0.07334164,-0.98860514,1.7970123,2.1104736,8.224136,-19.322205,-26.853943,-21.354675,2.5547652,1.4072257,9.362866,0.3567996,0.3150419,-1.664629,-0.36273193,-0.052749634,0.09725952
0.12227036,0.060408358,0.9906138,1.4691925,2.8737793,11.088333,-20.471191,-28.959656,-22.792053,2.3646858,1.19581,9.441858,-0.41321778,1.331522,0.8103094,0.11418152,0.14137268,-0.27786255
0.09798341,0.08832941,0.9911415,2.646469,1.8137665,6.9439697,-24.195862,-29.421997,-23.26355,1.8781542,1.7465917,9.465323,-0.18329203,-0.39573348,1.5496521,0.12719727,0.21687317,0.14173889
-0.109462135,-0.1006339,-0.9885692,1.6630096,1.8664093,9.477966,-25.604248,-24.775696,-23.542786,2.1715908,1.8976651,9.373016,-0.08491111,0.034623623,-2.0097713,0.26493835,-0.10046387,0.3556671
-0.07908549,-0.12897114,-0.97511363,2.572281,1.6510468,10.954346,-21.035767,-23.608398,-21.981812,1.9224792,2.2152138,9.357739,0.3042798,-0.48461986,0.93774796,0.20562744,0.07736206,-0.21017456
-0.08558655,-0.11317752,-0.97880554,1.6055908,2.0291138,7.3339996,-18.47992,-22.198486,-22.175598,1.9708452,1.9248593,9.411752,0.48067236,-0.3893354,-0.071344376,-0.37487793,-0.13790894,-0.110183716
-0.090157226,-0.089976944,-0.98178035,0.65802,2.9192505,10.203003,-14.707947,-22.30835,-22.956848,1.984906,1.4832505,9.4884405,-0.66860545,0.913597,-0.70596313,-0.20805359,0.1287384,-0.23083496
-0.06506813,-0.10218363,-0.9851012,0.46180725,0.7010956,12.404388,-10.810852,-23.135376,-23.890686,1.5018278,1.8185171,9.518818,-0.64684,0.2024523,2.280818,0.1725769,0.17974854,-0.10180664
-0.06590138,-0.093764015,-0.98454195,1.9190369,1.8951111,7.5182495,-11.576843,-24.440002,-21.783447,1.5161377,1.6393998,9.549036,0.41036975,-0.17137969,-1.1889887,-0.091796875,-0.1335144,0.28041077
-0.07417492,-0.106903486,-0.97943336,1.1724854,1.7036896,9.497116,-10.02655,-27.922058,-20.140076,1.7482264,1.8292639,9.474592,0.11918855,-0.15070593,-0.26993275,0.44026184,0.054885864,0.019073486
-0.06974442,-0.14455837,-0.97742254,2.7373962,1.6486511,8.169098,-9.16748,-28.825378,-18.47229,1.7266521,2.5832763,9.301384,-0.1695354,-1.0018344,0.89471817,-0.22717285,-0.0619812,-0.29032898
-0.08535773,-0.10768248,-0.9819205,1.5744781,2.703888,8.358124,-9.779358,-26.316833,-18.313599,1.9188521,1.8558595,9.436323,-0.48366654,0.5930829,-2.06071,-0.046173096,-0.017990112,0.21876526
-0.06633146,-0.101441555,-0.98132277,1.529007,3.115448,10.238892,-8.96759,-26.345825,-16.993713,1.5738939,1.7580986,9.518525,-0.113167405,1.1030235,1.3917866,-0.035964966,0.31541443,0.13795471
-0.039406832,-0.101487376,-0.9797544,1.8640137,0.73220825,8.429916,-9.396362,-23.692322,-14.924622,1.0916826,1.820346,9.5741825,-0.004738927,-0.640241,0.5853367,0.08241272,0.07949829,0.24650574
-0.05315855,-0.089571305,-0.9757008,1.5026855,1.2921295,10.39682,-6.9641113,-21.79718,-12.826538,1.3559308,1.5131183,9.593867,-0.08311629,0.022677422,-1.0509071,-0.12997437,-0.046524048,0.121276855
-0.048123457,-0.104598425,-0.9749198,0.3637085,-0.093322754,14.407181,-2.0248413,-19.667053,-10.253906,1.3109185,1.8203009,9.546642,-0.22835052,-0.5546353,1.4905643,0.18778992,-0.071258545,-0.14205933
-0.055024616,-0.077260576,-0.97978854,1.5050812,2.5100708,6.4749756,3.7719727,-20.106506,-7.336426,1.3242794,1.2946388,9.630191,0.6540022,0.32268226,-0.79373646,-0.3235016,-0.05722046,0.14411926
-0.021864532,-0.10246872,-0.9724755,0.009567261,1.586441,8.640488,6.4956665,-41.622925,-1.4068604,0.83529884,1.8651837,9.591337,-1.6548321,-0.46077955,2.4080744,-0.087402344,0.017318726,0.3784485
0.0,0.0,0.0,0.0,0.0,0.0,0.0,0.0,0.0,0.0,0.0,0.0,0.0,0.0,0.0,0.0,0.0,0.0
-0.055621706,-0.13671394,-0.9018141,1.6917267,1.689331,7.8460693,-27.011108,-27.961731,-0.4989624,2.0728307,1.97507,9.379384,-1.404716,-1.0773191,0.9999323,-0.037002563,0.31962585,0.6513214
-0.04958955,-0.13150832,-0.8485924,2.0865479,1.9405823,9.422943,-30.537415,-21.382141,-5.131531,2.1408973,1.6927155,9.419218,-0.022371292,0.19773805,-0.42687035,0.2791748,-0.14620972,1.1870575
-0.032469682,-0.15961486,-0.804313,-1.1700897,2.1343994,11.418549,-30.72815,-17.494202,-9.844971,2.301168,2.154044,9.286286,-1.4105158,0.47232223,0.08947945,0.57110596,0.23440552,0.35414124
-0.05403796,-0.13748555,-0.9421585,1.1222382,1.4380798,7.893921,-33.32367,-10.2127075,-12.483215,1.8098332,2.221706,9.378641,-1.3373088,-0.7928996,1.2060642,-0.279953,-0.028198242,0.7507782
-0.07546816,-0.12011071,-0.89924246,2.995819,1.0504456,10.566711,-32.78351,-6.8847656,-13.639832,2.305887,1.5058892,9.411991,-0.14036775,-0.14469528,-0.5459852,0.3531494,0.23838806,0.99432373
-0.042698815,-0.15572862,-0.86528516,1.1437683,1.2346954,10.435104,-31.770325,-5.645752,-14.260864,2.1741185,2.2454588,9.295241,0.13764286,-0.7753973,1.0736227,0.28753662,0.0990448,0.19317627
-0.033514235,-0.12938021,-0.86370033,1.6031952,2.1990051,7.4033966,-31.002808,-2.597046,-15.557861,1.8008962,1.8722674,9.456308,0.27028537,-0.027393818,-1.8344631,-0.30822754,0.17332458,0.35835266
-0.04084033,-0.12126752,-0.8448254,0.59820557,3.6011963,10.82753,-30.389404,-1.5380859,-15.141296,1.9123616,1.5932412,9.485507,-0.7657467,0.96503043,0.921257,0.19151306,0.15353394,0.22187805
0.0052567725,-0.15924516,-0.7615046,1.1198425,1.3567352,12.49292,-29.49524,3.9794922,-14.131165,1.8837793,2.4432013,9.308734,0.7688037,-0.6898041,0.981657,0.4078827,0.049438477,0.2526703
0.0,0.0,0.0,0.0,0.0,0.0,0.0,0.0,0.0,0.0,0.0,0.0,0.0,0.0,0.0,0.0,0.0,0.0
0.0,0.0,0.0,0.0,0.0,0.0,0.0,0.0,0.0,0.0,0.0,0.0,0.0,0.0,0.0,0.0,0.0,0.0
0.0,0.0,0.0,0.0,0.0,0.0,0.0,0.0,0.0,0.0,0.0,0.0,0.0,0.0,0.0,0.0,0.0,0.0
0.0,0.0,0.0,0.0,0.0,0.0,0.0,0.0,0.0,0.0,0.0,0.0,0.0,0.0,0.0,0.0,0.0,0.0
0.0,0.0,0.0,0.0,0.0,0.0,0.0,0.0,0.0,0.0,0.0,0.0,0.0,0.0,0.0,0.0,0.0,0.0
0.0,0.0,0.0,0.0,0.0,0.0,0.0,0.0,0.0,0.0,0.0,0.0,0.0,0.0,0.0,0.0,0.0,0.0
0.0,0.0,0.0,0.0,0.0,0.0,0.0,0.0,0.0,0.0,0.0,0.0,0.0,0.0,0.0,0.0,0.0,0.0
0.0,0.0,0.0,0.0,0.0,0.0,0.0,0.0,0.0,0.0,0.0,0.0,0.0,0.0,0.0,0.0,0.0,0.0
0.0,0.0,0.0,0.0,0.0,0.0,0.0,0.0,0.0,0.0,0.0,0.0,0.0,0.0,0.0,0.0,0.0,0.0
0.0,0.0,0.0,0.0,0.0,0.0,0.0,0.0,0.0,0.0,0.0,0.0,0.0,0.0,0.0,0.0,0.0,0.0
0.0,0.0,0.0,0.0,0.0,0.0,0.0,0.0,0.0,0.0,0.0,0.0,0.0,0.0,0.0,0.0,0.0,0.0
0.0,0.0,0.0,0.0,0.0,0.0,0.0,0.0,0.0,0.0,0.0,0.0,0.0,0.0,0.0,0.0,0.0,0.0
0.0,0.0,0.0,0.0,0.0,0.0,0.0,0.0,0.0,0.0,0.0,0.0,0.0,0.0,0.0,0.0,0.0,0.0
0.0,0.0,0.0,0.0,0.0,0.0,0.0,0.0,0.0,0.0,0.0,0.0,0.0,0.0,0.0,0.0,0.0,0.0
0.0,0.0,0.0,0.0,0.0,0.0,0.0,0.0,0.0,0.0,0.0,0.0,0.0,0.0,0.0,0.0,0.0,0.0
0.0,0.0,0.0,0.0,0.0,0.0,0.0,0.0,0.0,0.0,0.0,0.0,0.0,0.0,0.0,0.0,0.0,0.0
0.0,0.0,0.0,0.0,0.0,0.0,0.0,0.0,0.0,0.0,0.0,0.0,0.0,0.0,0.0,0.0,0.0,0.0
0.0,0.0,0.0,0.0,0.0,0.0,0.0,0.0,0.0,0.0,0.0,0.0,0.0,0.0,0.0,0.0,0.0,0.0
0.0,0.0,0.0,0.0,0.0,0.0,0.0,0.0,0.0,0.0,0.0,0.0,0.0,0.0,0.0,0.0,0.0,0.0
0.0,0.0,0.0,0.0,0.0,0.0,0.0,0.0,0.0,0.0,0.0,0.0,0.0,0.0,0.0,0.0,0.0,0.0
0.0,0.0,0.0,0.0,0.0,0.0,0.0,0.0,0.0,0.0,0.0,0.0,0.0,0.0,0.0,0.0,0.0,0.0
0.0,0.0,0.0,0.0,0.0,0.0,0.0,0.0,0.0,0.0,0.0,0.0,0.0,0.0,0.0,0.0,0.0,0.0
0.0,0.0,0.0,0.0,0.0,0.0,0.0,0.0,0.0,0.0,0.0,0.0,0.0,0.0,0.0,0.0,0.0,0.0
0.0,0.0,0.0,0.0,0.0,0.0,0.0,0.0,0.0,0.0,0.0,0.0,0.0,0.0,0.0,0.0,0.0,0.0
0.0,0.0,0.0,0.0,0.0,0.0,0.0,0.0,0.0,0.0,0.0,0.0,0.0,0.0,0.0,0.0,0.0,0.0
0.0,0.0,0.0,0.0,0.0,0.0,0.0,0.0,0.0,0.0,0.0,0.0,0.0,0.0,0.0,0.0,0.0,0.0
0.0,0.0,0.0,0.0,0.0,0.0,0.0,0.0,0.0,0.0,0.0,0.0,0.0,0.0,0.0,0.0,0.0,0.0
0.0,0.0,0.0,0.0,0.0,0.0,0.0,0.0,0.0,0.0,0.0,0.0,0.0,0.0,0.0,0.0,0.0,0.0
0.0,0.0,0.0,0.0,0.0,0.0,0.0,0.0,0.0,0.0,0.0,0.0,0.0,0.0,0.0,0.0,0.0,0.0
0.0,0.0,0.0,0.0,0.0,0.0,0.0,0.0,0.0,0.0,0.0,0.0,0.0,0.0,0.0,0.0,0.0,0.0
0.0,0.0,0.0,0.0,0.0,0.0,0.0,0.0,0.0,0.0,0.0,0.0,0.0,0.0,0.0,0.0,0.0,0.0
0.0,0.0,0.0,0.0,0.0,0.0,0.0,0.0,0.0,0.0,0.0,0.0,0.0,0.0,0.0,0.0,0.0,0.0
0.0,0.0,0.0,0.0,0.0,0.0,0.0,0.0,0.0,0.0,0.0,0.0,0.0,0.0,0.0,0.0,0.0,0.0
0.0,0.0,0.0,0.0,0.0,0.0,0.0,0.0,0.0,0.0,0.0,0.0,0.0,0.0,0.0,0.0,0.0,0.0
0.0,0.0,0.0,0.0,0.0,0.0,0.0,0.0,0.0,0.0,0.0,0.0,0.0,0.0,0.0,0.0,0.0,0.0
0.0,0.0,0.0,0.0,0.0,0.0,0.0,0.0,0.0,0.0,0.0,0.0,0.0,0.0,0.0,0.0,0.0,0.0
0.0,0.0,0.0,0.0,0.0,0.0,0.0,0.0,0.0,0.0,0.0,0.0,0.0,0.0,0.0,0.0,0.0,0.0
0.0,0.0,0.0,0.0,0.0,0.0,0.0,0.0,0.0,0.0,0.0,0.0,0.0,0.0,0.0,0.0,0.0,0.0
0.0,0.0,0.0,0.0,0.0,0.0,0.0,0.0,0.0,0.0,0.0,0.0,0.0,0.0,0.0,0.0,0.0,0.0
0.0,0.0,0.0,0.0,0.0,0.0,0.0,0.0,0.0,0.0,0.0,0.0,0.0,0.0,0.0,0.0,0.0,0.0
0.0,0.0,0.0,0.0,0.0,0.0,0.0,0.0,0.0,0.0,0.0,0.0,0.0,0.0,0.0,0.0,0.0,0.0
0.0,0.0,0.0,0.0,0.0,0.0,0.0,0.0,0.0,0.0,0.0,0.0,0.0,0.0,0.0,0.0,0.0,0.0
0.0,0.0,0.0,0.0,0.0,0.0,0.0,0.0,0.0,0.0,0.0,0.0,0.0,0.0,0.0,0.0,0.0,0.0
0.0,0.0,0.0,0.0,0.0,0.0,0.0,0.0,0.0,0.0,0.0,0.0,0.0,0.0,0.0,0.0,0.0,0.0
0.0,0.0,0.0,0.0,0.0,0.0,0.0,0.0,0.0,0.0,0.0,0.0,0.0,0.0,0.0,0.0,0.0,0.0
0.0,0.0,0.0,0.0,0.0,0.0,0.0,0.0,0.0,0.0,0.0,0.0,0.0,0.0,0.0,0.0,0.0,0.0
0.0,0.0,0.0,0.0,0.0,0.0,0.0,0.0,0.0,0.0,0.0,0.0,0.0,0.0,0.0,0.0,0.0,0.0
0.0,0.0,0.0,0.0,0.0,0.0,0.0,0.0,0.0,0.0,0.0,0.0,0.0,0.0,0.0,0.0,0.0,0.0
0.0,0.0,0.0,0.0,0.0,0.0,0.0,0.0,0.0,0.0,0.0,0.0,0.0,0.0,0.0,0.0,0.0,0.0
0.0,0.0,0.0,0.0,0.0,0.0,0.0,0.0,0.0,0.0,0.0,0.0,0.0,0.0,0.0,0.0,0.0,0.0
0.0,0.0,0.0,0.0,0.0,0.0,0.0,0.0,0.0,0.0,0.0,0.0,0.0,0.0,0.0,0.0,0.0,0.0
0.0,0.0,0.0,0.0,0.0,0.0,0.0,0.0,0.0,0.0,0.0,0.0,0.0,0.0,0.0,0.0,0.0,0.0
0.0,0.0,0.0,0.0,0.0,0.0,0.0,0.0,0.0,0.0,0.0,0.0,0.0,0.0,0.0,0.0,0.0,0.0
0.0,0.0,0.0,0.0,0.0,0.0,0.0,0.0,0.0,0.0,0.0,0.0,0.0,0.0,0.0,0.0,0.0,0.0
0.0,0.0,0.0,0.0,0.0,0.0,0.0,0.0,0.0,0.0,0.0,0.0,0.0,0.0,0.0,0.0,0.0,0.0
0.0,0.0,0.0,0.0,0.0,0.0,0.0,0.0,0.0,0.0,0.0,0.0,0.0,0.0,0.0,0.0,0.0,0.0
0.0,0.0,0.0,0.0,0.0,0.0,0.0,0.0,0.0,0.0,0.0,0.0,0.0,0.0,0.0,0.0,0.0,0.0
0.0,0.0,0.0,0.0,0.0,0.0,0.0,0.0,0.0,0.0,0.0,0.0,0.0,0.0,0.0,0.0,0.0,0.0
0.0,0.0,0.0,0.0,0.0,0.0,0.0,0.0,0.0,0.0,0.0,0.0,0.0,0.0,0.0,0.0,0.0,0.0
0.0,0.0,0.0,0.0,0.0,0.0,0.0,0.0,0.0,0.0,0.0,0.0,0.0,0.0,0.0,0.0,0.0,0.0
0.08070674,-0.725969,0.6828671,11.083557,-9.324829,-1.9525452,-4.269409,35.395813,-17.010498,1.2541076,-9.703853,-0.65791965,7.2944856,0.72681427,-2.2998004,-0.16137695,-1.2292175,-1.1597137
0.29707038,-0.7060575,0.63923174,6.2691956,-9.61676,2.1128693,-26.280212,27.842712,-11.679077,4.6652346,-8.456348,-1.7018064,5.5113964,-2.1517916,0.25408912,-0.48330688,-0.6727295,-2.9355164
0.53168774,-0.5906408,0.5723467,4.5702972,-9.176468,0.117248535,-38.893127,9.257507,-7.621765,8.310487,-4.522089,-2.580098,-2.5680523,-5.4137344,3.833491,-0.2762146,1.2398987,-1.1053467
0.53413993,-0.5062615,0.6062806,7.795822,-4.675583,-3.9888306,-36.756897,6.336975,-16.386414,9.3438835,-2.8629217,-0.81603545,-4.37778,-6.3673744,-0.35080636,0.18986511,0.33825684,1.4951172
0.3894028,-0.5692665,0.6696095,7.585251,-5.4508514,-1.351944,-30.88379,17.752075,-18.907166,8.190622,-5.371863,0.47662538,-1.6155825,-0.7689614,-2.4704957,-0.75331116,0.955246,1.6515045
0.28175914,-0.6793658,0.6367235,8.872589,-6.467804,-0.8685913,-25.708008,26.889038,-15.220642,6.605189,-7.2039948,-0.80269647,2.2655926,2.5838723,0.8126877,-0.9653473,-0.07559204,1.3431396
0.25489837,-0.7053044,0.60996807,11.03331,-7.307678,2.9551392,-26.11084,28.378296,-13.391113,6.59015,-7.1582923,-1.224408,2.691681,0.6075592,1.6593186,-0.4226532,0.076812744,0.09408569
0.31948483,-0.67356455,0.61810076,5.1302185,-7.204788,2.519638,-32.203674,20.193481,-16.0141,7.167663,-6.602951,-1.0936322,2.7425194,-1.4095626,2.5443711,0.41123962,-0.42471313,-0.4733429
0.4863462,-0.47996128,0.6952557,4.220932,-6.47258,2.1056824,-35.2417,7.0648193,-22.265625,8.731076,-4.4178176,0.64928985,-3.5102692,-2.6623144,0.7457102,2.1208801,-0.36747742,-1.5697937
0.47387287,-0.27150884,0.819228,14.060226,-8.573486,3.7112732,-22.717285,-14.131165,-29.963684,8.545496,-2.7369056,3.9565408,3.4607697,-5.052176,1.615797,2.208603,1.0510864,-0.52679443
0.25130913,0.15328664,0.909382,2.5746765,1.0384827,4.2759705,10.389709,-34.81598,-21.487427,3.5987773,4.182602,8.107098,6.986579,-6.3461876,-3.5124311,3.201828,3.7088013,-2.4494476
0.15218402,0.41543108,0.85874486,-1.9669037,2.8522491,-1.9142609,10.298157,-37.54425,-18.037415,0.45708165,7.768564,5.9674845,-1.5999544,-5.9495087,-5.401089,2.2807465,1.6661072,-0.60565186
0.17637317,0.2187014,0.9457567,2.629715,7.010971,12.586243,5.873108,-30.101013,-29.101562,2.571943,4.6210394,8.258419,-0.74039364,-0.84906816,-1.962532,-1.9373016,-0.16337585,1.4383698
0.12063822,0.20877063,0.96705705,-0.8614197,7.709671,-0.59580994,4.434204,-29.678345,-30.163574,1.953956,4.152914,8.666357,1.4115932,0.29669476,6.5410185,-0.003967285,0.71315,0.6998291
0.00789541,0.23873655,0.97025186,-1.4428711,2.4023895,-3.0556335,10.101318,-31.5979,-25.274658,-0.034330416,4.549223,8.687565,1.8653091,-3.027089,3.2574177,0.37973022,1.3093109,0.17643738
0.06964861,0.3722745,0.9220377,-2.9024963,4.5104675,-3.3643036,8.605957,-39.25171,-19.29779,0.6750902,6.841632,6.9933333,-2.4308581,-3.9845347,-4.3012156,1.4549866,-0.76564026,-0.286911
-0.16948086,-0.24395803,-0.9548366,6.0012054,5.7690887,11.351547,-0.8331299,-34.942627,-26.112366,3.2070327,4.545742,8.075987,-1.4250283,0.51311445,-2.3786907,-1.2220917,-0.6985626,1.3497314
-0.16306296,-0.11267643,-0.9799819,2.4789581,3.7519531,10.468597,-1.171875,-26.745605,-33.03833,3.175522,2.1058886,9.036131,1.0102513,2.8223608,1.801424,-1.3739014,0.18127441,0.3713684
-0.121610075,-0.08595293,-0.9888423,1.2586212,1.9932251,10.013962,1.5335083,-25.466919,-34.40857,2.3648686,1.6580877,9.371688,-0.815284,1.3921523,-0.029017448,-0.3406067,0.3929901,-0.17004395
-0.065332204,-0.07604818,-0.9897175,0.928421,2.1224365,9.985245,3.8269043,-24.887085,-32.94983,1.4203703,1.3454949,9.609506,-0.10082877,0.8555541,-0.14452839,-0.0914917,0.5819397,0.53434753
-0.056839254,-0.0590764,-0.9858571,0.928421,0.9308014,13.306488,1.9821167,-26.6922,-32.10907,1.268401,0.97934747,9.674835,0.55054796,1.2094436,2.1059847,-0.16156006,0.14175415,0.4529724
-0.07823166,-0.13056745,-0.970144,3.3188477,0.5288086,12.844666,-1.6189575,-32.27539,-29.248047,1.9721091,2.1946814,9.352248,-0.22788274,-0.83219457,1.0077019,0.7463074,-0.32165527,0.42152405
-0.0478197,-0.21303794,-0.9561465,1.1533356,2.3162537,6.6352997,-1.2893677,-36.43799,-25.50354,1.7124867,3.8120403,8.871647,0.18150628,-2.2321258,-0.8225508,0.95980835,0.16563416,0.032455444