rotationVector_x,rotationVector_y,rotationVector_z,accelerometer_x,accelerometer_y,accelerometer_z,magneticField_x,magneticField_y,magneticField_z,gravity_x,gravity_y,gravity_z,linearAcceleration_x,linearAcceleration_y,linearAcceleration_z,gyroscope_x,gyroscope_y,gyroscope_z
-0.012250413,0.0037043858,-0.2026189,-0.021057129,-0.25004578,9.805069,-6.2301636,16.351318,-43.86444,-0.022458665,-0.2499885,9.803438,-2.749078e-05,0.00023058057,0.0009965897,0.0,1.5258789e-05,-0.00016784668
-0.012234468,0.0036806848,-0.20254953,-0.022247314,-0.2524414,9.804825,-6.365967,15.103149,-43.88733,-0.022084562,-0.24958657,9.803449,0.0007892307,0.00055393577,0.00066280365,6.1035156e-05,7.6293945e-05,-4.5776367e-05
-0.012310065,0.0036926514,-0.20262069,-0.020095825,-0.25172424,9.804825,-5.026245,16.360474,-44.215393,-0.021995736,-0.2510873,9.80341,0.00047009252,-0.0022639632,-0.0013113022,-0.00012207031,1.5258789e-05,-0.00022888184
-0.012320569,0.003674429,-0.20257951,-0.022735596,-0.25053406,9.804352,-4.7286987,15.948486,-44.91577,-0.02161459,-0.2512157,9.803408,0.0008050762,-0.00046816468,-0.0008764267,6.1035156e-05,0.0001373291,1.5258789e-05
-0.012289175,0.0037054257,-0.2026423,-0.02130127,-0.2498169,9.806992,-6.0775757,16.140747,-43.61267,-0.022318562,-0.25073743,9.803418,-0.0006430261,0.0014412701,-0.000579834,-0.00018310547,0.0001373291,7.6293945e-05
-0.012302233,0.0036736021,-0.20256759,-0.02130127,-0.25125122,9.805542,-5.5603027,15.232849,-44.34662,-0.021674646,-0.25086007,9.803417,0.0018132571,0.00016140938,0.0024967194,0.00012207031,-4.5776367e-05,-0.00010681152
-0.012302132,0.0036648042,-0.20254494,-0.021774292,-0.25004578,9.805069,-5.5389404,15.748596,-44.621277,-0.021511877,-0.2508227,9.803418,-0.00025805645,-0.0001335442,-0.0010538101,-6.1035156e-05,-0.00010681152,1.5258789e-05
-0.012270126,0.003672116,-0.2025466,-0.022735596,-0.24789429,9.8033905,-6.1691284,15.995789,-44.317627,-0.021779059,-0.2502372,9.803433,-0.0009523947,0.0007120371,-0.00022888184,0.0,1.5258789e-05,-0.00010681152
-0.012252912,0.0036994966,-0.20260768,-0.027755737,-0.25028992,9.802444,-5.3237915,15.028381,-43.870544,-0.022357702,-0.25001675,9.803436,-0.0003751088,0.0009481609,-0.0012674332,0.0,0.00019836426,1.5258789e-05
-0.0122038545,0.003781872,-0.20279285,-0.022018433,-0.24861145,9.804352,-4.801941,15.937805,-44.08264,-0.024087517,-0.2494066,9.803449,-0.0031938292,9.216368e-05,-0.001332283,0.00024414062,7.6293945e-05,-0.00018310547
-0.012216892,0.0037699582,-0.20276925,-0.022262573,-0.2524414,9.806503,-6.555176,14.738464,-45.39032,-0.02381287,-0.249609,9.803444,0.0013234317,5.738437e-05,0.0005502701,-0.00018310547,0.0001373291,-0.00010681152
-0.012276985,0.003752064,-0.2027555,-0.020812988,-0.25100708,9.8033905,-4.975891,15.635681,-44.136047,-0.02323371,-0.25069138,9.803418,0.0009741597,-0.0017173886,0.00084877014,-6.1035156e-05,1.5258789e-05,-6.1035156e-05
-0.012288432,0.003703776,-0.20263767,-0.022491455,-0.25053406,9.802673,-5.66864,16.23993,-43.30597,-0.022291023,-0.2507165,9.803419,0.001952786,0.00044602156,-0.0010175705,-0.00018310547,-0.00010681152,0.00012207031
-0.012299633,0.0036947175,-0.2026204,-0.0236969,-0.25100708,9.8029175,-6.262207,15.6188965,-43.86139,-0.022076959,-0.2508952,9.803415,-0.0001692269,-0.00034320354,-0.0005264282,0.00012207031,-4.5776367e-05,1.5258789e-05
-0.012273518,0.0037320328,-0.20270222,-0.022262573,-0.24885559,9.805786,-5.7250977,15.226746,-44.944763,-0.022876449,-0.25054395,9.803423,-0.0015372243,1.4156103e-05,-0.0006723404,0.00018310547,-0.00010681152,-4.5776367e-05
-0.012231869,0.003708668,-0.20261997,-0.024398804,-0.2467041,9.801712,-6.4193726,15.682983,-43.692017,-0.022614347,-0.24964942,9.803446,0.0005977545,0.0012871772,0.0012979507,6.1035156e-05,0.0001373291,0.00012207031
-0.012180844,0.0037009565,-0.20257288,-0.022018433,-0.2514801,9.801956,-5.74646,14.71405,-44.744873,-0.022681018,-0.24863794,9.803472,-0.0012452453,0.0014555156,-0.0015506744,0.0,7.6293945e-05,1.5258789e-05
-0.01222824,0.0037136057,-0.2026307,-0.023208618,-0.2498169,9.804825,-5.1574707,15.261841,-44.50836,-0.022720855,-0.24959962,9.803447,0.0004566554,-0.0018983483,-0.0010328293,-6.1035156e-05,7.6293945e-05,-4.5776367e-05
-0.012227317,0.0037147051,-0.20263302,-0.020584106,-0.25004578,9.804596,-6.2408447,16.28418,-44.784546,-0.022745047,-0.24958634,9.803448,9.067357e-06,-0.00023473799,0.0010690689,0.00024414062,7.6293945e-05,-4.5776367e-05
-0.012221139,0.0036796976,-0.20253986,-0.022735596,-0.24957275,9.805786,-5.9143066,16.304016,-44.265747,-0.022121023,-0.2493265,9.803455,0.0013093725,-0.00046004355,0.0015087128,0.0,1.5258789e-05,0.0001373291
-0.012234717,0.003707447,-0.20261836,-0.022247314,-0.24957275,9.805786,-5.519104,16.11023,-44.09485,-0.022579983,-0.2496992,9.803444,-0.0003966745,-0.00031252205,0.0014781952,-0.00012207031,0.0001373291,-4.5776367e-05
-0.012221392,0.0037167505,-0.20263511,-0.024169922,-0.25100708,9.805069,-5.685425,14.282227,-44.914246,-0.022807349,-0.24948072,9.80345,7.525645e-05,0.0006634742,0.00035762787,-6.1035156e-05,7.6293945e-05,-0.00010681152
-0.012246568,0.0037392422,-0.2027063,-0.022491455,-0.24621582,9.801956,-5.670166,16.316223,-43.89496,-0.023121031,-0.2500552,9.803434,-0.0005725734,-0.0006721318,-0.00023555756,0.0,7.6293945e-05,7.6293945e-05
-0.012194679,0.0037133107,-0.20261198,-0.022979736,-0.24932861,9.803162,-5.267334,16.191101,-43.10608,-0.022853358,-0.24895358,9.803463,0.0006068293,0.001785025,-0.002073288,6.1035156e-05,-0.00010681152,0.0001373291
-0.012191135,0.0037199352,-0.2026271,-0.02154541,-0.24909973,9.805542,-6.716919,16.246033,-43.789673,-0.022990825,-0.24891225,9.803465,-0.00021619909,-0.00017023087,0.00068092346,0.0,0.0001373291,-0.00010681152
-0.012199886,0.0036922037,-0.2025606,-0.020339966,-0.24836731,9.806274,-5.821228,16.525269,-43.84613,-0.022440374,-0.24896851,9.803463,0.0013845954,0.00012789667,-0.0001745224,0.0,-4.5776367e-05,7.6293945e-05
-0.012185494,0.0036656768,-0.20248483,-0.023452759,-0.25100708,9.805313,-4.3060303,16.18805,-43.751526,-0.02200736,-0.24858512,9.803474,0.0007094089,0.00048416853,0.0017938614,6.1035156e-05,1.5258789e-05,0.00024414062
-0.012229263,0.0036936805,-0.2025801,-0.019622803,-0.25411987,9.804596,-6.1660767,15.992737,-44.01703,-0.022347031,-0.24953894,9.80345,-0.00038504414,-0.0021459907,7.534027e-05,0.0,0.0001373291,-4.5776367e-05
-0.012315064,0.0036776764,-0.2025849,-0.02368164,-0.25028992,9.805542,-6.2423706,16.134644,-44.13452,-0.021697462,-0.251123,9.803411,0.0018346012,-0.0029495955,0.0005311966,0.0,0.0002593994,-4.5776367e-05
-0.012278772,0.0037186497,-0.20267068,-0.022964478,-0.24980164,9.804108,-5.5496216,15.452576,-44.378662,-0.02260662,-0.2505909,9.803422,-0.0010707472,0.0010654926,3.9100647e-05,0.0,7.6293945e-05,-0.00035095215
-0.012264573,0.0037221655,-0.20267211,-0.02154541,-0.25172424,9.80603,-5.5114746,16.255188,-43.989563,-0.02273023,-0.25033227,9.803429,0.00048574246,0.00031760335,-0.0012569427,6.1035156e-05,0.00019836426,-0.00022888184
-0.012286011,0.0037275958,-0.20269752,-0.020584106,-0.25053406,9.804596,-5.6991577,15.585327,-43.740845,-0.022742767,-0.25076607,9.803417,0.00048485957,-0.00090673566,0.0015630722,6.1035156e-05,0.0001373291,-0.00010681152
-0.012294706,0.0036868257,-0.20259751,-0.021530151,-0.25004578,9.803162,-5.4763794,15.313721,-44.258118,-0.021950847,-0.25076872,9.803418,0.002331026,-0.00020429492,-0.0013599396,6.1035156e-05,0.00019836426,-0.00022888184
-0.012286699,0.003687261,-0.20259434,-0.021530151,-0.25172424,9.805313,-4.954529,16.223145,-44.548035,-0.021991836,-0.25061664,9.803422,-2.498366e-05,0.000100940466,-0.0012235641,-6.1035156e-05,1.5258789e-05,-4.5776367e-05
-0.012287757,0.0036884474,-0.20259796,-0.020584106,-0.25053406,9.808182,-5.7388306,16.453552,-43.26172,-0.022009496,-0.2506418,9.803423,0.00023858063,0.00014618039,0.0015764236,0.0,1.5258789e-05,-4.5776367e-05
-0.012284277,0.0036671835,-0.2025415,-0.022735596,-0.25076294,9.804596,-4.6417236,15.873718,-43.647766,-0.021629402,-0.2504892,9.803427,0.0010508243,1.9162893e-05,0.002005577,0.0,0.0001373291,1.5258789e-05
-0.012299527,0.0036955725,-0.20262255,-0.021774292,-0.2498169,9.804825,-5.9280396,15.937805,-44.11316,-0.02209325,-0.25089663,9.803415,-0.0003940761,-0.00078073144,-0.0013685226,6.1035156e-05,1.5258789e-05,-0.00016784668
-0.012265233,0.0036871042,-0.20258246,-0.02130127,-0.25196838,9.805786,-5.79834,15.292358,-44.25049,-0.022077182,-0.25020358,9.803433,6.2702224e-05,0.0013927817,-0.00011920929,0.0,0.0001373291,-0.00022888184
-0.012294523,0.0036888926,-0.20260271,-0.01890564,-0.25076294,9.804108,-6.033325,15.498352,-44.80133,-0.021989929,-0.25077355,9.803418,0.00069272704,-0.0013773143,8.106232e-05,6.1035156e-05,0.0001373291,-0.00010681152
-0.012303549,0.0036445023,-0.20249358,-0.02130127,-0.24957275,9.803879,-5.46875,15.382385,-43.940735,-0.021129511,-0.25076815,9.803421,0.002226973,-0.00020211935,-0.00075149536,0.00012207031,0.0001373291,-0.00016784668
-0.0122671295,0.0036575936,-0.20250772,-0.020339966,-0.24789429,9.804352,-5.3390503,16.48407,-43.94989,-0.021521993,-0.25012112,9.803436,-0.0004935004,0.0008266568,-0.00017929077,0.00012207031,7.6293945e-05,0.0
-0.012224879,0.0036150042,-0.2023758,-0.020095825,-0.25053406,9.805313,-6.02417,15.640259,-44.395447,-0.020905474,-0.24913785,9.803462,0.0017578546,0.0015134364,-0.00061130524,0.0,0.0001373291,-0.00016784668
-0.0122351395,0.0036204443,-0.20239525,-0.021530151,-0.25100708,9.804825,-5.1696777,15.045166,-44.77997,-0.020964265,-0.2493569,9.803456,0.00015355647,-0.0013789386,7.343292e-05,0.00030517578,7.6293945e-05,-0.00016784668
-0.012266347,0.003642665,-0.20246898,-0.022735596,-0.25076294,9.801483,-5.3634644,16.125488,-45.004272,-0.021248288,-0.25004596,9.803438,-4.9725175e-05,-0.0011669397,0.00084495544,0.0,0.0001373291,-0.00010681152
-0.012261976,0.0036691802,-0.2025347,-0.022262573,-0.25053406,9.804825,-5.8135986,16.668701,-43.666077,-0.021758096,-0.25006875,9.803437,-0.00073220767,-0.0011692345,-0.001999855,0.00018310547,7.6293945e-05,-0.00016784668
-0.012252006,0.0036936514,-0.2025922,-0.024414062,-0.2498169,9.804596,-5.7754517,15.649414,-43.423462,-0.022253005,-0.24997582,9.803439,-0.0007250719,0.00017756224,0.00042629242,6.1035156e-05,7.6293945e-05,-0.00016784668
-0.012256399,0.0037418732,-0.20271832,-0.023925781,-0.24980164,9.803162,-5.622864,15.440369,-43.321228,-0.02312939,-0.25025472,9.80343,-0.0005664546,-0.0004968047,-0.00071525574,0.00012207031,0.0001373291,-0.00016784668
-0.012220682,0.0037792968,-0.20279525,-0.021774292,-0.24909973,9.804352,-5.609131,15.809631,-43.621826,-0.023970501,-0.24971953,9.803441,-0.00044364482,0.00014591217,-0.0009622574,0.00018310547,0.00038146973,-0.00022888184
-0.012221339,0.0037398164,-0.20269428,-0.022018433,-0.25291443,9.804108,-5.895996,14.920044,-44.395447,-0.023235451,-0.24957277,9.803447,0.002424067,0.00026139617,0.0014343262,6.1035156e-05,0.0001373291,-0.0004272461
-0.0122686755,0.0037500134,-0.20274578,-0.019866943,-0.25125122,9.805069,-5.519104,16.033936,-43.658447,-0.023229865,-0.25052345,9.803422,0.0009841975,-0.0019001961,-9.536743e-06,6.1035156e-05,0.00032043457,-0.00016784668
-0.012282585,0.003702045,-0.20263009,-0.022735596,-0.2514801,9.8033905,-5.784607,15.583801,-44.34204,-0.02228296,-0.25059718,9.803422,0.00241814,-0.0006301701,0.0004682541,-6.1035156e-05,-4.5776367e-05,-0.00010681152
-0.012309496,0.0037084257,-0.20266087,-0.022735596,-0.25004578,9.803635,-5.8303833,16.381836,-44.252014,-0.022290628,-0.25114,9.803409,-0.00020031631,-0.0005784929,-0.0014333725,6.1035156e-05,7.6293945e-05,0.0
-0.012275565,0.0037398043,-0.20272326,-0.020812988,-0.24932861,9.803635,-6.0897827,16.004944,-44.69757,-0.023012169,-0.2506146,9.80342,-0.00068403035,0.0005764663,0.00016021729,6.1035156e-05,0.00019836426,-0.00018310547
-0.012265647,0.0036985218,-0.20261198,-0.020812988,-0.24932861,9.804825,-5.1254272,15.916443,-44.075012,-0.02228726,-0.25025752,9.803431,0.0019486044,0.001172483,0.0005893707,-0.00018310547,7.6293945e-05,-0.00022888184
-0.012274646,0.0036746669,-0.20255557,-0.02130127,-0.25125122,9.804596,-5.8547974,15.872192,-44.50531,-0.02180779,-0.2503343,9.80343,0.0012259353,-0.00017389655,0.00087070465,0.0,0.00019836426,-0.000289917
-0.012271605,0.00368275,-0.20257469,-0.020812988,-0.24932861,9.804352,-5.8044434,15.068054,-43.69049,-0.021970222,-0.25030848,9.8034315,0.0004271865,0.00028976798,0.000104904175,-6.1035156e-05,7.6293945e-05,-0.00022888184
-0.01226755,0.0036619578,-0.20251915,-0.021774292,-0.25004578,9.805069,-5.7373047,14.859009,-44.415283,-0.021601217,-0.25014678,9.803435,0.0010182764,0.000587523,-0.0010471344,6.1035156e-05,0.0001373291,-4.5776367e-05
-0.01225261,0.003683695,-0.20256695,-0.022018433,-0.25268555,9.801483,-5.9143066,16.151428,-43.540955,-0.022065837,-0.2499473,9.80344,-0.0004237853,0.00015115738,0.0005712509,0.0,0.0001373291,-0.00016784668
-0.012309767,0.0036788944,-0.2025852,-0.020812988,-0.25028992,9.805069,-5.644226,14.929199,-43.347168,-0.021741822,-0.25102615,9.803412,0.001158243,-0.002126336,-0.0012054443,0.00012207031,0.0001373291,-0.0004272461
-0.012286851,0.003687603,-0.20259531,-0.022491455,-0.25100708,9.804596,-5.302429,15.541077,-43.99109,-0.021997556,-0.25062096,9.803423,-1.9831583e-05,9.88245e-05,0.00046253204,0.00012207031,0.0001373291,-0.00010681152
-0.012280961,0.0037044764,-0.20263547,-0.023208618,-0.24885559,9.80603,-5.860901,15.727234,-44.5343,-0.022334741,-0.25057578,9.803423,8.937903e-05,0.00030776858,0.00078868866,-0.00018310547,0.00019836426,-0.00010681152
-0.012255864,0.0037154653,-0.20265025,-0.022247314,-0.25004578,9.803635,-5.305481,16.90979,-42.053223,-0.022641765,-0.25013793,9.803434,-9.072758e-05,0.0013166368,0.0010080338,0.0,0.0001373291,-4.5776367e-05
-0.01224944,0.0037163093,-0.20264898,-0.021530151,-0.2498169,9.806259,-6.5216064,14.935303,-42.330933,-0.022683842,-0.25001788,9.803437,0.0006685518,6.765127e-06,2.9563904e-05,0.00012207031,7.6293945e-05,0.0001373291
-0.012244296,0.0036999614,-0.20260426,-0.022491455,-0.24932861,9.802673,-6.0821533,16.072083,-43.928528,-0.02240174,-0.24985309,9.80344,0.0008752588,7.711351e-05,0.00049591064,-0.00012207031,0.00019836426,1.5258789e-05
-0.012257634,0.0037140069,-0.20264745,-0.020339966,-0.2524414,9.805313,-5.795288,15.440369,-44.74945,-0.022607438,-0.25016603,9.803433,0.00011750683,-0.00010702014,-0.0018930435,-0.00018310547,0.00019836426,-0.00010681152
-0.012282432,0.00370083,-0.2026269,-0.023208618,-0.24885559,9.804352,-6.5597534,16.181946,-43.73474,-0.022261057,-0.25058934,9.803422,0.00096203946,-0.00039240718,0.00065517426,6.1035156e-05,1.5258789e-05,-0.00016784668
-0.01224563,0.003710338,-0.20263161,-0.024642944,-0.24861145,9.806274,-6.42395,15.684509,-44.218445,-0.022588741,-0.2499206,9.80344,-0.0003729742,0.0006225556,0.0004310608,0.00012207031,7.6293945e-05,-0.00010681152
-0.012197694,0.0037458118,-0.20269701,-0.019851685,-0.2498169,9.80603,-6.4193726,15.83252,-44.415283,-0.023443913,-0.24914265,9.803457,-0.00096582435,0.0008212924,0.0012378693,0.00024414062,0.0002593994,-0.00016784668
-0.0122327935,0.003689705,-0.20257178,-0.024169922,-0.24932861,9.799332,-6.0928345,15.92865,-44.485474,-0.022258773,-0.24959075,9.803449,0.0028842725,-0.0008966476,3.2424927e-05,-6.1035156e-05,7.6293945e-05,-0.00016784668
-0.012211514,0.0037379356,-0.2026842,-0.022247314,-0.24861145,9.804352,-5.2001953,15.982056,-43.756104,-0.023240969,-0.24937639,9.803452,-0.0016459096,0.00027886033,-0.0034894943,6.1035156e-05,7.6293945e-05,6.1035156e-05
-0.012279729,0.0037042266,-0.20263417,-0.022979736,-0.25004578,9.803162,-6.3201904,16.203308,-44.04297,-0.022335168,-0.2505511,9.803423,0.0017535556,-0.0028236508,0.0017414093,-0.00012207031,1.5258789e-05,-0.00016784668
-0.012259242,0.0037031237,-0.20262037,-0.01890564,-0.25100708,9.805313,-6.575012,15.815735,-43.50586,-0.022398952,-0.25015303,9.803433,0.00038158707,0.0010652244,-0.0012273788,-6.1035156e-05,0.00019836426,-0.00010681152
-0.012276994,0.003666451,-0.20253573,-0.020095825,-0.24885559,9.804596,-5.760193,16.168213,-44.299316,-0.021645747,-0.2503463,9.80343,0.002497878,-0.0011116862,0.00077342987,0.00012207031,0.0002593994,-0.00022888184
-0.012263339,0.0036450482,-0.20247348,-0.022735596,-0.25268555,9.805069,-4.6661377,15.6692505,-45.803833,-0.021304859,-0.24999774,9.803439,0.00096697174,0.00069350004,0.0002002716,0.00012207031,7.6293945e-05,-0.00010681152
-0.012286097,0.0036763817,-0.20256609,-0.022018433,-0.25100708,9.806747,-6.2408447,16.131592,-43.90869,-0.02179253,-0.2505612,9.803424,-0.00094039924,-0.0016053915,0.0004453659,0.0,-4.5776367e-05,-0.00010681152
-0.012290177,0.003686533,-0.20259434,-0.022735596,-0.24957275,9.804108,-5.9066772,16.601562,-45.036316,-0.021964042,-0.25068057,9.803422,-5.029887e-05,-3.567338e-05,0.0012550354,0.0,7.6293945e-05,-4.5776367e-05
-0.012262237,0.0037033868,-0.20262265,-0.02368164,-0.24909973,9.804596,-4.5654297,15.957642,-44.618225,-0.022391517,-0.25021166,9.803432,-0.0008129068,0.0011740625,4.4822693e-05,-0.00012207031,0.0001373291,-0.00016784668
-0.0122582605,0.003726381,-0.20267954,-0.022491455,-0.24957275,9.8033905,-5.2627563,16.416931,-43.89038,-0.022834381,-0.25022796,9.803431,-0.00037067942,0.00045004487,-0.00060653687,-6.1035156e-05,7.6293945e-05,-4.5776367e-05
-0.012250572,0.0037283092,-0.20268038,-0.020812988,-0.25004578,9.804596,-4.8568726,16.441345,-43.751526,-0.022901766,-0.25008804,9.803434,0.00041246973,0.00030997396,-0.0011968613,0.00012207031,0.0001373291,-0.00010681152
-0.01222793,0.00369486,-0.20258242,-0.024642944,-0.25076294,9.8033905,-5.5358887,15.6692505,-43.955994,-0.022374388,-0.24951808,9.80345,0.0015632939,0.00043947995,-0.00017261505,0.0,0.0001373291,-0.00010681152
-0.012232363,0.0037586028,-0.20274839,-0.022735596,-0.25196838,9.805069,-6.0287476,15.414429,-43.460083,-0.02353858,-0.2498604,9.803438,-0.001820391,-0.0011346191,-0.000749588,0.00012207031,7.6293945e-05,-0.00012207031
-0.012286683,0.0037273339,-0.2026972,-0.021057129,-0.25125122,9.808899,-5.9509277,15.579224,-45.091248,-0.022735147,-0.2507779,9.803416,0.0016806107,-0.0016349256,0.0012521744,0.00018310547,1.5258789e-05,7.6293945e-05
-0.012278662,0.0037132245,-0.2026567,-0.021774292,-0.24957275,9.804596,-5.532837,15.739441,-43.563843,-0.02250645,-0.2505669,9.803423,0.0007386096,-0.0003683269,0.0033826828,6.1035156e-05,0.0001373291,-4.5776367e-05
-0.0122572575,0.0037132462,-0.2026453,-0.021774292,-0.24885559,9.8033905,-5.1223755,16.067505,-44.57245,-0.022594878,-0.25015572,9.803433,0.0003520269,0.0006323755,-0.0017347336,0.0,0.0001373291,1.5258789e-05
-0.012237814,0.0036953047,-0.20258884,-0.022491455,-0.24957275,9.80603,-6.17218,15.7699585,-43.380737,-0.02234201,-0.24970978,9.803445,0.0010445341,0.0011407286,-0.0005130768,-0.00018310547,7.6293945e-05,7.6293945e-05
-0.012248708,0.0037060021,-0.20262213,-0.019622803,-0.25172424,9.8033905,-5.3634644,15.898132,-43.692017,-0.02249566,-0.24996223,9.803438,-0.00023578294,0.00019147992,0.00029468536,-6.1035156e-05,7.6293945e-05,0.00018310547
-0.012281259,0.0036758978,-0.20256226,-0.021530151,-0.24909973,9.806992,-5.857849,15.79895,-44.52057,-0.021803442,-0.25046632,9.803427,0.0016953964,-0.0012230277,-0.00091457367,0.0,7.6293945e-05,-0.00010681152
-0.012260296,0.003675485,-0.20255,-0.023452759,-0.25028992,9.804825,-5.2963257,15.686035,-44.11316,-0.02188195,-0.25006187,9.803436,0.00011195801,0.00078240037,0.0011396408,0.0,7.6293945e-05,-0.00010681152
-0.012256586,0.0036905063,-0.20258656,-0.019866943,-0.25100708,9.807709,-6.100464,15.78064,-44.439697,-0.022175835,-0.25005114,9.803437,-6.788783e-05,0.0002747476,-0.0006723404,0.0,0.0001373291,-4.5776367e-05
-0.012273203,0.0036833005,-0.20257695,-0.020812988,-0.25076294,9.803635,-6.3308716,15.908813,-43.951416,-0.021973865,-0.25034136,9.80343,0.0011657383,-0.00061032176,0.0011491776,0.00012207031,0.00019836426,-4.5776367e-05
-0.012296621,0.0036645054,-0.20254123,-0.023208618,-0.25053406,9.806259,-5.102539,16.27655,-43.24646,-0.021528995,-0.25071558,9.803421,0.0011929031,-0.0009635389,-0.0008325577,-0.00012207031,7.6293945e-05,0.00018310547
-0.0122732045,0.0036947895,-0.20260645,-0.019866943,-0.25291443,9.805069,-5.0842285,16.944885,-44.69757,-0.022186961,-0.25038773,9.803429,-0.0010165051,0.000628978,0.001042366,0.00012207031,1.5258789e-05,-4.5776367e-05
-0.0123161115,0.0036765677,-0.20258263,-0.021774292,-0.2514801,9.803879,-5.130005,15.922546,-44.752502,-0.02167259,-0.2511387,9.803411,0.0013372283,-0.0014935136,-0.00042438507,-6.1035156e-05,0.0001373291,0.00012207031
-0.012336692,0.003619451,-0.20244697,-0.021530151,-0.25196838,9.8033905,-5.407715,16.770935,-43.58673,-0.0205287,-0.25130412,9.803408,0.0018738732,-0.00033846498,0.0032663345,0.00012207031,7.6293945e-05,-4.5776367e-05
-0.012327898,0.003636643,-0.20248641,-0.022491455,-0.24957275,9.80722,-6.489563,16.19873,-45.095825,-0.020883685,-0.25120437,9.803411,-0.0011298787,-0.00046131015,-0.0018167496,0.00030517578,-4.5776367e-05,-0.00016784668
-0.01227821,0.0036508325,-0.20249629,-0.02368164,-0.25172424,9.806274,-6.2942505,16.864014,-44.589233,-0.021351043,-0.2503068,9.8034315,-0.0006606374,0.00081318617,0.0016498566,6.1035156e-05,1.5258789e-05,1.5258789e-05
-0.012280458,0.0036942023,-0.20260882,-0.021774292,-0.24932861,9.806976,-5.381775,15.611267,-44.50226,-0.022146247,-0.2505247,9.803425,-0.001529105,-0.0006553829,-0.00065135956,6.1035156e-05,1.5258789e-05,-4.5776367e-05
-0.01226981,0.0036990375,-0.20261554,-0.022018433,-0.25125122,9.806747,-5.192566,16.279602,-44.374084,-0.02227971,-0.2503396,9.803429,3.912486e-05,0.00012528896,0.00035762787,6.1035156e-05,1.5258789e-05,0.0001373291
-0.012279252,0.0036844136,-0.20258304,-0.020584106,-0.25004578,9.802429,-6.4071655,16.201782,-45.021057,-0.021969646,-0.25046209,9.803427,0.0006747525,-0.0004723072,-0.0002412796,0.00012207031,0.0001373291,-0.00010681152
-0.012262859,0.003669953,-0.20253716,-0.022735596,-0.25219727,9.806503,-6.5826416,15.823364,-44.561768,-0.021768799,-0.25008884,9.803436,0.00047188066,0.0003219545,-0.0017614365,0.00012207031,1.5258789e-05,-6.1035156e-05
-0.012283542,0.0037008952,-0.20262766,-0.022247314,-0.25076294,9.805542,-5.508423,16.404724,-44.410706,-0.022257702,-0.25061095,9.803422,-0.00047256798,-0.0012975037,0.0007362366,-6.1035156e-05,1.5258789e-05,-0.00010681152
-0.01229329,0.0037037844,-0.2026403,-0.021774292,-0.2514801,9.805069,-5.743408,16.534424,-44.226074,-0.022271201,-0.2508099,9.803417,2.8705224e-05,-0.0008600652,-0.00046920776,0.00018310547,0.0001373291,-4.5776367e-05
-0.012305202,0.0036983707,-0.20263277,-0.021774292,-0.2514801,9.807465,-5.253601,16.712952,-44.20929,-0.02212181,-0.25101694,9.803412,0.00059628487,-0.0004106462,-0.00014972687,0.0,1.5258789e-05,1.5258789e-05
-0.01231226,0.0036948922,-0.20262761,-0.020812988,-0.25172424,9.803162,-6.034851,15.193176,-43.276978,-0.022028273,-0.25113854,9.80341,1.5771016e-05,-0.00027397275,0.0011720657,0.0,-4.5776367e-05,0.0001373291
-0.01231091,0.0036696428,-0.20256206,-0.01890564,-0.24932861,9.805542,-6.2805176,17.077637,-44.018555,-0.021565538,-0.25101084,9.803413,0.0012301337,-0.0001873076,-0.0011348724,0.00012207031,1.5258789e-05,-4.5776367e-05
-0.012277522,0.003611068,-0.20239383,-0.02130127,-0.24957275,9.804352,-6.0775757,16.139221,-43.460083,-0.02061627,-0.2501335,9.803437,0.0017139856,0.0010745227,-0.00092601776,0.00024414062,7.6293945e-05,0.0001373291
-0.012258038,0.0036159127,-0.20239586,-0.02130127,-0.25196838,9.803162,-6.4819336,16.04004,-43.46466,-0.02078616,-0.24977863,9.803446,-0.00026756525,2.6077032e-06,1.8119812e-05,0.00012207031,1.5258789e-05,0.0001373291
-0.012284962,0.0036494099,-0.20249625,-0.021774292,-0.2498169,9.803879,-6.651306,16.036987,-44.29016,-0.021296915,-0.2504308,9.803429,-0.0004753992,-0.0012702048,-0.0014219284,0.0,0.00019836426,1.5258789e-05
-0.012268739,0.003655538,-0.2025033,-0.020584106,-0.25196838,9.802673,-5.126953,15.768433,-43.499756,-0.021477249,-0.25014374,9.803435,0.00042159297,0.00011509657,-0.00047302246,0.00012207031,7.6293945e-05,0.00030517578
-0.012289127,0.0036710957,-0.20255414,-0.02130127,-0.25268555,9.805786,-5.986023,16.593933,-44.880676,-0.021682031,-0.25059816,9.803424,-9.1800466e-05,-0.0011207759,-0.0009584427,-6.1035156e-05,0.00019836426,0.00030517578
-0.012352666,0.0036753383,-0.20259902,-0.02130127,-0.25291443,9.805069,-6.50177,15.757751,-44.50226,-0.021499487,-0.25183606,9.803392,0.000916766,-0.0020234287,0.00080013275,0.0,7.6293945e-05,-0.00010681152
-0.012356741,0.0036820404,-0.20261842,-0.020812988,-0.25076294,9.806259,-6.063843,16.508484,-43.840027,-0.021607008,-0.25194138,9.80339,0.00030826405,-0.00094357133,0.0010061264,0.00012207031,-4.5776367e-05,7.6293945e-05
-0.012334672,0.0036636188,-0.2025593,-0.019622803,-0.25219727,9.804825,-6.349182,15.696716,-45.051575,-0.021356134,-0.25144312,9.803403,0.0005470384,0.001199007,0.0013132095,-6.1035156e-05,0.0001373291,-0.00022888184
-0.012345821,0.003631265,-0.2024822,-0.020339966,-0.24932861,9.8033905,-6.059265,16.5802,-43.748474,-0.020710288,-0.25152707,9.803402,0.001334982,-0.00015640259,-0.00039577484,0.0,7.6293945e-05,-0.00010681152
-0.012309297,0.0036214606,-0.20243749,-0.021774292,-0.25125122,9.806259,-5.783081,15.733337,-44.839478,-0.020678524,-0.25078583,9.80342,0.00034160167,0.001021117,-0.00026798248,0.00018310547,1.5258789e-05,-0.00010681152
-0.012310116,0.0036505992,-0.20251274,-0.01914978,-0.2524414,9.805313,-6.4208984,17.35382,-43.04962,-0.021215603,-0.25091887,9.803416,-0.0010277387,-0.00028535724,0.00077724457,-6.1035156e-05,7.6293945e-05,-0.000289917
-0.012343897,0.0036132457,-0.2024349,-0.020812988,-0.25053406,9.804825,-5.6793213,16.17279,-44.300842,-0.020384012,-0.25141758,9.803405,0.0012372769,-0.00074213743,-0.0007619858,-6.1035156e-05,-0.00021362305,-4.5776367e-05
-0.012314337,0.003609224,-0.20240876,-0.019866943,-0.25125122,9.808426,-5.9677124,15.289307,-45.526123,-0.020430861,-0.25083345,9.80342,0.0010561589,0.0010804236,0.00046539307,0.00024414062,0.0002593994,1.5258789e-05
-0.012327949,0.0036117244,-0.20242245,-0.020812988,-0.25315857,9.805069,-5.805969,16.9693,-44.511414,-0.02042132,-0.25110504,9.803413,0.00055952556,-0.0015171766,0.0011062622,0.00012207031,0.0001373291,1.5258789e-05
-0.012345134,0.0036152133,-0.2024406,-0.019866943,-0.25196838,9.805313,-6.0180664,15.788269,-44.36493,-0.020415423,-0.2514493,9.803405,-0.00016341172,-0.00092718005,9.441376e-05,6.1035156e-05,-4.5776367e-05,1.5258789e-05
-0.012352236,0.0036205351,-0.20245807,-0.020812988,-0.2507782,9.805313,-5.11322,16.285706,-44.5282,-0.02048494,-0.25160715,9.803401,0.00039363094,-6.16014e-05,-0.0007381439,-0.00012207031,7.6293945e-05,7.6293945e-05
-0.012332371,0.0036233,-0.20245455,-0.02130127,-0.25315857,9.808182,-4.9346924,16.73584,-44.670105,-0.020617839,-0.25123662,9.803411,-0.00043458864,-0.0002014637,0.00014019012,0.00030517578,-4.5776367e-05,1.5258789e-05
-0.012341419,0.0036511528,-0.2025309,-0.021774292,-0.25004578,9.804596,-4.9194336,16.950989,-44.023132,-0.02109721,-0.25152257,9.803402,-0.00042662956,-0.00084358454,0.001373291,0.0,0.0002593994,6.1035156e-05
-0.012314401,0.0036750052,-0.2025777,-0.022018433,-0.25100708,9.806274,-5.923462,16.08429,-44.384766,-0.021650642,-0.25109953,9.8034115,-0.00036261976,0.0011137426,-0.001156807,-6.1035156e-05,7.6293945e-05,-0.00010681152
-0.012318121,0.0036829442,-0.20260008,-0.021057129,-0.25315857,9.806992,-5.36499,15.977478,-44.50531,-0.021782584,-0.251203,9.803409,0.00025820173,-0.00045472383,0.00049877167,0.0,0.00019836426,-0.00022888184
-0.012341682,0.003684416,-0.20261645,-0.018661499,-0.25219727,9.807938,-4.91333,15.353394,-44.65027,-0.02171299,-0.2516616,9.803396,0.0008914117,-0.00070253015,0.0008134842,0.0,0.00019836426,1.5258789e-05
-0.012356472,0.0036506087,-0.20253757,-0.022247314,-0.25172424,9.803635,-4.9362183,16.58783,-44.247437,-0.021025239,-0.2518096,9.803394,0.0023706052,-0.000305444,0.00038051605,6.1035156e-05,0.0002593994,-4.5776367e-05
-0.012344456,0.0036797922,-0.20260607,-0.019866943,-0.24885559,9.805069,-5.3512573,16.267395,-44.143677,-0.021615837,-0.2516963,9.803396,-0.000870388,3.296137e-05,-0.001660347,-6.1035156e-05,7.6293945e-05,7.6293945e-05
-0.012311927,0.0036544,-0.20252347,-0.022964478,-0.25291443,9.806747,-6.4193726,15.83252,-44.340515,-0.02127865,-0.25096896,9.803414,0.0011879429,0.0014565885,1.2397766e-05,6.1035156e-05,7.6293945e-05,1.5258789e-05
-0.0123145785,0.0036949653,-0.20262904,-0.022018433,-0.25076294,9.803879,-5.5160522,16.181946,-44.154358,-0.02202009,-0.25118336,9.803408,-0.0011819545,-0.00022172928,0.0011301041,6.1035156e-05,7.6293945e-05,-4.5776367e-05
-0.012307374,0.0036983797,-0.20263395,-0.022491455,-0.25291443,9.802673,-4.7821045,16.299438,-43.556213,-0.022113046,-0.2510587,9.803411,-0.00013096072,8.916855e-05,-0.0029211044,-0.00012207031,7.6293945e-05,-0.00010681152
-0.012359175,0.0037048708,-0.20267834,-0.020095825,-0.25315857,9.8033905,-6.9396973,16.896057,-44.706726,-0.022020359,-0.25208017,9.803386,0.0004922636,-0.002016157,-0.0011539459,0.00012207031,0.0001373291,0.00018310547
-0.012366026,0.0037027902,-0.20267665,-0.021530151,-0.25315857,9.8033905,-5.654907,16.836548,-45.072937,-0.02195359,-0.2522034,9.803382,0.00042481907,-0.00046628714,-0.0006084442,0.0,1.5258789e-05,-4.5776367e-05
-0.0123855695,0.0037091933,-0.20270357,-0.022491455,-0.2514801,9.804596,-5.9906006,16.29486,-43.80951,-0.02199191,-0.25260472,9.803371,0.0004625395,-0.0007890165,-0.0005578995,6.1035156e-05,0.0001373291,-4.5776367e-05
-0.012357425,0.0037082692,-0.20268613,-0.021774292,-0.25268555,9.809372,-5.1956177,16.20636,-44.46411,-0.022090567,-0.25206023,9.803385,0.00056199916,0.0010712147,0.00073719025,0.0,7.6293945e-05,1.5258789e-05
-0.012344041,0.0037133698,-0.20269206,-0.021774292,-0.24932861,9.803162,-5.3604126,16.19873,-44.989014,-0.022240218,-0.25182363,9.8033905,-1.7123297e-05,-0.0003143847,0.0032014847,6.1035156e-05,0.0001373291,-0.00010681152
-0.012339812,0.0036665373,-0.20256954,-0.017944336,-0.25364685,9.805313,-5.4382324,16.114807,-44.247437,-0.021389121,-0.25155362,9.803399,0.0012964662,0.0005838275,-0.0016908646,6.1035156e-05,-0.00010681152,-4.5776367e-05
-0.01234485,0.0036324046,-0.2024846,-0.022018433,-0.2534027,9.802673,-6.4102173,16.052246,-44.52362,-0.02073541,-0.251513,9.803402,0.0013604835,-0.000638932,0.0006170273,6.1035156e-05,7.6293945e-05,1.5258789e-05
-0.012382787,0.0036568213,-0.20256759,-0.021057129,-0.25172424,9.804352,-5.2749634,16.200256,-44.16046,-0.021032253,-0.2523402,9.80338,-0.00049568526,-0.0007918179,-0.0014944077,-0.00015258789,-0.00015258789,-0.00022888184
-0.012398859,0.0036543175,-0.20256975,-0.021057129,-0.25196838,9.803635,-6.6574097,15.890503,-44.39392,-0.02091974,-0.2526389,9.803372,-0.00037918426,-0.00024721026,0.00012493134,-9.1552734e-05,3.0517578e-05,1.5258789e-05
-0.01237194,0.0036576702,-0.20256397,-0.022262573,-0.25196838,9.803162,-4.8980713,17.46521,-44.37256,-0.021092596,-0.25213522,9.803386,-0.00020745955,0.0013867915,-0.0010328293,3.0517578e-05,3.0517578e-05,7.6293945e-05
-0.012377464,0.003668871,-0.20259568,-0.021774292,-0.25196838,9.80603,-5.6793213,16.174316,-44.300842,-0.02127758,-0.25228646,9.803381,-0.00049638934,-0.00086829066,-0.00085639954,0.00015258789,3.0517578e-05,-6.1035156e-05
-0.012332497,0.003689456,-0.20262448,-0.02130127,-0.25268555,9.80603,-5.773926,15.95459,-45.022583,-0.021844234,-0.25150543,9.8034,0.00031936727,0.0010322332,0.0026540756,9.1552734e-05,9.1552734e-05,-4.5776367e-05
-0.012363488,0.003679708,-0.20261604,-0.02130127,-0.2524414,9.803879,-5.3344727,16.708374,-44.43512,-0.021536013,-0.2520616,9.803387,0.00048554502,-0.0012631714,0.0012903214,-9.1552734e-05,-3.0517578e-05,0.00019836426
-0.01235563,0.0036806294,-0.20261419,-0.020095825,-0.25028992,9.804352,-5.355835,16.117859,-43.948364,-0.021585414,-0.25191435,9.8033905,-0.00018496439,0.00070878863,-0.0024938583,-3.0517578e-05,3.0517578e-05,-4.5776367e-05
-0.012360698,0.0036484755,-0.20253435,-0.021057129,-0.25172424,9.803162,-5.496216,16.696167,-44.277954,-0.020968307,-0.25188217,9.803391,0.0013487171,0.00019651651,-0.0005426407,9.1552734e-05,-9.1552734e-05,7.6293945e-05
-0.0123450495,0.0036402852,-0.20250495,-0.020095825,-0.25004578,9.804825,-5.6671143,16.314697,-43.59436,-0.020880742,-0.25154856,9.803401,-0.00017427467,0.0008110702,-0.0010023117,-0.00015258789,9.1552734e-05,-0.00010681152
-0.012322057,0.0036316498,-0.20247047,-0.022018433,-0.25196838,9.805313,-5.1651,16.786194,-43.59436,-0.02081508,-0.25107202,9.803413,0.0004780069,0.00081697106,0.0007658005,9.1552734e-05,-3.0517578e-05,1.5258789e-05
-0.012313346,0.0036535657,-0.20252208,-0.023925781,-0.25076294,9.80603,-5.4138184,16.70227,-44.27948,-0.021257345,-0.2509929,9.803414,-0.0010017101,2.7358532e-05,0.0005197525,-9.1552734e-05,-3.0517578e-05,-0.00022888184
-0.0123239085,0.003688282,-0.20261687,-0.024169922,-0.25219727,9.806274,-6.5231323,16.984558,-43.571472,-0.02185778,-0.25133568,9.803404,-0.001590604,-0.000582397,0.00066280365,0.00015258789,-3.0517578e-05,-0.00016784668
-0.012299348,0.0037255455,-0.2026994,-0.021057129,-0.24932861,9.803635,-6.161499,16.139221,-44.21234,-0.02264988,-0.25101405,9.8034115,-0.001515368,-0.00041425228,0.0001077652,0.00015258789,-3.0517578e-05,-0.00047302246
-0.012279273,0.0036898681,-0.20259707,-0.021057129,-0.24742126,9.805313,-5.354309,16.116333,-43.722534,-0.022070728,-0.25048447,9.803426,0.0012614448,0.0011979043,-0.0007200241,-3.0517578e-05,9.1552734e-05,-0.00016784668
-0.012240515,0.0036867599,-0.20256835,-0.020339966,-0.2524414,9.804352,-6.1431885,16.5802,-44.273376,-0.022172403,-0.24972726,9.803446,0.00015745498,0.0018722266,-0.00016117096,9.1552734e-05,9.1552734e-05,7.6293945e-05
-0.01227944,0.0036554788,-0.20250887,-0.024169922,-0.25100708,9.804596,-6.3339233,15.759277,-43.377686,-0.021432184,-0.25034913,9.8034315,0.0018121507,-0.0018157959,-0.0005903244,-9.1552734e-05,3.0517578e-05,-0.00018310547
-0.012291239,0.0037009635,-0.20263195,-0.022491455,-0.25004578,9.803635,-6.1325073,16.874695,-44.592285,-0.022227319,-0.2507591,9.803418,-0.0019401498,-0.00069335103,-0.00039291382,-3.0517578e-05,-0.00015258789,1.5258789e-05
-0.012275842,0.0036844907,-0.20258142,-0.022735596,-0.25028992,9.80603,-4.798889,16.088867,-44.58313,-0.021985093,-0.25039688,9.803429,-0.00050444156,0.001319021,-0.00042057037,-9.1552734e-05,-9.1552734e-05,0.0001373291
-0.012275789,0.0036999334,-0.20262104,-0.022018433,-0.24885559,9.805069,-4.7927856,16.233826,-44.62738,-0.022271743,-0.25045812,9.803427,-0.00021607243,-0.0007521808,0.0014753342,3.0517578e-05,-9.1552734e-05,0.0
-0.012258083,0.0036767954,-0.20255217,-0.022018433,-0.25172424,9.803635,-5.580139,16.467285,-43.64319,-0.021915354,-0.25002462,9.803437,-9.932928e-05,0.0019289553,0.00019836426,-0.00015258789,-0.00032043457,6.1035156e-05
-0.012294302,0.0036561165,-0.20251845,-0.020828247,-0.24861145,9.8029175,-4.5654297,15.805054,-43.891907,-0.02138293,-0.25063726,9.803424,-0.0006334055,-0.0013065338,-0.0014677048,-3.0517578e-05,-0.00021362305,1.5258789e-05
-0.012275221,0.0036480608,-0.20248757,-0.022979736,-0.25053406,9.805542,-6.0562134,16.654968,-43.88733,-0.021311918,-0.25023818,9.803433,0.00025630184,0.0014003515,-0.00049495697,-3.0517578e-05,-3.0517578e-05,6.1035156e-05
-0.012261772,0.0036645131,-0.20252262,-0.022018433,-0.25125122,9.8033905,-5.482483,16.989136,-44.371033,-0.021672362,-0.25004604,9.803438,-0.0010613538,2.1964312e-05,0.0003080368,3.0517578e-05,-3.0517578e-05,1.5258789e-05
-0.012290572,0.0036705087,-0.2025534,-0.022491455,-0.24909973,9.805313,-6.5490723,16.55426,-44.49005,-0.021665204,-0.25062355,9.803423,-0.00035039894,-0.0008238256,0.0008382797,-0.00015258789,-3.0517578e-05,-0.00010681152
-0.012284428,0.0036818108,-0.20257914,-0.01890564,-0.24957275,9.80603,-6.3476562,15.69519,-44.900513,-0.021900093,-0.25055107,9.803426,-0.0005896613,0.0005247593,-0.0010251999,-3.0517578e-05,3.0517578e-05,-0.00018310547
-0.012262786,0.0036286649,-0.20243113,-0.01914978,-0.24957275,9.804596,-5.522156,16.111755,-44.622803,-0.021003224,-0.24992119,9.803443,0.0023447964,0.0013462901,0.0013828278,-9.1552734e-05,-3.0517578e-05,-0.00018310547
-0.012266666,0.0036068368,-0.20237716,-0.023208618,-0.25172424,9.804108,-5.131531,15.69519,-43.74237,-0.020582367,-0.2499079,9.803443,0.00024587475,0.00013315678,0.00044441223,-3.0517578e-05,-0.00015258789,-4.5776367e-05
-0.012322837,0.0036382666,-0.20248789,-0.020339966,-0.2514801,9.805786,-5.2352905,15.481567,-45.292664,-0.020934595,-0.25111362,9.8034115,0.00012568384,-0.0008058548,0.0014257431,9.1552734e-05,-3.0517578e-05,-0.00010681152
-0.012305905,0.003638827,-0.20248027,-0.020095825,-0.25076294,9.804825,-6.149292,16.433716,-44.303894,-0.02101457,-0.25079057,9.80342,0.00018989109,7.021427e-05,-0.0004892349,0.00015258789,-3.0517578e-05,-4.5776367e-05
-0.012323143,0.0036196404,-0.20244022,-0.022491455,-0.2536316,9.807938,-4.7698975,16.668701,-44.161987,-0.020587882,-0.25104457,9.803415,0.00072476827,-0.0006329715,0.00030326843,-9.1552734e-05,3.0517578e-05,-4.5776367e-05
-0.0123639945,0.0036780376,-0.20261201,-0.022018433,-0.25387573,9.8033905,-4.8553467,16.667175,-44.763184,-0.021502951,-0.25206462,9.803387,-0.0019439496,-0.0014983118,0.0016517639,-3.0517578e-05,-3.0517578e-05,1.5258789e-05
-0.012375041,0.0036874246,-0.20264202,-0.019378662,-0.2514801,9.803146,-5.3222656,17.001343,-44.599915,-0.021631582,-0.2523147,9.80338,-0.00013929047,-0.0005598366,-0.0022563934,3.0517578e-05,3.0517578e-05,7.6293945e-05
-0.012379203,0.0036295098,-0.20249553,-0.019866943,-0.2514801,9.803879,-4.71344,16.16211,-44.2688,-0.020540543,-0.25216138,9.803386,0.0013927575,0.00021746755,-0.0011911392,0.00015258789,-0.0002593994,0.00030517578
-0.012383299,0.0036010074,-0.20242453,-0.020095825,-0.25100708,9.805069,-5.606079,16.111755,-44.921875,-0.01999516,-0.2521254,9.803388,0.00013016723,-4.7266483e-05,7.6293945e-06,-0.00015258789,-0.0002593994,0.00030517578
-0.012340666,0.0036004053,-0.2024002,-0.020095825,-0.24836731,9.806992,-6.3476562,15.77301,-45.262146,-0.02015915,-0.25130388,9.80341,-0.0004228633,0.0017572343,0.00016880035,-3.0517578e-05,-3.0517578e-05,0.00024414062
-0.012316102,0.0035749169,-0.20232162,-0.022491455,-0.2534027,9.80603,-5.1956177,15.977478,-43.22815,-0.019787284,-0.2507294,9.803424,0.00016871095,0.0012102723,0.0021886826,-3.0517578e-05,-9.1552734e-05,0.00018310547
-0.012346052,0.0036194746,-0.20245203,-0.019378662,-0.25315857,9.805069,-5.3237915,16.77246,-43.43872,-0.02049068,-0.25148407,9.803404,-0.0015233066,-0.0018640757,1.1444092e-05,0.00021362305,-9.1552734e-05,-4.5776367e-05
-0.012368275,0.003598065,-0.20240894,-0.020584106,-0.25219727,9.806992,-5.758667,16.090393,-43.78662,-0.020002326,-0.25182492,9.803395,0.00038405508,-0.00080356,0.00016880035,-9.1552734e-05,-0.00021362305,-6.1035156e-05
-0.012393401,0.003590365,-0.20240259,-0.019378662,-0.25506592,9.80603,-5.6137085,17.48352,-43.35785,-0.019756308,-0.25227672,9.803385,0.00013891794,-0.00033971667,0.0009212494,-0.00015258789,-3.0517578e-05,1.5258789e-05
-0.012434696,0.0036124643,-0.20248143,-0.01890564,-0.25268555,9.803635,-5.9906006,16.371155,-44.322205,-0.019996386,-0.25315902,9.803362,-0.0008124169,-0.0013808906,-0.0013055801,-3.0517578e-05,-9.1552734e-05,6.1035156e-05
-0.012437165,0.0035667482,-0.20236532,-0.020584106,-0.2534027,9.803879,-6.776428,16.75415,-43.98651,-0.019138595,-0.2530226,9.803366,0.00071007386,-8.1807375e-05,9.250641e-05,0.00015258789,-0.00021362305,6.1035156e-05
-0.0124425115,0.0036002323,-0.2024542,-0.020812988,-0.25196838,9.805557,-5.9051514,16.447449,-43.936157,-0.019737465,-0.25326,9.80336,-0.0010723528,-0.0003308952,-0.0010557175,-9.1552734e-05,3.0517578e-05,7.6293945e-05
-0.012385446,0.0036134422,-0.2024576,-0.02368164,-0.25028992,9.806274,-6.060791,16.659546,-44.337463,-0.020216933,-0.2522167,9.803386,-0.0010812096,0.0017369092,-7.6293945e-05,9.1552734e-05,-3.0517578e-05,-6.1035156e-05
-0.012356808,0.00365438,-0.20254742,-0.02154541,-0.25076294,9.804596,-6.187439,15.6311035,-44.692993,-0.021093797,-0.25183123,9.803393,-0.0023549013,0.00039961934,0.000749588,0.00015258789,-0.0002593994,-0.00010681152
-0.012338729,0.0036394405,-0.20249939,-0.022491455,-0.25076294,9.804108,-6.227112,16.42456,-43.850708,-0.020891057,-0.25142372,9.803405,6.665476e-05,0.00093594193,-0.00014019012,-0.00015258789,-3.0517578e-05,6.1035156e-05
-0.0123429075,0.0036710585,-0.2025828,-0.023208618,-0.25172424,9.805786,-5.444336,16.046143,-44.56482,-0.021460243,-0.25163135,9.803398,-0.0015007239,-5.170703e-05,-0.00040626526,-9.1552734e-05,-3.0517578e-05,1.5258789e-05
-0.012325774,0.0037050943,-0.20266104,-0.023208618,-0.25125122,9.806503,-6.1065674,15.637207,-44.696045,-0.022161895,-0.2514393,9.803401,-0.0010423306,0.00048205256,0.0006866455,3.0517578e-05,3.0517578e-05,0.0001373291
-0.012320094,0.003720668,-0.20269798,-0.023208618,-0.25076294,9.8029175,-4.547119,16.474915,-45.417786,-0.022474075,-0.251393,9.803402,-0.0007295683,0.00019741058,0.00045871735,-3.0517578e-05,3.0517578e-05,1.5258789e-05
-0.012315714,0.0037223226,-0.20269988,-0.022018433,-0.25196838,9.805313,-5.6625366,16.539001,-44.30237,-0.022522781,-0.25131547,9.803403,-0.0004549343,0.0005750656,-0.0025701523,-0.00015258789,-9.1552734e-05,-0.00010681152
-0.012321806,0.0037338533,-0.20273274,-0.019378662,-0.25219727,9.804108,-6.1065674,15.562439,-44.332886,-0.022711556,-0.25147906,9.803399,-0.00026553124,1.3023615e-05,0.0005273819,3.0517578e-05,-3.0517578e-05,7.6293945e-05
-0.01235005,0.0036866746,-0.20262673,-0.021774292,-0.25411987,9.803635,-5.3619385,16.123962,-44.85321,-0.021720465,-0.25183147,9.803391,0.0025730897,-0.00058206916,-0.00012493134,-3.0517578e-05,0.00021362305,-0.00018310547
-0.012398591,0.0036921022,-0.20266664,-0.022735596,-0.25411987,9.804825,-5.430603,16.334534,-44.052124,-0.021621434,-0.252786,9.803368,0.0003221687,-0.0017834604,-0.0003976822,-0.00015258789,3.0517578e-05,0.0001373291
-0.012411396,0.0037082774,-0.20271504,-0.020584106,-0.2534027,9.805557,-6.011963,15.856934,-44.0506,-0.021868652,-0.25309724,9.803359,-0.00037620962,-0.00075009465,0.00036525726,0.00015258789,3.0517578e-05,-4.5776367e-05
-0.012410456,0.0036829128,-0.2026494,-0.022491455,-0.2536316,9.801727,-5.46875,15.458679,-44.380188,-0.021402245,-0.25297695,9.803364,0.00034865923,-0.00013974309,0.0010442734,-3.0517578e-05,-0.00015258789,0.0001373291
-0.012410873,0.003708893,-0.20271634,-0.022247314,-0.25268555,9.804596,-5.6365967,15.30304,-44.406128,-0.021882216,-0.25308967,9.803359,-0.00060768053,-0.0002950132,-0.0018577576,0.00015258789,3.0517578e-05,-4.5776367e-05
-0.012409997,0.0037091307,-0.20271648,-0.020812988,-0.25268555,9.803879,-6.576538,15.818787,-44.03534,-0.021890232,-0.2530738,9.80336,-0.00012695044,-0.0003144443,-0.00028514862,9.1552734e-05,3.0517578e-05,6.1035156e-05
-0.012398265,0.0037024003,-0.20269291,-0.021774292,-0.25291443,9.802444,-5.4367065,16.189575,-44.306946,-0.021449594,-0.2524997,9.803375,0.0002845861,0.00039169192,-0.00019073486,3.0517578e-05,-3.0517578e-05,0.0001373291
-0.012362553,0.003691379,-0.2026455,-0.02130127,-0.25100708,9.805542,-5.670166,14.6484375,-44.91577,-0.021756273,-0.25209066,9.803385,-0.00025917403,0.0011181831,0.0022611618,-0.00015258789,3.0517578e-05,1.5258789e-05
-0.0123261595,0.0036646517,-0.2025574,-0.022491455,-0.2534027,9.804352,-5.506897,14.659119,-44.76776,-0.02141028,-0.25128374,9.803407,0.000111805275,0.0014996231,-9.059906e-05,3.0517578e-05,-9.1552734e-05,0.00012207031
-0.012377031,0.0036979415,-0.2026701,-0.022491455,-0.25053406,9.806503,-6.335449,15.760803,-43.603516,-0.021818407,-0.25239533,9.803378,-0.00091293454,-0.0019042194,0.0012140274,-9.1552734e-05,-3.0517578e-05,0.0001373291
-0.012346211,0.0036966675,-0.20265034,-0.020095825,-0.25291443,9.804108,-5.9295654,16.015625,-44.776917,-0.021921564,-0.251798,9.803392,-9.278767e-05,0.0010819435,-0.00014781952,0.00015258789,3.0517578e-05,6.1035156e-05
-0.012349029,0.0036668875,-0.20257539,-0.024169922,-0.2505188,9.803879,-5.532837,15.893555,-44.592285,-0.021357724,-0.25173217,9.803396,0.0010205787,4.1157007e-05,-0.0010557175,9.1552734e-05,-0.00015258789,7.6293945e-05
-0.012349233,0.003694488,-0.20264636,-0.020812988,-0.25172424,9.8022,-5.757141,16.088867,-43.484497,-0.021868715,-0.2518473,9.803391,-0.0018262491,-0.00032767653,-0.0008687973,-9.1552734e-05,-0.00015258789,7.6293945e-05
-0.012329034,0.0036731318,-0.20258072,-0.024398804,-0.25053406,9.8033905,-5.4138184,16.551208,-43.556213,-0.021555737,-0.2513731,9.803404,0.00049967505,0.00085151196,-0.0007429123,9.1552734e-05,-9.1552734e-05,-4.5776367e-05
-0.012291921,0.0037097463,-0.20265485,-0.0236969,-0.25076294,9.804596,-5.430603,16.259766,-43.91632,-0.022387406,-0.2508076,9.803416,-0.0020099543,0.0005338788,0.00030326843,9.1552734e-05,3.0517578e-05,0.0001373291
-0.012304915,0.0037346983,-0.20272587,-0.022018433,-0.25053406,9.8022,-6.1065674,15.634155,-44.46869,-0.022796718,-0.25115794,9.803407,-0.0011284444,-0.0008036196,-0.00075531006,3.0517578e-05,-9.1552734e-05,0.00030517578
-0.012303145,0.0037018482,-0.2026406,-0.023925781,-0.25291443,9.806259,-6.3598633,15.25116,-43.858337,-0.022194764,-0.25099143,9.803412,0.000649184,0.0006996095,-0.0006637573,-3.0517578e-05,-0.00015258789,0.00036621094
-0.012321318,0.0037391828,-0.20274617,-0.020339966,-0.2514801,9.804825,-6.2713623,15.55481,-44.77997,-0.022812394,-0.2514912,9.803398,-0.0013555828,-0.0009287596,0.0017957687,-3.0517578e-05,-3.0517578e-05,-0.00016784668
-0.012321921,0.0036839573,-0.20260471,-0.019866943,-0.25004578,9.8029175,-6.149292,16.433716,-44.303894,-0.02178575,-0.2512801,9.803407,0.00216542,-0.0004155934,0.0005493164,0.00033569336,-9.1552734e-05,7.6293945e-05
-0.0123154465,0.0036631175,-0.20254773,-0.022735596,-0.2545929,9.805786,-5.227661,16.91742,-42.28058,-0.02142587,-0.25107172,9.803412,0.00037034415,8.34465e-05,-0.00075626373,-0.00015258789,-3.0517578e-05,-4.5776367e-05
-0.012370083,0.0036792203,-0.20261832,-0.019622803,-0.2536316,9.803162,-4.9850464,15.5685425,-44.830322,-0.021499846,-0.25218633,9.803383,-0.00027192011,-0.0021328032,0.00077819824,-3.0517578e-05,3.0517578e-05,-4.5776367e-05
-0.012390993,0.00364814,-0.20254968,-0.020339966,-0.2514801,9.808899,-6.265259,15.699768,-44.60144,-0.02083754,-0.2524629,9.803377,0.0007437002,4.553795e-05,-0.00043296814,-0.00015258789,-0.00021362305,0.0001373291
-0.012402748,0.0036314002,-0.20251298,-0.021057129,-0.2534027,9.804352,-5.505371,16.552734,-44.76013,-0.020478811,-0.25262135,9.803373,-0.00010131672,-1.5109777e-05,0.0019416809,-3.0517578e-05,-0.00015258789,7.6293945e-05
-0.012411621,0.0036585801,-0.20258753,-0.023452759,-0.2545929,9.805542,-5.8380127,16.236877,-44.281006,-0.020946296,-0.25290132,9.803367,-0.0005797539,2.1129847e-05,2.7656555e-05,-9.1552734e-05,9.1552734e-05,1.5258789e-05
-0.01242889,0.0037007274,-0.20270501,-0.02130127,-0.2536316,9.805313,-5.8670044,15.501404,-43.901062,-0.02165668,-0.2534029,9.80335,-0.0013028104,-0.00090277195,0.0006504059,-9.1552734e-05,-3.0517578e-05,7.6293945e-05
-0.012423587,0.0036738182,-0.20263307,-0.021057129,-0.25196838,9.808182,-6.489563,16.049194,-44.596863,-0.021179607,-0.25319257,9.803358,0.00037092902,-0.00015860796,-0.0005283356,9.1552734e-05,-0.00015258789,7.6293945e-05
-0.012395689,0.003664688,-0.2025947,-0.022979736,-0.25268555,9.803146,-5.3741455,15.985107,-45.559692,-0.021125065,-0.2526198,9.803373,-0.000887068,0.0012150109,0.0018854141,3.0517578e-05,-0.0001373291,0.0001373291
-0.012407833,0.003682917,-0.202648,-0.024642944,-0.25291443,9.80722,-5.9417725,15.644836,-44.17267,-0.021413112,-0.25292656,9.803365,-0.0013185274,-0.0011465847,-0.0022583008,0.0002746582,-0.0002593994,0.00018310547
-0.012396405,0.0037189263,-0.20273437,-0.020584106,-0.25219727,9.805786,-5.1574707,16.931152,-43.56537,-0.022127781,-0.25285217,9.803365,-0.0015484132,0.0,0.0011987686,-9.1552734e-05,-3.0517578e-05,-4.5776367e-05
-0.012392807,0.003685035,-0.2026454,-0.022491455,-0.2534027,9.80603,-4.8202515,15.652466,-44.970703,-0.021514198,-0.2526464,9.803371,0.00046305172,0.0007482767,0.0006494522,-0.00015258789,-0.0002593994,1.5258789e-05
-0.012387854,0.0036995395,-0.20267999,-0.022735596,-0.25004578,9.803162,-6.0043335,16.003418,-44.02008,-0.021803513,-0.2526097,9.803372,-0.0009273086,-0.00024941564,-0.0011672974,0.00015258789,-0.00015258789,-4.5776367e-05
-0.012346538,0.0037139012,-0.20269476,-0.022491455,-0.2524414,9.805542,-5.0079346,16.802979,-44.351196,-0.0222398,-0.25187376,9.80339,-0.0014536958,0.0016223788,-0.0012559891,3.0517578e-05,-0.00015258789,7.6293945e-05
-0.012366186,0.003690723,-0.20264576,-0.022491455,-0.25387573,9.8033905,-4.9468994,16.140747,-43.28003,-0.021729171,-0.25215784,9.803384,0.00020320527,-0.0007080138,0.0007581711,-3.0517578e-05,-9.1552734e-05,0.00018310547
-0.012377659,0.0037092625,-0.20269951,-0.021774292,-0.2498169,9.805542,-3.982544,16.207886,-43.685913,-0.022025742,-0.25245303,9.803376,-0.00070736,-0.00043281913,-0.0015687943,-9.1552734e-05,-9.1552734e-05,6.1035156e-05
-0.012345462,0.0036872018,-0.20262563,-0.02130127,-0.25219727,9.806747,-5.163574,16.860962,-43.955994,-0.021749109,-0.25174546,9.803394,0.0004515592,0.0019716322,0.0011873245,-9.1552734e-05,3.0517578e-05,0.00018310547
-0.0123553015,0.0037005567,-0.20266518,-0.022247314,-0.25100708,9.8033905,-5.9417725,15.7196045,-44.458008,-0.02195629,-0.25198835,9.803388,-5.6935474e-05,-0.0006374419,0.0012788773,3.0517578e-05,-3.0517578e-05,1.5258789e-05
-0.012338399,0.003670337,-0.20257854,-0.020095825,-0.2536316,9.804596,-6.680298,15.531921,-45.222473,-0.0214654,-0.2515418,9.8034,0.00041146763,0.0012893379,-0.001698494,-0.00015258789,-3.0517578e-05,0.0001373291
-0.0123885395,0.0036509119,-0.20255549,-0.022247314,-0.25125122,9.805542,-5.2078247,15.989685,-44.88678,-0.020899022,-0.25242692,9.803378,0.00056219846,-0.0016550124,-1.2397766e-05,3.0517578e-05,-0.00021362305,0.00030517578
-0.012386017,0.0036720617,-0.20260845,-0.0236969,-0.25411987,9.805313,-6.439209,15.318298,-44.14215,-0.021301571,-0.25246364,9.803376,-0.00022448413,-0.00064638257,0.0005245209,-3.0517578e-05,-9.1552734e-05,1.5258789e-05
-0.012401602,0.0037206174,-0.20274149,-0.022964478,-0.25125122,9.805069,-6.413269,15.673828,-42.78717,-0.022137748,-0.25295886,9.803363,-0.0017838906,-0.00086954236,-0.00012779236,-9.1552734e-05,-9.1552734e-05,1.5258789e-05
-0.012388082,0.0037264344,-0.20274918,-0.023208618,-0.25411987,9.805786,-5.46875,15.536499,-44.81659,-0.022301247,-0.25272253,9.803368,-0.0009027738,0.0010504127,0.0003976822,-0.00015258789,-0.00021362305,0.00036621094
-0.012399277,0.0037350992,-0.20277743,-0.022735596,-0.2529297,9.807709,-5.9036255,16.596985,-44.50836,-0.02241582,-0.2529726,9.803362,-0.0005444493,-0.00061151385,-0.00037670135,9.1552734e-05,-3.0517578e-05,0.0001373291
-0.012384986,0.003739537,-0.20278117,-0.022018433,-0.24957275,9.805313,-5.743408,16.45813,-43.93921,-0.022556929,-0.25271592,9.803368,-0.0006449912,0.000105410814,0.002146721,3.0517578e-05,-9.1552734e-05,0.0001373291
-0.012329811,0.0036902886,-0.20262519,-0.020095825,-0.25196838,9.805069,-5.82428,16.452026,-43.86139,-0.021870717,-0.2514572,9.803402,0.0008189324,0.0021900535,-0.0009727478,0.00021362305,-0.00015258789,0.00030517578
-0.012360823,0.0036720543,-0.20259495,-0.023452759,-0.25172424,9.8033905,-6.9992065,15.2786255,-43.522644,-0.02140504,-0.25197956,9.803389,0.00082461536,-0.0008915365,-0.0014410019,-3.0517578e-05,3.0517578e-05,-4.5776367e-05
-0.012338525,0.0037063414,-0.20267107,-0.022491455,-0.25219727,9.803879,-5.6152344,15.815735,-44.451904,-0.022132572,-0.2516893,9.803394,-0.002034098,0.00047507882,-0.00048351288,3.0517578e-05,-0.0002593994,7.6293945e-05
-0.012341256,0.0036869834,-0.20262282,-0.021774292,-0.25315857,9.805786,-6.225586,16.348267,-43.336487,-0.021762354,-0.2516638,9.803397,-0.00025357492,-0.00074866414,-0.0006456375,9.1552734e-05,-9.1552734e-05,-4.5776367e-05
-0.012368325,0.0036868728,-0.20263702,-0.019378662,-0.25315857,9.803879,-6.2683105,15.70282,-45.12787,-0.021648973,-0.25218344,9.803384,0.0005952865,-0.0007061362,0.00084400177,-3.0517578e-05,3.0517578e-05,0.00024414062
-0.012385154,0.003656588,-0.20256826,-0.020095825,-0.25172424,9.804352,-5.758667,16.244507,-44.58618,-0.021018192,-0.25238475,9.803379,0.0013983287,-0.0009826422,-0.00039863586,9.1552734e-05,3.0517578e-05,0.0001373291
-0.012369637,0.0036433525,-0.20252597,-0.022018433,-0.25076294,9.80603,-5.793762,15.515137,-44.883728,-0.020836558,-0.25203332,9.803389,0.000499377,0.00058692694,-0.0001039505,3.0517578e-05,3.0517578e-05,0.0001373291
-0.012334363,0.0036543491,-0.20253533,-0.023208618,-0.25411987,9.804352,-5.181885,16.499329,-44.406128,-0.02118549,-0.25139984,9.803404,-0.00058555417,0.00090432167,0.00040531158,9.1552734e-05,3.0517578e-05,-4.5776367e-05
-0.012389344,0.0036839445,-0.20264074,-0.021774292,-0.24957275,9.805786,-5.7128906,15.21759,-43.437195,-0.021508219,-0.25257546,9.803373,-0.0012244191,-0.0022268593,-0.00037002563,-3.0517578e-05,-0.00021362305,0.0001373291
-0.0123269735,0.0036777603,-0.2025915,-0.01914978,-0.25172424,9.805313,-5.680847,16.174316,-44.5282,-0.021650044,-0.2513522,9.803405,-0.0008373633,0.002070576,0.0010213852,0.00015258789,-9.1552734e-05,0.00024414062
-0.012333678,0.0036405723,-0.2024996,-0.020339966,-0.25315857,9.80603,-5.5603027,16.983032,-44.14215,-0.020932801,-0.2513312,9.803406,0.0017876606,-9.319186e-05,0.0006799698,3.0517578e-05,9.1552734e-05,-4.5776367e-05
-0.012350424,0.0036398757,-0.20250677,-0.022979736,-0.25004578,9.80722,-5.8502197,15.866089,-43.82782,-0.020851059,-0.25165018,9.803399,4.2185187e-05,-0.0012145936,-0.0005083084,0.00021362305,-0.00015258789,7.6293945e-05
-0.012326543,0.0036418666,-0.2024991,-0.020584106,-0.2498169,9.80603,-6.196594,15.411377,-44.509888,-0.02098613,-0.25119936,9.803411,-0.0012704637,0.0007368624,0.0017347336,3.0517578e-05,-0.00021362305,7.6293945e-05
-0.012292631,0.0036163153,-0.20241538,-0.022491455,-0.25125122,9.804825,-5.97229,15.065002,-44.74182,-0.020651553,-0.25044492,9.80343,7.249974e-05,0.0011775792,-0.00075912476,9.1552734e-05,-9.1552734e-05,-0.00010681152
-0.0122912545,0.0036552914,-0.20251471,-0.020095825,-0.2514801,9.807465,-5.2230835,15.545654,-44.145203,-0.021380153,-0.25057536,9.803425,-0.0013504066,-0.00037270784,-0.00019168854,3.0517578e-05,3.0517578e-05,-0.00010681152
-0.01231901,0.0036402661,-0.20249097,-0.024169922,-0.25028992,9.804596,-6.1050415,15.632629,-44.319153,-0.02098741,-0.25104818,9.803414,0.0008972753,-0.0010810196,0.0006752014,3.0517578e-05,3.0517578e-05,7.6293945e-05
-0.012297025,0.003690533,-0.20260827,-0.02130127,-0.24932861,9.805542,-5.8288574,16.38031,-44.100952,-0.022010071,-0.25082824,9.803417,-0.0019113868,0.00035870075,-0.0014629364,-3.0517578e-05,3.0517578e-05,1.5258789e-05
-0.012264489,0.0036857175,-0.2025785,-0.022979736,-0.25076294,9.799332,-6.2957764,15.118408,-45.396423,-0.02205452,-0.25018367,9.803433,4.1069463e-05,0.0011557043,0.00061130524,3.0517578e-05,9.1552734e-05,0.0001373291
-0.012267798,0.003697165,-0.20260966,-0.019866943,-0.25076294,9.803879,-5.0811768,15.042114,-43.725586,-0.022253253,-0.2502934,9.803431,-0.00048191287,-0.00023582578,-0.0040597916,9.1552734e-05,-0.00015258789,0.00030517578
-0.012294702,0.003636765,-0.20246898,-0.022018433,-0.25291443,9.805069,-6.086731,16.000366,-44.169617,-0.021022353,-0.25056702,9.803426,0.0023616236,-0.0006750226,0.0003232956,-9.1552734e-05,-0.00015258789,0.00018310547
-0.012332539,0.0036581028,-0.202544,-0.022018433,-0.25172424,9.806992,-6.176758,15.927124,-45.00885,-0.021262603,-0.25137994,9.803405,-0.0014717691,-0.0010469854,0.0003824234,-0.00015258789,-9.1552734e-05,0.00036621094
-0.012323531,0.0036723453,-0.20257576,-0.022979736,-0.25076294,9.804108,-5.7876587,15.586853,-44.718933,-0.021563774,-0.2512642,9.803407,-0.00092405826,5.5223703e-05,0.0021657944,9.1552734e-05,-0.00015258789,0.00036621094
-0.01232945,0.0036690647,-0.2025705,-0.02130127,-0.25196838,9.8033905,-5.3482056,16.339111,-44.206238,-0.021478599,-0.25136474,9.803405,-0.00078052096,-0.00031909347,-0.00015544891,9.1552734e-05,-0.00021362305,0.0001373291
-0.012314037,0.0036859186,-0.20260552,-0.023925781,-0.25172424,9.803635,-5.1483154,15.405273,-44.100952,-0.021854537,-0.2511365,9.80341,-0.00063529424,0.00014808774,-0.0016937256,3.0517578e-05,-9.1552734e-05,0.00018310547
-0.012347882,0.0036989886,-0.2026572,-0.020812988,-0.25172424,9.805313,-5.038452,15.992737,-43.76068,-0.021957736,-0.25183946,9.803391,-0.0010049194,-0.0008251965,0.00014686584,3.0517578e-05,-0.00015258789,7.6293945e-05
-0.0123376055,0.0036655706,-0.20256588,-0.018432617,-0.25172424,9.806503,-5.264282,16.340637,-43.45398,-0.021380272,-0.25150734,9.803401,0.0010430384,0.00028824806,0.0008878708,3.0517578e-05,3.0517578e-05,7.6293945e-05
-0.012334093,0.0036266565,-0.20246409,-0.022491455,-0.25268555,9.805542,-5.192566,16.35437,-44.813538,-0.020673014,-0.2512832,9.803409,0.001297785,-0.00015518069,0.000749588,3.0517578e-05,-3.0517578e-05,6.1035156e-05
-0.012330633,0.0036804941,-0.20260048,-0.023452759,-0.2534027,9.805786,-6.083679,15.99884,-43.867493,-0.021685699,-0.2514335,9.803402,-0.00080174394,0.0007170439,-0.00014686584,9.1552734e-05,-0.00015258789,-0.00010681152
-0.01233103,0.0037273797,-0.20272106,-0.022979736,-0.25028992,9.803879,-5.7525635,16.08429,-42.956543,-0.022553546,-0.2516302,9.803395,-0.0016117524,-0.00028660893,0.00038146973,-0.00015258789,3.0517578e-05,6.1035156e-05
-0.012312911,0.0037118641,-0.20267153,-0.023208618,-0.25100708,9.8033905,-6.085205,15.922546,-43.580627,-0.02234035,-0.25121948,9.803407,-0.00014753267,0.00072559714,-0.0008659363,3.0517578e-05,-0.00021362305,0.00012207031
-0.012310606,0.0037162653,-0.2026816,-0.021530151,-0.25053406,9.803146,-5.6411743,15.155029,-44.132996,-0.022431456,-0.25119293,9.803407,-0.0005308166,-3.361702e-05,-0.001209259,9.1552734e-05,-3.0517578e-05,7.6293945e-05
-0.012297188,0.0036778217,-0.20257571,-0.022247314,-0.25100708,9.8029175,-5.7724,15.953064,-44.87152,-0.021773644,-0.25078014,9.803419,0.0009613354,0.00074216723,-0.0012960434,-3.0517578e-05,-9.1552734e-05,7.6293945e-05
-0.0123160025,0.0036930405,-0.20262486,-0.023925781,-0.25172424,9.805069,-6.1538696,16.209412,-43.518066,-0.02197854,-0.251203,9.803409,-0.00098495,-0.0002658069,0.0002593994,-3.0517578e-05,-0.00032043457,0.0001373291
-0.0123044085,0.0037194828,-0.20268653,-0.022979736,-0.2534027,9.803879,-6.349182,15.545654,-44.17572,-0.022516621,-0.2510868,9.803409,-0.0018956717,-0.0003735721,0.0006456375,9.1552734e-05,-3.0517578e-05,-0.00010681152
-0.012343218,0.003733907,-0.20274435,-0.020828247,-0.24957275,9.806503,-5.595398,16.099548,-43.489075,-0.022624439,-0.2518907,9.803389,-0.000109191984,-0.0019631684,0.000111579895,0.00015258789,3.0517578e-05,1.5258789e-05
-0.012310573,0.003684135,-0.2025991,-0.023208618,-0.25291443,9.804108,-6.575012,15.893555,-44.24591,-0.021835703,-0.25106275,9.8034115,0.0010101013,0.0015203953,0.00071430206,3.0517578e-05,-0.00015258789,6.1035156e-05
-0.012330049,0.003715163,-0.20268917,-0.022491455,-0.2498169,9.804596,-6.489563,15.898132,-43.870544,-0.022331037,-0.25156203,9.803397,-0.00087557547,-0.0011009276,-0.00064373016,-9.1552734e-05,3.0517578e-05,-4.5776367e-05
-0.012311419,0.0037247015,-0.20270368,-0.022247314,-0.25315857,9.805557,-4.8324585,15.130615,-43.4906,-0.022584569,-0.25124258,9.803406,-0.00037748367,0.0009796321,0.0003671646,9.1552734e-05,-3.0517578e-05,0.00012207031
-0.012331581,0.0037122865,-0.2026826,-0.020339966,-0.25219727,9.805786,-6.124878,15.275574,-44.918823,-0.022271387,-0.25157988,9.803397,0.0005010683,-0.0015338063,0.0013570786,3.0517578e-05,3.0517578e-05,-4.5776367e-05
-0.012355754,0.0036931727,-0.20264646,-0.023208618,-0.2524414,9.804825,-6.196594,17.233276,-44.592285,-0.021817505,-0.25196728,9.803389,0.0017258767,-0.00042566657,0.00026798248,-3.0517578e-05,0.00021362305,6.1035156e-05
-0.012355488,0.003720574,-0.20271668,-0.020339966,-0.25076294,9.8033905,-6.109619,15.640259,-45.072937,-0.022326713,-0.25207266,9.803385,-0.0011220891,0.00014895201,-0.0002965927,-9.1552734e-05,3.0517578e-05,1.5258789e-05
-0.012352092,0.003677624,-0.20260459,-0.019866943,-0.25387573,9.804352,-5.7388306,16.604614,-44.136047,-0.021544235,-0.25183427,9.803393,0.0016801767,0.00061675906,-0.00082683563,-0.00015258789,-3.0517578e-05,-0.00016784668
-0.012408368,0.0036663478,-0.20260574,-0.02130127,-0.25315857,9.803162,-5.79834,15.44342,-45.05005,-0.021103697,-0.25287008,9.803367,0.0009945352,-0.001226753,-0.000869751,-9.1552734e-05,-3.0517578e-05,0.0
-0.01239825,0.0036694694,-0.20260835,-0.023208618,-0.25315857,9.805786,-5.0735474,15.341187,-44.496155,-0.021203192,-0.25268826,9.803371,-0.00032566302,0.00026232004,-0.00058078766,3.0517578e-05,3.0517578e-05,-4.5776367e-05
-0.012406284,0.0037137507,-0.20272636,-0.02130127,-0.25219727,9.805786,-5.366516,15.82489,-43.629456,-0.02199117,-0.25302112,9.803362,-0.0014588684,-0.00057914853,0.0012111664,-3.0517578e-05,3.0517578e-05,-0.00010681152
-0.012394435,0.0036870209,-0.20265137,-0.020095825,-0.25196838,9.804596,-5.0720215,15.338135,-44.270325,-0.02154432,-0.25268567,9.80337,0.0012080688,0.00053197145,0.0009698868,9.1552734e-05,9.1552734e-05,-0.000289917
-0.012376864,0.0036593874,-0.202571,-0.022491455,-0.25196838,9.808182,-5.8181763,14.854431,-44.33899,-0.021104187,-0.25223672,9.803382,0.00052370876,0.0003117025,9.536743e-07,0.00015258789,-0.00021362305,-4.5776367e-05
-0.012338932,0.0036605292,-0.20255364,-0.021057129,-0.25172424,9.805069,-6.486511,16.044617,-44.21997,-0.02128132,-0.25151253,9.803401,-0.0012042467,0.0005750358,0.0020685196,0.00015258789,-9.1552734e-05,-0.00022888184
-0.012346218,0.0036687306,-0.2025786,-0.021057129,-0.2514801,9.804825,-5.218506,15.69519,-44.56787,-0.021403458,-0.25168556,9.803396,-0.00013644062,-0.00021800399,-0.00037956238,-3.0517578e-05,3.0517578e-05,-0.00016784668
-0.012333566,0.0036444792,-0.20250957,-0.02130127,-0.25125122,9.804825,-5.3390503,16.48407,-43.875122,-0.02100572,-0.2513448,9.803406,0.0011422113,-9.420514e-05,-0.0018472672,0.00033569336,0.00015258789,-0.00010681152
-0.012330585,0.0036708433,-0.20257567,-0.02130127,-0.2545929,9.803635,-5.734253,16.600037,-43.380737,-0.021506915,-0.25139368,9.803403,-0.0005082749,-0.000292629,-0.00077438354,3.0517578e-05,3.0517578e-05,-0.0004272461
-0.012387326,0.0036943003,-0.20266627,-0.022735596,-0.25172424,9.804825,-6.323242,16.052246,-43.696594,-0.02170854,-0.25257844,9.803373,-0.0005365405,-0.0019884706,-0.0009908676,-0.00015258789,-3.0517578e-05,-0.00010681152
-0.01238051,0.0036998014,-0.20267674,-0.020812988,-0.25268555,9.806747,-6.1523438,16.207886,-43.292236,-0.021838583,-0.25246966,9.803376,6.756373e-05,0.00078323483,0.00094127655,-9.1552734e-05,0.00015258789,-0.00022888184
-0.012373317,0.0036946894,-0.20265976,-0.02130127,-0.2524414,9.80603,-6.4056396,15.9729,-43.481445,-0.021773383,-0.25231084,9.80338,0.00047677755,0.00016763806,0.0012674332,3.0517578e-05,-3.0517578e-05,-4.5776367e-05
-0.012374986,0.0036844104,-0.20263426,-0.023452759,-0.25196838,9.802444,-5.104065,16.43219,-44.421387,-0.02157592,-0.25230148,9.803381,0.00027915463,-0.00033140182,-0.00011444092,9.1552734e-05,3.0517578e-05,-6.1035156e-05
-0.012371696,0.0037022883,-0.20267841,-0.022735596,-0.25291443,9.802673,-6.2316895,16.200256,-43.13965,-0.021920959,-0.2523103,9.803379,-0.0010558944,0.00037512183,-0.0015077591,-3.0517578e-05,-0.00015258789,1.5258789e-05
-0.012364019,0.0037216966,-0.20272413,-0.021057129,-0.25076294,9.806503,-6.3339233,16.062927,-45.27893,-0.022312427,-0.25224108,9.80338,-0.0011385307,-0.00042411685,-0.0010099411,0.00021362305,3.0517578e-05,-0.00016784668
-0.012333204,0.003672893,-0.20258233,-0.022018433,-0.25172424,9.803162,-6.1569214,16.441345,-45.28351,-0.02153416,-0.2514523,9.803403,0.0011972617,0.0007251799,0.0012311935,9.1552734e-05,-0.00015258789,7.6293945e-05
-0.012325228,0.0036821417,-0.2026018,-0.021057129,-0.25100708,9.804352,-5.7647705,15.945435,-43.740845,-0.021738477,-0.2513363,9.803405,-0.00050625764,0.00035902858,-0.0004606247,3.0517578e-05,-9.1552734e-05,0.0002593994
-0.012317246,0.0036621797,-0.20254628,-0.023452759,-0.25053406,9.806503,-5.354309,16.26892,-44.59839,-0.021401078,-0.25110248,9.803411,0.00010184944,-0.00035366416,-0.00046730042,0.00021362305,-9.1552734e-05,0.00018310547
-0.012305717,0.003694314,-0.20262262,-0.023925781,-0.25125122,9.8033905,-6.5109253,15.536499,-44.47174,-0.022044454,-0.25101045,9.8034115,-0.0014051329,0.00051251054,0.00096321106,-9.1552734e-05,-9.1552734e-05,-0.00022888184
-0.012299426,0.0037160506,-0.20267506,-0.022247314,-0.25004578,9.805786,-6.5093994,15.762329,-45.1828,-0.022473466,-0.25097725,9.803412,-0.0009775087,-0.000254035,-0.0012731552,9.1552734e-05,3.0517578e-05,1.5258789e-05
-0.012281342,0.0037100625,-0.20265001,-0.022735596,-0.25268555,9.805542,-7.217407,15.924072,-44.1391,-0.022436777,-0.2506056,9.803421,-5.151145e-05,0.000595212,0.0012254715,3.0517578e-05,-3.0517578e-05,-0.00016784668
-0.012319403,0.003725486,-0.20270997,-0.020812988,-0.25196838,9.803635,-6.6436768,16.256714,-44.548035,-0.022566274,-0.25139916,9.803402,-0.0003944058,-0.0017170906,0.0004901886,9.1552734e-05,3.0517578e-05,1.5258789e-05
-0.012319621,0.0037004657,-0.20264585,-0.021774292,-0.2524414,9.805069,-4.5318604,16.53595,-43.745422,-0.022101363,-0.25130242,9.803405,0.0012913868,-0.00014346838,-0.0006322861,-3.0517578e-05,3.0517578e-05,0.0001373291
-0.012360706,0.0036848022,-0.20262763,-0.02154541,-0.2534027,9.8029175,-6.213379,16.792297,-44.2276,-0.021641918,-0.2520287,9.803388,0.000587672,-0.0015693009,-9.727478e-05,-3.0517578e-05,-0.00015258789,0.00018310547
-0.012370201,0.003704113,-0.20268229,-0.023208618,-0.25076294,9.805069,-5.5160522,16.25824,-44.59381,-0.021960938,-0.25228894,9.803379,-0.00052872114,-0.0003759563,-0.0010194778,3.0517578e-05,-3.0517578e-05,-0.00035095215
-0.012334015,0.0037161957,-0.20269394,-0.023208618,-0.25100708,9.804352,-4.6432495,15.87677,-43.94989,-0.022333872,-0.25164244,9.803396,-0.001115689,0.0011444092,0.0012311935,-3.0517578e-05,3.0517578e-05,1.5258789e-05
-0.012345959,0.0037150674,-0.20269744,-0.022262573,-0.25602722,9.805313,-5.368042,15.826416,-43.780518,-0.022263806,-0.25186735,9.80339,-0.00046947598,-7.4863434e-05,-0.00077342987,-9.1552734e-05,-0.00021362305,-0.00022888184
-0.012406621,0.0037176856,-0.20273665,-0.023208618,-0.2524414,9.804352,-6.9717407,16.165161,-44.854736,-0.022062732,-0.25304344,9.80336,-0.00019717589,-0.0020071864,0.00028038025,-0.00021362305,-0.00015258789,-0.00010681152
-0.012420321,0.0037263145,-0.20276614,-0.022735596,-0.25125122,9.80603,-5.6793213,16.021729,-43.57605,-0.022166327,-0.25334147,9.803352,-0.00079489686,0.000448972,0.00052165985,-3.0517578e-05,-0.00015258789,0.0001373291
-0.012369479,0.0037233701,-0.20273136,-0.023452759,-0.25268555,9.804825,-5.7159424,15.219116,-43.737793,-0.02232099,-0.25235274,9.803377,-0.0008841846,0.0013845861,0.00017929077,0.00015258789,-0.00015258789,7.6293945e-05
-0.01236062,0.0037395782,-0.20276822,-0.022735596,-0.2536316,9.804352,-6.0943604,15.776062,-43.68744,-0.022657983,-0.25224793,9.803379,-0.0007909518,-0.00015091896,0.00027942657,3.0517578e-05,3.0517578e-05,1.5258789e-05
-0.012393981,0.0037419866,-0.20279227,-0.022735596,-0.25100708,9.805542,-5.204773,15.986633,-44.433594,-0.022565315,-0.2528986,9.803362,0.00032832846,0.0008496642,0.000702858,-3.0517578e-05,-0.00021362305,-4.5776367e-05
-0.012369737,0.0036865391,-0.20263691,-0.021530151,-0.25123596,9.8033905,-5.9188843,16.157532,-44.143677,-0.021636978,-0.25220922,9.803383,0.0013007615,-0.00066152215,-1.2397766e-05,9.1552734e-05,-3.0517578e-05,-0.00016784668
-0.012362911,0.0036893191,-0.2026404,-0.0236969,-0.25434875,9.803635,-6.340027,15.611267,-43.408203,-0.021716606,-0.25208926,9.803386,-5.53485e-05,0.00039216876,-0.0012788773,3.0517578e-05,-0.00021362305,-4.5776367e-05
-0.012381578,0.0036980947,-0.20267293,-0.020095825,-0.2514801,9.801712,-5.4473877,15.895081,-44.06433,-0.021802546,-0.25248328,9.803375,-0.0014041159,-0.0008967817,-0.00037670135,3.0517578e-05,-9.1552734e-05,0.0001373291
-0.012369112,0.003650379,-0.20254374,-0.021530151,-0.24813843,9.8029175,-5.1971436,16.131592,-44.255066,-0.020969018,-0.25205153,9.803389,0.0011017825,0.0007967651,-0.0020122528,-9.1552734e-05,-0.00015258789,0.0001373291
-0.012316563,0.0036856642,-0.20260622,-0.022491455,-0.25028992,9.804596,-5.986023,16.442871,-44.158936,-0.021839432,-0.25118402,9.803409,-0.0013697911,0.0020925999,-0.0002193451,-3.0517578e-05,3.0517578e-05,0.00036621094
-0.012302054,0.0036884432,-0.20260559,-0.02130127,-0.2524414,9.8022,-5.986023,16.442871,-44.158936,-0.021950634,-0.25091645,9.803415,-0.00031165592,0.0006297529,0.00081062317,3.0517578e-05,-3.0517578e-05,7.6293945e-05
-0.0123214945,0.0036531663,-0.20252542,-0.02130127,-0.24957275,9.802429,-6.7504883,15.591431,-44.37561,-0.021216448,-0.25114784,9.803411,0.0008763131,-0.00033426285,-0.00041484833,-0.00015258789,-0.0002593994,-0.00010681152
-0.012304606,0.0036532078,-0.2025165,-0.023452759,-0.24861145,9.800522,-6.1584473,16.137695,-43.833923,-0.021286633,-0.25082353,9.803419,-0.00073229894,0.0012448728,-0.00027179718,-9.1552734e-05,-9.1552734e-05,7.6293945e-05
-0.012273092,0.0036788795,-0.20256555,-0.020095825,-0.25291443,9.806503,-5.773926,15.802002,-43.995667,-0.021892319,-0.25032142,9.803431,-0.0015636813,0.0011846423,-0.002418518,3.0517578e-05,-3.0517578e-05,7.6293945e-05
-0.012321301,0.003647021,-0.20250954,-0.023925781,-0.25076294,9.801239,-5.7495117,16.157532,-42.941284,-0.021103272,-0.25111938,9.8034115,0.0012364965,-0.0017930865,0.0030145645,3.0517578e-05,-9.1552734e-05,0.00018310547
-0.012305216,0.00368845,-0.2026073,-0.02368164,-0.25172424,9.803635,-6.0287476,15.341187,-43.397522,-0.021937756,-0.25097722,9.803413,-0.001989184,0.0004298985,-0.0011835098,-3.0517578e-05,-9.1552734e-05,0.0001373291
-0.012318637,0.0036962465,-0.2026345,-0.021774292,-0.25196838,9.803635,-6.0913086,15.925598,-44.10858,-0.022027163,-0.2512665,9.803406,-0.0011822227,-0.0009395182,0.00032615662,9.1552734e-05,-0.00021362305,-0.00010681152
-0.012334808,0.0036886137,-0.20262356,-0.020095825,-0.25196838,9.8033905,-5.2261353,15.472412,-44.16046,-0.02181911,-0.25154644,9.803399,-0.000429241,-0.000433892,-0.0002603531,9.1552734e-05,-0.00021362305,-0.00010681152
-0.012323042,0.0036487638,-0.20251495,-0.021774292,-0.25315857,9.805313,-5.834961,16.00647,-42.819214,-0.021128435,-0.25115985,9.803411,0.0012620222,-0.0005581081,0.0014123917,0.00021362305,-3.0517578e-05,-0.00010681152
-0.012353464,0.0036605443,-0.20256147,-0.020584106,-0.25076294,9.8029175,-5.5999756,16.104126,-44.244385,-0.02122186,-0.2517918,9.803394,-7.9194084e-05,-0.0016083121,-0.00033283234,9.1552734e-05,-3.0517578e-05,0.0001373291
-0.0123236645,0.0036665879,-0.20256104,-0.024169922,-0.25219727,9.805786,-4.9591064,16.075134,-44.200134,-0.021456446,-0.2512436,9.803408,-0.00080530904,0.00096324086,0.00057029724,3.0517578e-05,-0.00015258789,7.6293945e-05
-0.01233571,0.0036944365,-0.20263898,-0.022247314,-0.25172424,9.8029175,-6.413269,15.982056,-44.688416,-0.021923378,-0.25158724,9.803397,-0.0015273765,-0.00083115697,0.0010194778,3.0517578e-05,3.0517578e-05,1.5258789e-05
-0.012332326,0.0037101347,-0.20267747,-0.0236969,-0.25076294,9.803635,-7.217407,15.924072,-44.1391,-0.02222842,-0.25158554,9.803398,-0.00026095845,-0.000115185976,3.8146973e-05,9.1552734e-05,-3.0517578e-05,-0.00010681152
-0.012307104,0.0037159924,-0.20267902,-0.0236969,-0.2534027,9.8022,-6.564331,16.033936,-43.537903,-0.022440804,-0.25112453,9.803409,-0.00053791143,0.00012886524,-0.00093746185,0.00021362305,-9.1552734e-05,-0.00010681152
-0.012328141,0.0037368552,-0.20274384,-0.022491455,-0.25172424,9.805069,-5.0079346,16.95404,-45.303345,-0.022741152,-0.2516129,9.803395,-0.0009555835,-0.0015438795,-0.00079250336,3.0517578e-05,3.0517578e-05,1.5258789e-05
-0.012333272,0.0037484851,-0.20277645,-0.022247314,-0.25196838,9.803635,-4.8065186,15.789795,-43.811035,-0.022935703,-0.25175843,9.803391,-2.7542934e-05,-0.00019645691,0.0009069443,-9.1552734e-05,9.1552734e-05,7.6293945e-05
-0.0123357065,0.0037430706,-0.20276386,-0.02368164,-0.25053406,9.803635,-6.5811157,15.6692505,-43.611145,-0.02282528,-0.25178334,9.8033905,0.00033463538,0.00031217933,-0.00034809113,-3.0517578e-05,9.1552734e-05,0.0001373291
-0.012317627,0.0037571972,-0.20279044,-0.022491455,-0.2524414,9.801483,-5.392456,15.315247,-44.110107,-0.023161653,-0.25149298,9.803397,-0.00076396205,0.00024357438,-0.0005502701,9.1552734e-05,-0.00015258789,0.0001373291
-0.012332176,0.0037207836,-0.20270474,-0.022247314,-0.25291443,9.804596,-6.0913086,16.079712,-45.210266,-0.022426516,-0.2516256,9.803396,0.0006508734,-0.00011378527,-0.0013227463,-9.1552734e-05,-0.00021362305,1.5258789e-05
-0.012366103,0.0037100955,-0.20269546,-0.02130127,-0.25219727,9.804596,-6.314087,16.273499,-43.80188,-0.022088734,-0.25223434,9.803381,-0.00015764311,-0.0009135306,0.0019893646,-3.0517578e-05,-0.00015258789,1.5258789e-05
-0.012381295,0.0037015297,-0.2026816,-0.023452759,-0.2536316,9.801239,-6.402588,15.9713745,-43.255615,-0.021867396,-0.25249168,9.803374,0.00056747906,-0.00040712953,0.0003709793,-9.1552734e-05,-9.1552734e-05,1.5258789e-05
-0.012394463,0.0037277965,-0.20275609,-0.020584106,-0.25291443,9.804596,-6.6482544,15.9591675,-43.62793,-0.02230024,-0.25285062,9.803365,-0.0013824459,-7.56681e-05,-0.0021390915,-9.1552734e-05,-0.0001373291,0.00024414062
-0.012391388,0.0036773616,-0.20262493,-0.018661499,-0.2534027,9.805069,-6.311035,16.270447,-43.35022,-0.021377753,-0.2525882,9.803373,0.0017551687,-9.474158e-05,0.0011224747,0.00015258789,9.1552734e-05,0.00036621094
-0.012412804,0.003648601,-0.20256254,-0.023208618,-0.25028992,9.805069,-5.784607,15.583801,-44.19098,-0.020756405,-0.25288385,9.803368,0.0011349525,-0.00050240755,0.0010643005,-9.1552734e-05,-9.1552734e-05,6.1035156e-05
-0.012374344,0.0036609273,-0.20257361,-0.021057129,-0.2524414,9.805557,-6.2469482,15.83252,-42.912292,-0.02114311,-0.25219452,9.803384,-0.001345735,0.0019357502,0.0011920929,-0.00015258789,-0.00015258789,-4.5776367e-05
-0.012382634,0.0036676202,-0.20259523,-0.022964478,-0.2514801,9.802673,-6.187439,15.707397,-44.978333,-0.021233128,-0.2523808,9.80338,-0.00053818896,-0.000498265,0.0003156662,-3.0517578e-05,-3.0517578e-05,-4.5776367e-05
-0.012372841,0.0036943578,-0.20265865,-0.024414062,-0.2514801,9.801727,-5.760193,16.093445,-43.937683,-0.021764569,-0.252465,9.803375,-0.00097064674,-0.00021612644,8.869171e-05,-3.0517578e-05,-0.00021362305,0.00018310547
-0.0123579055,0.0037195357,-0.20271531,-0.020584106,-0.25508118,9.805069,-6.111145,15.412903,-43.910217,-0.02229751,-0.25211492,9.803384,-0.0011566244,0.00061926246,-0.0015392303,0.00015258789,-9.1552734e-05,0.00036621094
-0.012391752,0.0037115053,-0.2027128,-0.022735596,-0.25411987,9.804108,-5.256653,16.412354,-43.211365,-0.022009337,-0.25273284,9.803369,0.00047959015,-0.0020995438,0.0015201569,0.00015258789,-9.1552734e-05,0.00030517578
-0.01241707,0.003715541,-0.20273674,-0.021774292,-0.25291443,9.8033905,-5.230713,15.47699,-44.76471,-0.021979967,-0.25323555,9.803355,-0.0005113371,-0.0013555884,-0.00026130676,-3.0517578e-05,-3.0517578e-05,-0.00016784668
-0.012418041,0.00369279,-0.20267883,-0.02130127,-0.2534027,9.802429,-6.222534,16.65039,-44.56024,-0.021554168,-0.25316247,9.803358,0.0002533663,0.0007265508,0.0003080368,9.1552734e-05,-0.00015258789,7.6293945e-05
-0.012394129,0.0036982545,-0.20268005,-0.022964478,-0.2534027,9.805313,-4.901123,15.644836,-44.743347,-0.021753868,-0.2527251,9.8033695,-0.00026405044,-0.00018337369,3.33786e-05,9.1552734e-05,-3.0517578e-05,0.00018310547
-0.012394194,0.003701286,-0.20268787,-0.024169922,-0.2514801,9.803635,-5.9387207,15.718079,-44.30847,-0.02180981,-0.25273854,9.803369,-0.00020719133,-0.00040343404,0.0008125305,9.1552734e-05,3.0517578e-05,0.00018310547
-0.0123567125,0.003746182,-0.20278308,-0.022979736,-0.25076294,9.806259,-5.52063,16.184998,-44.532776,-0.022796517,-0.2521995,9.80338,-0.0020891987,0.0009634197,-9.059906e-05,9.1552734e-05,-9.1552734e-05,0.00019836426
-0.012333763,0.003742655,-0.20276174,-0.02154541,-0.25125122,9.805069,-6.1950684,15.409851,-44.20929,-0.022825576,-0.25174433,9.803392,-0.00038027577,0.00029474497,0.001206398,0.00015258789,-3.0517578e-05,0.0001373291
-0.012339244,0.003701478,-0.20265895,-0.021774292,-0.25483704,9.8033905,-6.713867,16.397095,-44.363403,-0.022039428,-0.2516835,9.803394,0.0009851456,0.00023591518,0.00016403198,-0.00015258789,-0.0002593994,7.6293945e-05
-0.012387247,0.0037013146,-0.20268422,-0.022247314,-0.2514801,9.805542,-6.088257,15.99884,-44.169617,-0.02183892,-0.2526052,9.803372,-0.00042083114,-0.0017261803,-4.2915344e-05,-3.0517578e-05,-9.1552734e-05,-4.5776367e-05
-0.012369076,0.0037025954,-0.20267779,-0.023452759,-0.25125122,9.8029175,-5.493164,14.949036,-44.55719,-0.021937434,-0.25226122,9.803381,-0.00030710362,0.0010419488,-2.5749207e-05,-3.0517578e-05,-3.0517578e-05,7.6293945e-05
-0.012353415,0.0037031088,-0.20267072,-0.02130127,-0.25315857,9.803635,-5.986023,14.620972,-44.00177,-0.022011377,-0.2519624,9.803389,-0.0002495274,0.00097444654,-0.0009698868,-9.1552734e-05,-3.0517578e-05,0.00036621094
-0.012369187,0.0036968812,-0.20266318,-0.020584106,-0.25053406,9.805786,-7.08313,15.428162,-44.9234,-0.021831019,-0.2522403,9.803381,-0.00041479804,-0.0011450946,-0.0001745224,0.00021362305,-0.0002593994,0.00024414062
-0.01236336,0.0036509035,-0.202542,-0.02368164,-0.25028992,9.806274,-5.3375244,16.48407,-43.79883,-0.021002388,-0.2519431,9.8033905,0.0006642416,-3.4570694e-06,0.00035572052,0.00015258789,-0.00021362305,0.00030517578
-0.012281871,0.0036880525,-0.20259379,-0.022018433,-0.25268555,9.805313,-6.3323975,16.061401,-44.976807,-0.022026366,-0.25052705,9.803424,-0.0021396484,0.001960069,0.00182724,0.00015258789,-9.1552734e-05,7.6293945e-05
-0.012352565,0.0036926896,-0.20264353,-0.021774292,-0.25315857,9.8033905,-6.977844,15.791321,-43.647766,-0.021821663,-0.25190407,9.8033905,0.00029520132,-0.002402097,-0.00022315979,-9.1552734e-05,-3.0517578e-05,0.0001373291
-0.012357919,0.003699599,-0.20266412,-0.021057129,-0.2498169,9.8022,-5.805969,16.815186,-43.63556,-0.021927768,-0.25203478,9.803387,-0.00031634606,-0.00036984682,-0.00046539307,9.1552734e-05,3.0517578e-05,0.0002593994
-0.012297914,0.0036563997,-0.20252112,-0.022018433,-0.25123596,9.808426,-4.7927856,16.311646,-45.06378,-0.021373337,-0.25070778,9.803421,0.00079038553,0.0021098554,-0.0017499924,0.00015258789,-0.0002593994,7.6293945e-05
-0.012321303,0.0036506858,-0.20251895,-0.023208618,-0.25196838,9.805069,-5.079651,17.018127,-44.53125,-0.021171229,-0.25113416,9.803411,-0.0005997047,-0.0010232627,0.0020256042,-9.1552734e-05,-0.00015258789,0.0001373291
-0.0123290755,0.0036870881,-0.20261657,-0.02130127,-0.25268555,9.807465,-4.3914795,16.108704,-43.8385,-0.021814393,-0.25143018,9.803403,-0.0016339049,-0.0012039542,0.00086688995,0.00033569336,-9.1552734e-05,7.6293945e-05
-0.012343917,0.0036621082,-0.20256037,-0.022964478,-0.25076294,9.806259,-5.0827026,16.867065,-44.032288,-0.02129011,-0.25161466,9.803398,0.00023902394,-0.0009994805,0.0015287399,-3.0517578e-05,-0.00015258789,0.00018310547
-0.01231852,0.0036975008,-0.20263766,-0.022247314,-0.25100708,9.803162,-5.102539,16.429138,-44.12079,-0.022050908,-0.2512693,9.803406,-0.0016249828,0.0012890697,-0.00042057037,-9.1552734e-05,-9.1552734e-05,7.6293945e-05
-0.012312741,0.0036936037,-0.20262456,-0.021774292,-0.24957275,9.807709,-5.897522,14.923096,-44.696045,-0.022002397,-0.25114256,9.803409,0.00023191422,0.00017896295,-0.0017156601,9.1552734e-05,3.0517578e-05,0.00018310547
-0.012281514,0.0036852218,-0.20258634,-0.021774292,-0.25219727,9.800766,-5.7006836,15.739441,-44.766235,-0.021975335,-0.2505088,9.803425,-0.0002849102,0.0007184148,-0.0013017654,0.00015258789,-9.1552734e-05,7.6293945e-05
-0.012282465,0.003666631,-0.20253912,-0.0236969,-0.24932861,9.800278,-5.5755615,16.767883,-44.714355,-0.021626605,-0.25045216,9.803428,-0.00014424138,-0.0002708733,0.0010404587,-3.0517578e-05,-0.00021362305,-0.00010681152
-0.012285278,0.0036940447,-0.202611,-0.022979736,-0.25434875,9.806503,-5.541992,15.59906,-44.197083,-0.022123504,-0.25061667,9.803422,-0.0013289042,0.00033071637,-0.002811432,-9.1552734e-05,3.0517578e-05,0.00036621094
-0.012343541,0.0037332694,-0.20274287,-0.023208618,-0.24909973,9.801727,-5.345154,16.33606,-43.75305,-0.02261129,-0.25189433,9.803389,-0.0008402448,-0.0029290617,0.0006761551,0.00015258789,-9.1552734e-05,-4.5776367e-05
-0.012293754,0.00371437,-0.20266771,-0.021774292,-0.24885559,9.8033905,-4.914856,17.098999,-44.371033,-0.022465626,-0.2508615,9.803415,-2.652593e-05,0.0017539859,-0.001627922,3.0517578e-05,-3.0517578e-05,0.00048828125
-0.012251912,0.0036949334,-0.20259543,-0.022735596,-0.2514801,9.804108,-5.2490234,16.706848,-43.681335,-0.022277169,-0.24997917,9.803438,0.00050361454,0.0018490106,0.0013065338,-3.0517578e-05,-0.0001373291,0.0
-0.012291338,0.0036980677,-0.20262457,-0.023208618,-0.25004578,9.803635,-6.222534,16.648865,-44.56024,-0.022173202,-0.25074932,9.803418,-0.000790054,-0.0014341176,0.00039291382,-3.0517578e-05,-0.00021362305,6.1035156e-05
-0.012261328,0.0036953217,-0.20260146,-0.022491455,-0.25076294,9.802444,-6.744385,15.663147,-44.059753,-0.02224566,-0.25016165,9.803433,-0.0007182192,0.00083974004,-0.0005350113,3.0517578e-05,-9.1552734e-05,1.5258789e-05
-0.012266274,0.0036995325,-0.20261492,-0.023925781,-0.25268555,9.803635,-5.480957,16.98761,-44.143677,-0.02230343,-0.25027364,9.803431,-0.00090542994,-0.00024786592,-0.0008792877,3.0517578e-05,-9.1552734e-05,0.0004272461
-0.012313579,0.0036992477,-0.20263949,-0.022018433,-0.2524414,9.805786,-5.0491333,15.774536,-43.954468,-0.022103626,-0.25118142,9.803408,-0.00014275499,-0.0014935434,0.0010032654,-3.0517578e-05,-0.00015258789,0.00036621094
-0.012328415,0.0037166309,-0.20269206,-0.022979736,-0.25315857,9.803162,-6.185913,15.783691,-45.19043,-0.022364978,-0.2515366,9.803399,-0.0010849591,-0.00087305903,0.0016241074,-3.0517578e-05,-0.0002593994,0.0004272461
-0.012357832,0.003699658,-0.20266423,-0.021530151,-0.25196838,9.805313,-5.6869507,15.87677,-43.68286,-0.021929216,-0.25203332,9.803386,-0.0003160555,-0.0006287694,-0.000664711,-9.1552734e-05,-0.0002593994,0.00018310547
-0.012347992,0.0036884837,-0.20263028,-0.020339966,-0.2524414,9.807709,-5.4138184,16.551208,-43.556213,-0.021762477,-0.25179923,9.803392,-0.00048260018,0.0003450215,0.00019550323,3.0517578e-05,-9.1552734e-05,7.6293945e-05
-0.0123843,0.0036684608,-0.20259829,-0.0236969,-0.24813843,9.806747,-5.9188843,16.156006,-44.06891,-0.021241862,-0.25241613,9.803377,0.0011502858,-0.0011649728,0.0018815994,-3.0517578e-05,3.0517578e-05,-4.5776367e-05
-0.012292325,0.003694159,-0.20261507,-0.02368164,-0.2514801,9.804825,-5.680847,16.252136,-45.039368,-0.022096649,-0.25075254,9.803419,-0.0015941411,0.0031717122,0.0015792847,9.1552734e-05,9.1552734e-05,1.5258789e-05
-0.012297259,0.0037214789,-0.20268783,-0.021530151,-0.2524414,9.80603,-6.112671,15.794373,-46.0968,-0.022583054,-0.25095752,9.803413,-0.0006210245,-0.00096040964,-0.0015048981,9.1552734e-05,-9.1552734e-05,-4.5776367e-05
-0.012320852,0.003714136,-0.20268162,-0.022018433,-0.24885559,9.806747,-6.2789917,15.483093,-45.021057,-0.022349823,-0.2513812,9.803402,0.00010806136,-0.0007536113,0.0009098053,0.00015258789,-3.0517578e-05,-0.00010681152
-0.012262866,0.0036884511,-0.20258465,-0.024887085,-0.25125122,9.806992,-7.00531,15.283203,-44.27643,-0.022111896,-0.25016353,9.803434,-0.0001300294,0.0020860732,-3.71933e-05,-9.1552734e-05,-0.0002593994,6.1035156e-05
-0.012294573,0.0037264212,-0.20269908,-0.02130127,-0.25028992,9.804352,-5.7647705,15.945435,-43.740845,-0.02268576,-0.25092584,9.803413,-0.0017065797,-0.00072690845,0.00078487396,-0.00015258789,-3.0517578e-05,6.1035156e-05
-0.012286838,0.0036975634,-0.20262086,-0.022735596,-0.25411987,9.802673,-5.9265137,16.087341,-44.761658,-0.022182353,-0.25066084,9.803421,0.00088653155,0.0004324913,-0.00076007843,-3.0517578e-05,3.0517578e-05,0.0001373291
-0.012358881,0.0037084403,-0.20268734,-0.022247314,-0.25291443,9.804352,-6.034851,17.089844,-43.421936,-0.022087757,-0.25208887,9.803384,0.00031696074,-0.0024641156,-0.0017747879,-3.0517578e-05,-3.0517578e-05,-4.5776367e-05
-0.012361294,0.0037146476,-0.20270458,-0.024887085,-0.25076294,9.805069,-4.486084,15.892029,-44.558716,-0.02219293,-0.25216028,9.803382,-0.001012791,-0.00024819374,-0.0005540848,0.00015258789,-0.00015258789,0.00018310547
-0.012328049,0.0037274782,-0.20271972,-0.025131226,-0.25172424,9.801239,-5.593872,16.098022,-43.33954,-0.022567641,-0.2515733,9.803396,-0.0011116806,0.00083622336,-0.00052547455,9.1552734e-05,-0.00015258789,7.6293945e-05
-0.012325879,0.0037840586,-0.20286381,-0.02368164,-0.25076294,9.804596,-5.0994873,16.50238,-44.107056,-0.023625799,-0.25176004,9.80339,-0.0024513751,-0.00020733476,-0.0019464493,-0.00021362305,-3.0517578e-05,-0.00010681152
-0.012303738,0.003773463,-0.20282474,-0.022735596,-0.24813843,9.802673,-4.8217773,17.320251,-44.02771,-0.02352047,-0.2512918,9.803402,0.0003136024,0.0010206103,0.0014095306,-9.1552734e-05,3.0517578e-05,6.1035156e-05
-0.012278954,0.0037605322,-0.20277828,-0.021530151,-0.25196838,9.805313,-6.8389893,15.441895,-44.477844,-0.023382664,-0.2507634,9.803415,0.00017420761,0.0016806424,-0.001282692,9.1552734e-05,-9.1552734e-05,-4.5776367e-05
-0.012293224,0.003720039,-0.20268197,-0.024414062,-0.25219727,9.8022,-5.291748,15.910339,-44.59839,-0.022572944,-0.25087416,9.803414,0.0007996727,-0.00059458613,0.0007381439,-3.0517578e-05,-0.00015258789,0.00024414062
-0.012303014,0.0037530982,-0.20277208,-0.022247314,-0.25291443,9.806274,-5.584717,16.549683,-44.8349,-0.023145778,-0.25119567,9.803405,-0.0012673847,-0.0009918213,-0.00015163422,3.0517578e-05,-9.1552734e-05,-0.00010681152
-0.012337416,0.0037183466,-0.20270129,-0.021057129,-0.25100708,9.8022,-5.8685303,17.176819,-43.56079,-0.022359764,-0.25171643,9.803393,0.0005873423,-0.0009480417,0.00085544586,0.00021362305,-0.00021362305,0.00018310547
-0.012308275,0.0036908365,-0.20261507,-0.020339966,-0.25125122,9.803162,-6.17218,15.922546,-44.406128,-0.02196944,-0.2510456,9.8034115,0.00044067018,0.0005273521,-0.0003938675,-3.0517578e-05,-0.00021362305,1.5258789e-05
-0.012331873,0.0036473756,-0.2025161,-0.023452759,-0.2524414,9.805313,-5.1361084,15.85083,-44.99359,-0.021740979,-0.25171593,9.803394,-0.0017100908,-0.0011789501,0.0016298294,0.00015258789,-9.1552734e-05,-0.00016784668
-0.012299786,0.0036880895,-0.20260347,-0.022491455,-0.25125122,9.805069,-5.1757812,16.644287,-44.226074,-0.021953396,-0.25087142,9.803415,-0.0005360674,0.0015655458,0.00029182434,-3.0517578e-05,3.0517578e-05,6.1035156e-05
-0.012328854,0.0037063335,-0.20266587,-0.024169922,-0.25268555,9.803635,-5.7647705,15.94696,-43.89038,-0.022172209,-0.25150347,9.803399,-0.00031717494,-0.00067031384,3.71933e-05,-0.00015258789,-3.0517578e-05,0.0001373291
-0.012334868,0.0037245958,-0.20271596,-0.022979736,-0.25053406,9.806503,-5.36499,15.899658,-43.91632,-0.022486128,-0.25169268,9.803393,-0.0007207133,-0.00025579333,-0.000289917,3.0517578e-05,3.0517578e-05,7.6293945e-05
-0.012306457,0.003745823,-0.20275526,-0.022018433,-0.25125122,9.804108,-5.026245,16.360474,-44.06433,-0.022996686,-0.25123248,9.803405,-0.0009249188,0.0009881556,0.0020360947,-9.1552734e-05,3.0517578e-05,-0.00010681152
-0.012342056,0.0037254838,-0.2027221,-0.023208618,-0.2524414,9.805313,-5.6121826,15.965271,-45.025635,-0.022473022,-0.2518344,9.8033905,0.00045732595,-0.00082048774,-0.0011930466,3.0517578e-05,-0.00021362305,1.5258789e-05
-0.012331919,0.003730139,-0.20272861,-0.023452759,-0.25004578,9.804352,-4.6432495,16.178894,-45.7016,-0.022601062,-0.2516584,9.803395,-0.0006040763,0.00021705031,0.0006380081,9.1552734e-05,-3.0517578e-05,1.5258789e-05
-0.012312258,0.0037217839,-0.20269665,-0.022491455,-0.25411987,9.8029175,-5.69458,15.731812,-43.86139,-0.022527011,-0.2512469,9.803405,0.00028162636,0.0005054772,-0.0013275146,9.1552734e-05,3.0517578e-05,0.00024414062
-0.012336668,0.003751043,-0.20278484,-0.023925781,-0.25076294,9.8029175,-5.444336,15.893555,-43.688965,-0.02296916,-0.25183398,9.803389,-0.00072544627,-0.0017724931,0.00022888184,-3.0517578e-05,3.0517578e-05,0.00036621094
-0.012312131,0.0037696343,-0.20281942,-0.0236969,-0.25076294,9.805313,-5.317688,15.402222,-45.07599,-0.023414917,-0.2514376,9.803398,-0.00075367093,0.0011620224,-0.00081062317,-3.0517578e-05,-3.0517578e-05,1.5258789e-05
-0.012307488,0.003762598,-0.20279887,-0.022735596,-0.25196838,9.803635,-5.2734375,16.27655,-44.4458,-0.023303537,-0.25131997,9.803401,-0.0001470223,0.00033661723,0.0007419586,3.0517578e-05,-9.1552734e-05,0.0001373291
-0.012335529,0.0037524435,-0.20278782,-0.024642944,-0.2524414,9.804596,-5.744934,16.610718,-44.813538,-0.02299982,-0.25181776,9.80339,0.0002655182,-0.0013266504,-0.0007801056,0.00015258789,-3.0517578e-05,-6.1035156e-05
-0.012324816,0.0037816756,-0.20285712,-0.023208618,-0.25172424,9.805786,-5.4382324,15.965271,-43.44635,-0.02358599,-0.25172997,9.8033905,-0.0010545161,-0.00044125319,0.0009088516,-0.00015258789,3.0517578e-05,1.5258789e-05
-0.012329332,0.0037866116,-0.20287222,-0.023208618,-0.25219727,9.801956,-5.5160522,16.259766,-44.517517,-0.023658924,-0.2518367,9.803388,0.00020855851,0.0006109178,-2.7656555e-05,3.0517578e-05,3.0517578e-05,0.00019836426
-0.012328408,0.0037725454,-0.2028356,-0.023208618,-0.25053406,9.805313,-5.94635,15.574646,-44.487,-0.023401894,-0.2517621,9.80339,0.00042374246,-0.00018924475,-0.00066280365,0.00015258789,3.0517578e-05,-4.5776367e-05
-0.012315427,0.003759551,-0.2027953,-0.023452759,-0.25364685,9.803635,-5.882263,16.88385,-43.545532,-0.02321436,-0.25146022,9.803398,0.00048093684,3.6656857e-06,0.0005092621,9.1552734e-05,3.0517578e-05,1.5258789e-05
-0.012329417,0.0037650834,-0.202817,-0.022491455,-0.25028992,9.805786,-4.7851562,16.38031,-44.4458,-0.023259364,-0.25175136,9.8033905,-0.00019230135,-0.00067821145,-0.00093364716,-9.1552734e-05,-3.0517578e-05,0.0001373291
-0.012310086,0.0037407924,-0.20274428,-0.022247314,-0.2524414,9.804108,-5.996704,16.299438,-44.56482,-0.022888463,-0.2512819,9.803404,0.0003999304,0.0007799268,0.0016040802,0.0002746582,-0.00015258789,0.0001373291
-0.012325317,0.0037352801,-0.20273829,-0.023208618,-0.25315857,9.804825,-5.7403564,16.609192,-44.361877,-0.022723569,-0.25155228,9.803397,-9.8813325e-06,-0.0013383925,-0.0006875992,9.1552734e-05,-3.0517578e-05,7.6293945e-05
-0.012330933,0.003747424,-0.20277247,-0.024414062,-0.25028992,9.805313,-5.1757812,16.644287,-44.37561,-0.022925658,-0.2517092,9.803392,-0.00052377954,-0.0006957352,0.0009727478,-3.0517578e-05,-0.00015258789,-4.5776367e-05
-0.012328745,0.0037465878,-0.20276915,-0.022735596,-0.2514801,9.802444,-5.0857544,16.871643,-44.56024,-0.022919154,-0.2516638,9.803394,-0.0010036789,0.0006891191,-0.00030326843,-9.1552734e-05,-0.0002593994,-0.00022888184
-0.012298101,0.0037299232,-0.20270996,-0.021530151,-0.25053406,9.804352,-5.657959,16.685486,-44.425964,-0.022736195,-0.25100774,9.803411,2.7008355e-06,0.0012140274,-0.00068187714,9.1552734e-05,3.0517578e-05,6.1035156e-05
-0.012312308,0.003709414,-0.20266491,-0.022491455,-0.25100708,9.805542,-4.975891,15.788269,-44.86084,-0.022297394,-0.251198,9.803407,0.00052556396,-0.0007426441,0.00033569336,9.1552734e-05,-9.1552734e-05,6.1035156e-05
-0.012297954,0.0036906907,-0.20260917,-0.025131226,-0.25172424,9.804352,-5.618286,15.742493,-44.54193,-0.022009175,-0.2508467,9.803416,0.00046626478,0.00011226535,6.580353e-05,9.1552734e-05,-3.0517578e-05,-4.5776367e-05
-0.0122925425,0.003777503,-0.20282912,-0.024642944,-0.2498169,9.80101,-6.013489,15.858459,-44.200134,-0.023641476,-0.251093,9.803406,-0.0031507723,-0.00036388636,-0.00043296814,-9.1552734e-05,-3.0517578e-05,-0.00010681152
-0.0122845415,0.003762844,-0.2027872,-0.022247314,-0.25100708,9.806747,-5.015564,16.505432,-43.807983,-0.023402542,-0.2508801,9.803412,-0.00052296184,0.000349015,-0.001572609,3.0517578e-05,-0.00038146973,-0.00010681152
-0.012277001,0.0037341092,-0.20270942,-0.024887085,-0.25076294,9.8022,-5.836487,16.31012,-44.49463,-0.022900637,-0.2506192,9.80342,0.0004113838,0.00059750676,0.0016679764,-3.0517578e-05,-3.0517578e-05,0.00018310547
-0.012282682,0.0037521096,-0.20275865,-0.02130127,-0.25268555,9.806259,-4.7973633,16.087341,-44.355774,-0.023211114,-0.25080103,9.803415,-0.0012025982,-0.0006752908,-0.0016069412,0.00015258789,-9.1552734e-05,6.1035156e-05
-0.012291161,0.0037132257,-0.20266339,-0.022018433,-0.24838257,9.8029175,-4.5806885,15.515137,-44.177246,-0.022455066,-0.25080708,9.803417,0.0011563841,-0.00041523576,0.0019569397,3.0517578e-05,-0.00021362305,1.5258789e-05
-0.012289041,0.0037079707,-0.20264876,-0.022247314,-0.25028992,9.80722,-5.7678223,17.617798,-43.17169,-0.022366323,-0.25074515,9.803419,-0.00036703981,0.00048026443,-0.000289917,-3.0517578e-05,-3.0517578e-05,0.00030517578
-0.012264637,0.0036944533,-0.202601,-0.024169922,-0.25004578,9.8022,-5.522156,16.035461,-44.03534,-0.022215942,-0.25022173,9.8034315,0.00020020455,0.0011523366,0.00044822693,-3.0517578e-05,-3.0517578e-05,0.0001373291
-0.012257718,0.0037257054,-0.20267752,-0.018661499,-0.25125122,9.803162,-5.194092,16.281128,-44.60144,-0.022824086,-0.25021482,9.8034315,-0.0011004265,-0.0003053546,-0.0013017654,0.00021362305,-3.0517578e-05,-0.00018310547
-0.012279066,0.0036616975,-0.20252463,-0.021774292,-0.25315857,9.801239,-5.722046,15.22522,-44.56787,-0.02154906,-0.250367,9.80343,0.002400061,-0.000875175,-0.00039482117,9.1552734e-05,-3.0517578e-05,-0.00010681152
-0.012328742,0.0036850816,-0.20261124,-0.022262573,-0.2545929,9.805786,-6.1782837,15.699768,-43.847656,-0.021778552,-0.25141567,9.803403,-0.0007138308,-7.5131655e-05,-6.771088e-05,-0.00021362305,-9.1552734e-05,0.00024414062
-0.012372217,0.0037060506,-0.20268835,-0.022247314,-0.25196838,9.806976,-5.0964355,16.499329,-43.730164,-0.021988578,-0.25233552,9.803379,-0.00074616633,-0.0015304685,0.0015544891,9.1552734e-05,-3.0517578e-05,0.0001373291
-0.01235478,0.0037004063,-0.20266452,-0.021057129,-0.24908447,9.805786,-5.619812,15.666199,-44.332886,-0.02195565,-0.25197774,9.803389,0.00018515252,-0.00017598271,0.002626419,3.0517578e-05,-9.1552734e-05,7.6293945e-05
-0.012312636,0.003668456,-0.20255993,-0.023925781,-0.2514801,9.804596,-4.93927,16.589355,-44.473267,-0.021536436,-0.2510392,9.803412,1.0116026e-05,0.00222826,0.00015640259,9.1552734e-05,-9.1552734e-05,-0.00010681152
-0.012314492,0.0037226374,-0.20270003,-0.023208618,-0.2536316,9.8033905,-4.447937,16.69159,-44.02008,-0.022533648,-0.2512933,9.803405,-0.0018762667,-0.000628829,0.0001039505,-3.0517578e-05,-3.0517578e-05,7.6293945e-05
-0.012346121,0.0037186989,-0.20270686,-0.023925781,-0.2498169,9.800522,-4.949951,16.217041,-43.792725,-0.022330483,-0.25188512,9.80339,-0.00015910715,-0.0012524128,-0.0020074844,-9.1552734e-05,-0.00021362305,0.0001373291
-0.012311157,0.0037294615,-0.20271577,-0.022735596,-0.25028992,9.801712,-4.7088623,16.386414,-44.750977,-0.022673924,-0.25125673,9.803405,-0.0014969874,0.001673013,-0.0024547577,-9.1552734e-05,-0.0002593994,0.0001373291
-0.012315087,0.003721041,-0.20269625,-0.024414062,-0.25125122,9.8033905,-6.550598,16.403198,-43.91632,-0.022501592,-0.25129828,9.803404,-0.0004644692,0.00051763654,-0.0005130768,-9.1552734e-05,-0.00015258789,0.00018310547
-0.012297666,0.003749876,-0.20276095,-0.022018433,-0.2514801,9.803635,-5.949402,15.577698,-44.86389,-0.023108032,-0.2510799,9.803408,-0.0015358273,0.00053587556,0.00061511993,-9.1552734e-05,-3.0517578e-05,0.00030517578
-0.0123403175,0.0037088974,-0.20267858,-0.022735596,-0.25387573,9.800278,-5.5236816,16.036987,-44.184875,-0.022172598,-0.25173408,9.803393,0.0008703973,-0.00071790814,-6.389618e-05,-3.0517578e-05,-0.00021362305,0.0001373291
-0.01238332,0.0037236835,-0.20273957,-0.021057129,-0.25219727,9.804825,-4.5455933,16.473389,-45.191956,-0.022269838,-0.25261998,9.803371,-0.00046778843,-0.001278758,-0.0009946823,-0.00012207031,-7.6293945e-05,7.6293945e-05
-0.0123813525,0.0036964107,-0.20266849,-0.023208618,-0.25268555,9.804352,-6.159973,16.137695,-43.910217,-0.021772241,-0.25247216,9.803375,0.0009584669,0.0002657771,0.001086235,-6.1035156e-05,-0.00018310547,0.00030517578
-0.012365894,0.0037265592,-0.20273761,-0.0236969,-0.25100708,9.805557,-5.1101685,16.209412,-43.862915,-0.022394877,-0.25229675,9.803379,-0.0015310626,9.769201e-05,0.00056934357,6.1035156e-05,-1.5258789e-05,7.6293945e-05
-0.012349533,0.003732375,-0.2027438,-0.024642944,-0.25291443,9.803162,-5.453491,15.750122,-44.09485,-0.022570048,-0.25200585,9.803386,-0.0006370209,0.0005430281,0.0014982224,-6.1035156e-05,-7.6293945e-05,0.00012207031
-0.012365115,0.0037723624,-0.2028548,-0.022491455,-0.24932861,9.803879,-4.7561646,15.292358,-44.89746,-0.023247365,-0.25246665,9.803372,-0.001882961,3.501773e-05,-0.0005903244,-0.00018310547,-7.6293945e-05,-0.00010681152
-0.012326454,0.003736034,-0.20274083,-0.021774292,-0.25076294,9.803146,-5.6671143,16.390991,-44.10553,-0.022732867,-0.25157717,9.803396,0.00095949136,0.0020145774,8.678436e-05,-0.00012207031,-1.5258789e-05,1.5258789e-05
-0.012330597,0.0037277217,-0.20272171,-0.024169922,-0.25076294,9.804596,-5.1071167,16.204834,-43.411255,-0.022561673,-0.25162324,9.803395,7.081963e-05,0.00014984608,-0.00026607513,0.00012207031,-0.00018310547,0.00018310547
-0.012293982,0.0037304342,-0.20270906,-0.022247314,-0.25053406,9.803162,-5.2841187,16.05835,-44.718933,-0.022762619,-0.25093067,9.803412,-0.0009328034,0.0011300445,0.0007762909,-6.1035156e-05,4.5776367e-05,1.5258789e-05
-0.012295765,0.0037293076,-0.20270713,-0.024642944,-0.25172424,9.804352,-5.557251,17.056274,-44.27643,-0.022734392,-0.25096038,9.803412,-6.016344e-07,-4.0084124e-05,-0.0007543564,-6.1035156e-05,-0.00018310547,-0.00010681152
-0.012302024,0.0037607474,-0.20279118,-0.023452759,-0.25125122,9.804596,-6.300354,16.71753,-44.46869,-0.023291707,-0.25120753,9.803404,-0.0013498645,-0.00074604154,0.00061416626,0.00012207031,0.00010681152,0.00018310547
-0.012292073,0.003769261,-0.20280771,-0.0236969,-0.25125122,9.804596,-5.9295654,15.939331,-44.413757,-0.023490554,-0.2510507,9.803408,-0.00043336488,0.0005365312,0.00041103363,-6.1035156e-05,-7.6293945e-05,0.00012207031
-0.012292686,0.003759145,-0.20278208,-0.022018433,-0.25004578,9.803162,-6.2530518,15.992737,-44.76776,-0.023300426,-0.25102162,9.803409,0.00056737475,4.196167e-05,0.0005893707,0.0,0.00016784668,0.00012207031
-0.01228709,0.003746586,-0.20274684,-0.023452759,-0.2498169,9.8033905,-5.911255,16.300964,-43.963623,-0.023090534,-0.2508634,9.803413,0.0006003622,0.00034329295,-0.0010414124,6.1035156e-05,-1.5258789e-05,1.5258789e-05
-0.012242978,0.0037276733,-0.20267469,-0.0236969,-0.25028992,9.802673,-6.063843,16.508484,-43.840027,-0.0229212,-0.24993956,9.803438,0.0006738659,0.0006107241,-3.9100647e-05,0.0,-0.00024414062,0.00012207031
-0.012269,0.0037116485,-0.20264748,-0.020584106,-0.25196838,9.804825,-4.8477173,16.81366,-44.50836,-0.022516953,-0.25037488,9.803428,0.00026960857,-0.0006325245,-2.3841858e-05,-0.00012207031,4.5776367e-05,-4.5776367e-05
-0.012304994,0.003687882,-0.20260572,-0.025360107,-0.2507782,9.805069,-4.9484253,16.445923,-45.030212,-0.021928135,-0.25097066,9.803413,0.0008716937,-0.0005015433,0.0006303787,-0.00012207031,-7.6293945e-05,-0.00010681152
-0.012290856,0.0037578947,-0.20277789,-0.02130127,-0.2524414,9.800522,-5.670166,16.165161,-43.095398,-0.023284765,-0.25098142,9.80341,-0.0023186244,0.00021246076,0.0001077652,-6.1035156e-05,4.5776367e-05,-0.000289917
-0.012305203,0.0037367912,-0.2027314,-0.023925781,-0.25123596,9.802429,-6.4193726,15.83252,-44.340515,-0.022834351,-0.25117192,9.803407,0.0010587573,-0.00056663156,-0.0018529892,0.00018310547,4.5776367e-05,-4.5776367e-05
-0.012317532,0.0037453882,-0.20276007,-0.022247314,-0.2514801,9.804108,-6.303406,16.566467,-44.12079,-0.022943055,-0.2514435,9.8034,-0.0005111303,-0.0005405247,-0.00011634827,-0.00024414062,-0.0001373291,-6.1035156e-05
-0.012322962,0.0037415707,-0.20275317,-0.0236969,-0.25196838,9.801956,-5.6137085,15.814209,-44.30237,-0.022849912,-0.25153244,9.803397,0.0001137387,0.00027486682,0.00072956085,6.1035156e-05,4.5776367e-05,-4.5776367e-05
-0.012333586,0.003749475,-0.20277916,-0.023208618,-0.25219727,9.802673,-5.6030273,16.035461,-44.483948,-0.022952769,-0.25176847,9.803391,-0.0005016774,-0.00044730306,-0.0009584427,0.0,-0.0001373291,1.5258789e-05
-0.012327488,0.0037601348,-0.20280325,-0.025848389,-0.25219727,9.803146,-6.550598,16.479492,-44.277954,-0.023175541,-0.25169432,9.803392,-0.00027966872,-0.00030067563,-0.0006427765,0.00012207031,4.5776367e-05,-0.00022888184
-0.012320575,0.003814844,-0.20293999,-0.021530151,-0.2534027,9.804825,-6.0317993,15.493774,-44.273376,-0.024218507,-0.25178254,9.803388,-0.0018602517,-0.00067433715,0.0008497238,0.0,0.00016784668,1.5258789e-05
-0.012363255,0.00377951,-0.20287216,-0.023925781,-0.25053406,9.8033905,-5.7678223,16.099548,-44.917297,-0.023387548,-0.25245976,9.803371,0.0020868834,-0.0011653006,0.0016880035,0.00012207031,0.00010681152,7.6293945e-05
-0.012321127,0.0037827818,-0.20285799,-0.02368164,-0.2524414,9.8033905,-6.6329956,16.400146,-44.065857,-0.02362169,-0.25166357,9.803392,0.00016912818,0.0011315942,-0.00031280518,-6.1035156e-05,0.00010681152,-0.00016784668
-0.012323908,0.003774692,-0.2028387,-0.022964478,-0.25315857,9.801712,-5.8563232,17.391968,-43.06488,-0.023460224,-0.2516843,9.803391,-0.0002212841,-3.8534403e-05,-5.6266785e-05,0.0,-1.5258789e-05,-0.00010681152
-0.01237096,0.0037923083,-0.20290914,-0.021530151,-0.2534027,9.803635,-5.2474976,16.706848,-43.5318,-0.023593115,-0.25265953,9.803367,0.0003842581,-0.0017070472,-0.00034999847,6.1035156e-05,0.00010681152,-0.00024414062
-0.012377659,0.0037634692,-0.20283869,-0.024887085,-0.25076294,9.802444,-5.026245,16.287231,-43.850708,-0.023030823,-0.25267175,9.803368,0.0015003625,-0.0004902184,-7.43866e-05,0.0,4.5776367e-05,-4.5776367e-05
-0.012338461,0.0037741389,-0.20284508,-0.022491455,-0.25219727,9.802429,-5.7785034,15.501404,-42.9245,-0.023390047,-0.2519617,9.803385,-0.0007806923,0.0021360219,-0.00036907196,-6.1035156e-05,-1.5258789e-05,-0.00016784668
-0.012357345,0.0037695644,-0.20284346,-0.021774292,-0.25387573,9.8029175,-5.911255,16.226196,-43.525696,-0.023227481,-0.25230607,9.803377,0.000260029,-0.0006406903,-0.0018434525,0.0,0.00010681152,-0.00016784668
-0.012364661,0.0037649372,-0.2028355,-0.02368164,-0.2524414,9.804352,-6.2545776,15.763855,-43.60504,-0.023111556,-0.25242797,9.803374,0.0010917392,-0.0007457435,0.0013208389,0.00012207031,0.00010681152,-4.5776367e-05
-0.012377699,0.0037812102,-0.20288426,-0.02368164,-0.25508118,9.802429,-6.7855835,16.532898,-43.8797,-0.02335959,-0.25274417,9.803365,-0.00032218546,-0.00065997243,0.0010433197,-0.00012207031,4.5776367e-05,7.6293945e-05
-0.012414779,0.0037985113,-0.20294856,-0.022262573,-0.25028992,9.802429,-5.314636,15.39917,-44.700623,-0.0235276,-0.2535265,9.803345,-0.00015484169,-0.0010749996,-0.00058174133,-0.00012207031,0.00010681152,-0.00010681152
-0.012371321,0.0037776225,-0.20287164,-0.024414062,-0.25125122,9.800766,-5.895996,16.51764,-43.31665,-0.023319336,-0.25260714,9.803369,0.0005828086,0.002078265,-6.0081482e-05,0.00012207031,4.5776367e-05,-0.00010681152
-0.012347124,0.0037861513,-0.20288056,-0.022018433,-0.2514801,9.804352,-5.213928,15.765381,-44.32831,-0.023577122,-0.25217667,9.803379,-0.0001223106,0.00042530894,-0.0013151169,-6.1035156e-05,0.00010681152,-0.00016784668
-0.01232388,0.0037600312,-0.20280106,-0.019378662,-0.25172424,9.803879,-5.4229736,16.481018,-44.023132,-0.023188474,-0.25162458,9.803394,0.0011685397,0.0013183653,0.000875473,-6.1035156e-05,0.00010681152,-0.00016784668
-0.0123589635,0.0036984403,-0.20266171,-0.022018433,-0.254364,9.801956,-5.496216,16.467285,-43.11676,-0.02190198,-0.25205016,9.803386,0.002278611,-0.00087079406,0.000746727,0.00012207031,-7.6293945e-05,-0.00010681152
-0.012393503,0.0037064764,-0.20270084,-0.023925781,-0.25100708,9.805786,-5.7769775,15.80658,-44.522095,-0.021908887,-0.2527462,9.803368,0.00037786923,-0.001383692,-0.00030612946,-6.1035156e-05,0.00010681152,-0.00016784668
-0.012340488,0.0037511326,-0.2027871,-0.0236969,-0.2514801,9.803635,-5.758667,15.940857,-43.063354,-0.022955095,-0.25190774,9.803387,-0.001457734,0.0016313493,0.0018720627,-6.1035156e-05,0.00022888184,1.5258789e-05
-0.012323986,0.0037553392,-0.20278907,-0.021057129,-0.25028992,9.804596,-5.1757812,16.4917,-43.426514,-0.023101028,-0.25160766,9.803394,0.00012210198,0.0006094277,-0.00034809113,0.0,4.5776367e-05,-4.5776367e-05
-0.012317383,0.0037337977,-0.20273024,-0.022247314,-0.25172424,9.803635,-5.213928,15.615845,-43.52722,-0.022728723,-0.25139385,9.803401,0.000467591,0.0006468594,0.00057315826,6.1035156e-05,-0.00018310547,0.00024414062
-0.012325774,0.0037215196,-0.20270321,-0.024398804,-0.24932861,9.803879,-6.0440063,17.02118,-44.11316,-0.022466505,-0.25150555,9.803399,0.0002201479,-0.00068101287,-0.00042629242,0.0,-1.5258789e-05,-0.00016784668
-0.0122930715,0.0037349383,-0.20272015,-0.022491455,-0.25196838,9.803879,-5.7510376,16.389465,-44.55719,-0.0228499,-0.25093135,9.803412,-0.00083057955,0.0016154945,0.00019741058,-6.1035156e-05,4.5776367e-05,0.00019836426
-0.012300936,0.0037426054,-0.20274404,-0.023452759,-0.25125122,9.804108,-6.262207,15.847778,-45.09735,-0.022959737,-0.25111338,9.803408,-0.00024792366,-0.00012734532,-0.0001821518,0.0,-0.0001373291,0.00018310547
-0.0123335505,0.0037337795,-0.20273884,-0.022018433,-0.2524414,9.804108,-5.4214478,16.481018,-44.0979,-0.022358129,-0.25194487,9.803389,-0.00031630136,-0.0009635985,0.0005207062,-0.00018310547,-0.00024414062,0.00036621094
-0.012306126,0.0037256237,-0.20270322,-0.023208618,-0.25268555,9.803635,-5.593872,16.252136,-44.213867,-0.022623446,-0.2511446,9.803408,-0.00082779676,0.001832813,0.00028705597,-0.00012207031,0.00010681152,-0.00010681152
-0.012341366,0.003742434,-0.20276524,-0.025360107,-0.25268555,9.805069,-6.6879272,16.978455,-44.09485,-0.022790186,-0.2518895,9.803388,-0.00017306022,-0.0010113418,-0.0002822876,-0.00012207031,-0.00018310547,-0.000289917
-0.012332509,0.0037866256,-0.20287395,-0.025131226,-0.25434875,9.804352,-4.8828125,15.931702,-44.081116,-0.0236461,-0.25189778,9.803386,-0.0026727226,-4.3034554e-05,0.0010824203,0.00012207031,-0.0001373291,-0.00010681152
-0.012386424,0.0038108837,-0.20296513,-0.024887085,-0.25100708,9.801956,-6.121826,16.941833,-43.67218,-0.023873802,-0.2530317,9.803356,-0.0005231891,-0.0020150244,-0.00071048737,-0.00012207031,4.5776367e-05,-0.00010681152
-0.012345735,0.003818847,-0.20296375,-0.0236969,-0.2534027,9.8033905,-6.3980103,16.192627,-43.73932,-0.024189087,-0.2522821,9.803374,-0.00069737993,0.0015256405,-0.00095176697,6.1035156e-05,-1.5258789e-05,-0.00010681152
-0.012361472,0.0038164572,-0.20296605,-0.0236969,-0.25100708,9.8022,-5.607605,16.111755,-45.14923,-0.024079943,-0.25257483,9.803368,0.0001548063,-0.0008211136,4.7683716e-06,0.0,-1.5258789e-05,0.00018310547
-0.012330733,0.003797988,-0.20290217,-0.021774292,-0.24861145,9.803879,-5.253601,16.560364,-43.40973,-0.02386411,-0.25190958,9.803386,0.00016585924,0.0016054213,-0.0015916824,-0.00012207031,-0.0001373291,0.00012207031
-0.012298418,0.0037570386,-0.20277974,-0.022491455,-0.24932861,9.803635,-5.6655884,16.389465,-43.955994,-0.023237769,-0.25112328,9.803407,0.0007457733,0.0017888248,0.00069999695,0.0,4.5776367e-05,0.00018310547
-0.0122737745,0.0037455673,-0.2027371,-0.025360107,-0.25125122,9.807465,-5.79834,17.034912,-43.81714,-0.023126423,-0.25060347,9.80342,0.0008792747,0.00078836083,0.00061798096,6.1035156e-05,0.00010681152,0.00018310547
-0.012249986,0.0037835562,-0.20282187,-0.024414062,-0.24932861,9.805069,-7.849121,16.17279,-44.137573,-0.02392891,-0.25029978,9.803426,-0.0014276225,0.00053551793,0.0028028488,0.0,4.5776367e-05,7.6293945e-05
-0.012256549,0.0037880915,-0.20283702,-0.024887085,-0.2524414,9.8022,-5.996704,16.297913,-44.337463,-0.023986015,-0.25044423,9.803423,6.376766e-05,-5.2928925e-05,-4.196167e-05,-6.1035156e-05,-1.5258789e-05,1.5258789e-05
-0.012282951,0.0038090919,-0.20290506,-0.022964478,-0.2514801,9.801956,-4.8553467,16.43982,-43.4494,-0.024266796,-0.25103638,9.803407,-0.0003743507,-0.0009134114,-0.0014600754,0.00012207031,0.00010681152,-0.00010681152
-0.012277054,0.0037999132,-0.20287834,-0.020812988,-0.25315857,9.805542,-6.864929,16.299438,-42.564392,-0.024120852,-0.25088596,9.803411,0.0011563916,-0.0008381307,-0.001461029,0.00018310547,0.000289917,-0.00016784668
-0.012306624,0.003762762,-0.20279883,-0.024398804,-0.24909973,9.804108,-6.0028076,15.925598,-43.356323,-0.023310138,-0.25130406,9.803402,0.0022551194,-0.001114577,0.0017404556,-6.1035156e-05,4.5776367e-05,7.6293945e-05
-0.012289112,0.0037818176,-0.20283836,-0.024414062,-0.25196838,9.805069,-5.6030273,15.956116,-43.745422,-0.023735613,-0.25104454,9.803408,-0.000906121,0.0012404621,-0.000746727,-0.00018310547,4.5776367e-05,-4.5776367e-05
-0.012314754,0.0038113545,-0.20292792,-0.02607727,-0.25076294,9.803879,-5.583191,16.621399,-44.818115,-0.024177779,-0.25165656,9.8033905,-0.0007074736,-0.0007657707,0.00046253204,-0.00012207031,-1.5258789e-05,-4.5776367e-05
-0.012279632,0.0038240436,-0.20294166,-0.022018433,-0.2514801,9.803635,-5.5526733,15.377808,-44.16504,-0.024557745,-0.25103304,9.803406,-0.0010447111,0.0017227232,-1.335144e-05,-6.1035156e-05,-0.0001373291,0.00024414062
-0.012325284,0.003761734,-0.20280617,-0.020812988,-0.25172424,9.803162,-5.9173584,16.2323,-44.432068,-0.02321427,-0.2516584,9.803392,0.0023875516,-0.001010567,-0.00015926361,-0.00012207031,4.5776367e-05,-0.00010681152
-0.012335052,0.0037196064,-0.20270325,-0.022491455,-0.25196838,9.804825,-6.086731,16.148376,-44.818115,-0.022392856,-0.25167608,9.803394,0.0015808325,0.0006798506,-0.00042629242,-0.00012207031,-7.6293945e-05,-4.5776367e-05
-0.0123502035,0.003728032,-0.202733,-0.022491455,-0.25219727,9.80101,-6.2957764,16.560364,-43.06488,-0.022486752,-0.2520012,9.803386,-0.00024745055,-0.0004245937,0.00035858154,-6.1035156e-05,-7.6293945e-05,-0.00018310547
-0.01233794,0.0037286342,-0.20272797,-0.021774292,-0.24813843,9.804596,-4.7698975,16.668701,-44.161987,-0.02254838,-0.251768,9.803391,-0.00066077895,0.0005107522,-0.0016736984,0.0,-1.5258789e-05,0.00024414062
-0.012297813,0.0037138134,-0.20266846,-0.023452759,-0.25028992,9.804825,-5.3359985,16.635132,-44.37256,-0.022438608,-0.25093722,9.803413,0.00066518225,0.0018624365,0.0012769699,-0.00012207031,0.00010681152,7.6293945e-05