timestamp,rotationVector_x,rotationVector_y,rotationVector_z,accelerometer_x,accelerometer_y,accelerometer_z,magneticField_x,magneticField_y,magneticField_z,gravity_x,gravity_y,gravity_z,linearAcceleration_x,linearAcceleration_y,linearAcceleration_z,gyroscope_x,gyroscope_y,gyroscope_z
2019-07-01T18:53:28.564Z,-0.00017099269,-0.006704692,0.4652293,0.11653137,-0.05001831,9.809372,11.940002,11.627197,-57.10144,0.11483992,-0.06414679,9.805768,0.0002373755,-0.009786271,0.0007276535,1.5258789e-05,0.00015258789,-6.1035156e-05
2019-07-01T18:53:28.766Z,5.715516e-05,-0.0065936353,0.46462688,0.114852905,-0.07298279,9.806992,13.092041,10.543823,-58.12378,0.11503399,-0.05909429,9.805798,0.000512816,0.009103183,0.0006456375,0.0002593994,3.0517578e-05,0.0
2019-07-01T18:53:28.970Z,-0.00010802597,-0.0067316163,0.4652128,0.117248535,-0.053604126,9.810822,13.052368,11.566162,-58.517456,0.11588307,-0.06329714,9.805761,0.0018140003,-0.0087109655,0.0001039505,7.6293945e-05,3.0517578e-05,-0.00018310547
2019-07-01T18:53:29.173Z,4.6825626e-05,-0.0066152173,0.4646972,0.11557007,-0.06915283,9.807465,12.164307,11.355591,-57.844543,0.11530993,-0.05947952,9.805792,-0.00096008927,0.0075693578,0.0010251999,1.5258789e-05,4.5776367e-05,-6.1035156e-05
2019-07-01T18:53:29.374Z,-0.00011738514,-0.0067414036,0.46525112,0.115097046,-0.05432129,9.808899,12.004089,11.268616,-57.403564,0.11596482,-0.063553944,9.805758,0.0010105893,-0.007978633,-0.00027179718,-4.5776367e-05,-7.6293945e-05,-0.00012207031
2019-07-01T18:53:29.570Z,-9.839619e-05,-0.006658304,0.46500883,0.11341858,-0.055511475,9.806503,11.979675,11.138916,-59.692383,0.1147126,-0.062434595,9.80578,-0.0015387014,-0.0047953352,-0.0036258698,-0.00010681152,-0.00019836426,0.0
2019-07-01T18:53:29.778Z,9.453751e-06,-0.006637239,0.46480584,0.117492676,-0.06628418,9.807465,12.428284,11.959839,-58.187866,0.11534433,-0.0603434,9.805786,0.0016447008,0.0036345161,0.002524376,0.0001373291,9.1552734e-05,-6.1035156e-05
2019-07-01T18:53:29.978Z,-3.9982457e-05,-0.0066423123,0.46488693,0.11366272,-0.053115845,9.807465,12.002563,11.192322,-56.965637,0.11497613,-0.06125866,9.805784,-0.00061398,-0.0011861175,0.0004119873,-0.00016784668,3.0517578e-05,0.0
2019-07-01T18:53:30.179Z,7.776938e-05,-0.0065639657,0.46452138,0.11366272,-0.062698364,9.805786,12.8341675,11.831665,-57.095337,0.11471355,-0.05845223,9.805804,-0.0013055727,0.0048535056,-0.001168251,0.00019836426,-0.00019836426,-6.1035156e-05
2019-07-01T18:53:30.388Z,-2.2634782e-05,-0.006660153,0.46490952,0.117248535,-0.060058594,9.805557,13.180542,10.618591,-57.43103,0.11544254,-0.061123047,9.80578,0.0017996207,-0.005401898,-0.0007801056,1.5258789e-05,9.1552734e-05,-0.00012207031
2019-07-01T18:53:30.592Z,2.5847527e-05,-0.006601167,0.46468946,0.11437988,-0.06436157,9.807709,12.14447,10.917664,-57.933044,0.114875264,-0.05971477,9.805796,-0.0009989738,0.0015714876,0.0015516281,0.00032043457,3.0517578e-05,0.0
2019-07-01T18:53:30.796Z,-5.197018e-05,-0.006625916,0.46486074,0.114852905,-0.057434082,9.807465,12.844849,10.453796,-58.05664,0.11458395,-0.06131393,9.805789,-0.0004659146,-0.0025651455,0.0004043579,-0.00016784668,3.0517578e-05,-0.00024414062
2019-07-01T18:53:30.997Z,-1.4132386e-05,-0.006608571,0.46476364,0.114852905,-0.065078735,9.804108,13.572693,12.24823,-57.569885,0.114634395,-0.06048617,9.805794,0.00020768493,0.00043328851,-0.0011777878,0.00032043457,3.0517578e-05,0.00012207031
2019-07-01T18:53:31.199Z,-5.8784633e-05,-0.006635337,0.46489462,0.114852905,-0.059814453,9.805069,12.794495,11.181641,-58.358765,0.11468306,-0.061522555,9.805787,0.0004178807,-0.0016509257,-0.00253582,-0.00010681152,9.1552734e-05,-0.00012207031
2019-07-01T18:53:31.401Z,-9.621229e-06,-0.006605528,0.46474952,0.115097046,-0.061264038,9.80722,12.47406,10.932922,-57.037354,0.114623636,-0.060378265,9.805795,0.0009453222,0.001510445,0.0008573532,0.00019836426,0.0002746582,-0.00018310547
2019-07-01T18:53:31.606Z,-2.3147204e-05,-0.0066426713,0.46486476,0.11653137,-0.06173706,9.805313,11.647034,12.338257,-57.395935,0.11513741,-0.06096672,9.805785,0.0011480451,-0.000998281,9.346008e-05,-4.5776367e-05,3.0517578e-05,6.1035156e-05
2019-07-01T18:53:31.806Z,-9.92717e-07,-0.0066077444,0.46474344,0.112701416,-0.05909729,9.806747,12.960815,11.343384,-58.862305,0.11474119,-0.06024784,9.805794,-0.0010823682,0.00043542683,0.00037670135,0.0002593994,-7.6293945e-05,0.0
2019-07-01T18:53:32.006Z,-4.592593e-05,-0.0066084745,0.46480706,0.114608765,-0.06317139,9.805313,11.932373,11.633301,-58.081055,0.11433991,-0.06104302,9.805794,-0.00045087934,-0.0014098324,-0.00022792816,-4.5776367e-05,9.1552734e-05,6.1035156e-05
2019-07-01T18:53:32.212Z,-4.237846e-05,-0.0065959,0.46476945,0.11437988,-0.060531616,9.805313,13.111877,11.05957,-58.5495,0.11415648,-0.06086193,9.805797,-0.00026283413,-0.0008762181,-0.00079631805,0.00032043457,3.0517578e-05,-0.00018310547
2019-07-01T18:53:32.415Z,-7.866226e-06,-0.0066118487,0.46476355,0.11534119,-0.06149292,9.80603,13.134766,11.343384,-57.208252,0.11474844,-0.060407225,9.805793,0.0013075322,0.0013111867,0.00075149536,-0.00010681152,3.0517578e-05,-0.00012207031
2019-07-01T18:53:32.619Z,-8.462638e-06,-0.0066386526,0.46483412,0.11628723,-0.058151245,9.805313,12.393188,10.928345,-57.035828,0.11520361,-0.060671095,9.805786,0.00060895085,-0.0015381239,-0.00014019012,0.0002593994,-7.6293945e-05,-0.00024414062
2019-07-01T18:53:32.823Z,1.1548811e-06,-0.0066322666,0.4648043,0.11437988,-0.06413269,9.808182,12.179565,11.721802,-57.99713,0.115182444,-0.060441986,9.805788,-0.00033340603,0.0006295629,0.0003862381,-4.5776367e-05,-7.6293945e-05,-6.1035156e-05
2019-07-01T18:53:33.030Z,-7.6625416e-05,-0.006632722,0.46491233,0.11222839,-0.05958557,9.806503,13.392639,11.799622,-57.42798,0.11447373,-0.061810788,9.805787,-0.0015335307,-0.0030361712,0.00025749207,7.6293945e-05,-3.0517578e-05,-6.1035156e-05
2019-07-01T18:53:33.227Z,-2.7139273e-05,-0.006610005,0.46478525,0.114852905,-0.06604004,9.80603,13.128662,11.347961,-58.03833,0.11453925,-0.060727913,9.805793,-0.00016471744,0.0016334578,8.583069e-06,0.0001373291,-7.6293945e-05,-6.1035156e-05
2019-07-01T18:53:33.426Z,-4.1188512e-05,-0.006625911,0.46484593,0.11677551,-0.057434082,9.808182,12.825012,11.84082,-58.377075,0.114683196,-0.06112475,9.805789,0.0013621598,-0.0015666857,0.0012817383,0.00019836426,0.0002746582,0.0
2019-07-01T18:53:33.633Z,3.2700277e-06,-0.006626581,0.4647866,0.11462402,-0.06364441,9.805542,12.660217,11.679077,-57.724,0.1151042,-0.06035112,9.805789,0.000947319,0.0017304271,-0.0010576248,-4.5776367e-05,3.0517578e-05,0.0
2019-07-01T18:53:33.836Z,-7.469399e-05,-0.0066547967,0.46496713,0.115097046,-0.05909729,9.807465,12.794495,11.109924,-58.29773,0.1148708,-0.06198565,9.805781,-0.0009893999,-0.0033317246,0.0005683899,1.5258789e-05,-0.0001373291,0.0
2019-07-01T18:53:34.037Z,-3.808694e-06,-0.006632191,0.4648109,0.11581421,-0.06124878,9.805786,12.783813,10.73761,-57.543945,0.115135424,-0.06052835,9.805787,0.00042227656,0.0031007715,0.00037956238,-4.5776367e-05,-3.0517578e-05,0.0002593994
2019-07-01T18:53:34.237Z,-4.0283256e-05,-0.0066386834,0.4648779,0.11390686,-0.062210083,9.806274,12.411499,11.671448,-58.773804,0.11491101,-0.061229628,9.805786,-0.0010058209,-0.0016967282,-0.0018205643,7.6293945e-05,-0.0001373291,-0.00024414062
2019-07-01T18:53:34.443Z,-7.4037926e-05,-0.0066257,0.4648905,0.11366272,-0.06460571,9.804825,12.548828,11.096191,-58.59375,0.114376925,-0.06169901,9.805789,-0.00047395378,-0.0009972565,0.00038051605,1.5258789e-05,0.00015258789,6.1035156e-05
2019-07-01T18:53:34.646Z,-7.154514e-05,-0.006654283,0.46496147,0.11605835,-0.05909729,9.808426,12.171936,11.575317,-57.951355,0.11489099,-0.061925553,9.805781,0.0009158924,-0.0007536039,0.00056934357,7.6293945e-05,-3.0517578e-05,-6.1035156e-05
2019-07-01T18:53:34.850Z,-3.6528978e-05,-0.0066505354,0.4649036,0.114852905,-0.06388855,9.80722,12.640381,11.164856,-57.450867,0.11514925,-0.061275836,9.805782,0.0006488189,0.0012258291,0.0014982224,1.5258789e-05,3.0517578e-05,-0.00012207031
2019-07-01T18:53:35.052Z,-9.593621e-05,-0.0066559156,0.46499923,0.11581421,-0.06173706,9.806976,12.301636,10.853577,-57.725525,0.11469425,-0.06236886,9.805781,-0.00032699108,-0.0024741292,-0.0006017685,7.6293945e-05,0.00015258789,6.1035156e-05
2019-07-01T18:53:35.257Z,-6.244357e-05,-0.0066430136,0.46491963,0.114852905,-0.062454224,9.807465,12.995911,11.843872,-57.099915,0.11478124,-0.06165932,9.805784,0.0005421713,0.000893116,0.00087833405,0.0001373291,9.1552734e-05,0.00019836426
2019-07-01T18:53:35.458Z,-6.344666e-05,-0.006633471,0.46489617,0.114852905,-0.060058594,9.806274,12.724304,11.244202,-57.36084,0.11460804,-0.061586693,9.805787,-1.01700425e-05,-0.0006175339,-0.0011777878,0.00019836426,9.1552734e-05,-0.00012207031
2019-07-01T18:53:35.660Z,-5.11175e-05,-0.0066508404,0.46492442,0.11437988,-0.06317139,9.80603,12.640381,11.164856,-57.450867,0.11502008,-0.061534647,9.805782,0.0005370453,4.8648566e-05,0.00033473969,1.5258789e-05,-7.6293945e-05,0.00012207031
2019-07-01T18:53:35.863Z,-7.009978e-05,-0.0066128224,0.4648516,0.11341858,-0.05934143,9.80603,12.104797,11.709595,-57.01599,0.11419193,-0.061508182,9.805792,-0.001968272,-0.0004704669,-0.0013742447,0.0001373291,-7.6293945e-05,-6.1035156e-05
2019-07-01T18:53:36.063Z,-8.739697e-05,-0.006622283,0.46489996,0.11317444,-0.0619812,9.808182,12.110901,10.263062,-58.441162,0.11419512,-0.061901048,9.80579,-0.000783965,-0.0022276156,0.0005636215,-4.5776367e-05,9.1552734e-05,0.00038146973
2019-07-01T18:53:36.270Z,-7.6780765e-05,-0.006608737,0.46485013,0.11413574,-0.062698364,9.80603,13.322449,12.162781,-58.18329,0.11406019,-0.06158677,9.805794,0.00055707246,0.0008146614,-0.00011539459,-4.5776367e-05,0.00021362305,0.00019836426
2019-07-01T18:53:36.472Z,-0.00011937119,-0.006608063,0.4649069,0.11437988,-0.060058594,9.806747,12.698364,10.812378,-58.354187,0.11365618,-0.06232749,9.805794,3.0100346e-06,-0.0008419603,-0.0005569458,-0.00016784668,0.00021362305,-0.00024414062
2019-07-01T18:53:36.676Z,-0.00010129967,-0.0066097975,0.46488658,0.11366272,-0.06460571,9.806976,12.243652,11.286926,-57.635498,0.1138525,-0.06202689,9.805793,0.00051947683,0.0005382821,0.000746727,1.5258789e-05,3.0517578e-05,1.5258789e-05
2019-07-01T18:53:36.874Z,-0.0001358423,-0.006625238,0.46497422,0.1138916,-0.062210083,9.806992,11.44104,11.305237,-57.522583,0.11379943,-0.06277876,9.805789,-0.00063580275,-0.0015768409,0.00049972534,1.5258789e-05,-0.0001373291,-0.00024414062
2019-07-01T18:53:37.077Z,-0.00010161264,-0.006590397,0.4648365,0.11294556,-0.062210083,9.808655,12.539673,10.723877,-57.762146,0.11351629,-0.06184902,9.805799,-0.0010799319,0.0008405186,0.0017671585,0.0002593994,-0.0001373291,-0.00018310547
2019-07-01T18:53:37.275Z,-0.00011628647,-0.0065987506,0.4648784,0.11462402,-0.061019897,9.807709,12.408447,11.521912,-58.276367,0.11352461,-0.06218536,9.805796,0.00012140721,-0.001205761,-0.0007352829,0.0001373291,3.0517578e-05,-0.00018310547
2019-07-01T18:53:37.477Z,-6.6604254e-05,-0.0066137756,0.46484926,0.11366272,-0.06173706,9.80603,12.979126,11.401367,-56.811523,0.11424051,-0.061455876,9.805792,0.00131277,0.0011621751,-1.2397766e-05,7.6293945e-05,-3.0517578e-05,-6.1035156e-05
2019-07-01T18:53:37.691Z,-5.3217318e-05,-0.006620662,0.4648488,0.11534119,-0.061019897,9.808426,12.2543335,11.427307,-56.854248,0.11448217,-0.061286137,9.80579,0.000598073,0.00027523562,-8.583069e-06,1.5258789e-05,3.0517578e-05,-0.00012207031
2019-07-01T18:53:37.892Z,-7.619061e-05,-0.0065911263,0.4648035,0.112701416,-0.06317139,9.808655,13.33313,12.1521,-56.5979,0.113763005,-0.06140996,9.805798,-0.0008414984,-0.0010312758,0.0012722015,0.00019836426,0.00015258789,-0.00024414062
2019-07-01T18:53:38.093Z,-0.000111724235,-0.0065684193,0.4647932,0.112457275,-0.0619812,9.806976,12.625122,11.029053,-58.761597,0.113045506,-0.061818708,9.805804,-0.0013249218,-0.0008689761,-0.000749588,1.5258789e-05,3.0517578e-05,6.1035156e-05
2019-07-01T18:53:38.297Z,-5.8341426e-05,-0.006595369,0.46479002,0.11581421,-0.060775757,9.805786,12.356567,12.0224,-57.489014,0.11400033,-0.061136946,9.805797,0.0017951727,0.0008442402,-0.00018501282,0.0001373291,-3.0517578e-05,0.00019836426
2019-07-01T18:53:38.500Z,-6.583911e-05,-0.0066255685,0.4648789,0.114852905,-0.062927246,9.809616,13.014221,12.2039795,-56.726074,0.1144502,-0.06155394,9.805789,0.00013854355,-0.0013625361,0.0002040863,0.0001373291,-0.00019836426,6.1035156e-05
2019-07-01T18:53:38.700Z,-4.316806e-05,-0.0066045946,0.46479318,0.11341858,-0.059814453,9.806747,12.872314,11.114502,-58.224487,0.114298634,-0.060957965,9.805795,-0.00042497367,0.0006647967,-0.00034236908,0.0001373291,-3.0517578e-05,0.0
2019-07-01T18:53:38.912Z,-4.5493573e-05,-0.0065999683,0.46478432,0.11437988,-0.06124878,9.806976,13.101196,10.916138,-58.955383,0.11419771,-0.060955033,9.805796,-8.134544e-05,-5.4519624e-05,0.000248909,1.5258789e-05,3.0517578e-05,0.0
2019-07-01T18:53:39.105Z,-3.1730477e-05,-0.006575596,0.46470198,0.112701416,-0.060775757,9.805069,13.22937,10.424805,-60.19287,0.11390559,-0.060483262,9.805802,-0.0002529025,-0.00028716773,-0.0015974045,0.00032043457,9.1552734e-05,-0.00012207031
2019-07-01T18:53:39.356Z,-6.390837e-05,-0.006574901,0.4647444,0.11437988,-0.06317139,9.807938,13.587952,10.948181,-58.74176,0.11359731,-0.06104118,9.805802,-0.0009080395,-0.0016506575,0.00036907196,0.0001373291,-7.6293945e-05,-6.1035156e-05
2019-07-01T18:53:39.601Z,-7.364229e-05,-0.0065784524,0.46476698,0.11437988,-0.062683105,9.807938,14.190674,12.0147705,-59.75952,0.11356869,-0.061245494,9.805801,0.00054600835,-0.0009532459,0.0015249252,0.0001373291,0.00015258789,-0.00012207031
2019-07-01T18:53:39.762Z,-0.00010728578,-0.006615175,0.4649088,0.11437988,-0.06149292,9.80603,13.356018,11.607361,-61.239624,0.11388973,-0.06218273,9.805792,0.0019139871,-0.000982929,-0.0018548965,-0.00022888184,0.00033569336,-4.5776367e-05
2019-07-01T18:53:39.918Z,-0.00011066573,-0.0065823006,0.46482787,0.112457275,-0.060531616,9.805542,12.90741,10.327148,-59.89685,0.11329377,-0.061931305,9.8058,-0.0008433312,0.0011592843,-0.0006055832,-0.00016784668,9.1552734e-05,0.00012207031
2019-07-01T18:53:40.123Z,-7.717065e-05,-0.006560286,0.46472454,0.11366272,-0.061019897,9.805786,12.944031,11.054993,-59.298706,0.11322401,-0.061135743,9.805806,0.00066863745,0.0013054647,-0.0013637543,7.6293945e-05,0.00021362305,0.0
2019-07-01T18:53:40.357Z,-7.670189e-05,-0.006538282,0.46466663,0.11198425,-0.060775757,9.805313,12.997437,10.629272,-60.292053,0.11285016,-0.060919657,9.805812,9.1552734e-05,-0.0003270507,0.0008459091,0.00019836426,0.00021362305,0.00024414062
2019-07-01T18:53:40.527Z,-5.919217e-05,-0.0065138293,0.4645789,0.11437988,-0.061019897,9.808182,13.682556,11.320496,-59.12323,0.11259107,-0.06038156,9.805818,-0.00014539808,-0.00015909225,0.0013532639,0.00032043457,9.1552734e-05,0.00018310547
2019-07-01T18:53:40.729Z,-7.45068e-05,-0.006531034,0.46464473,0.11317444,-0.062698364,9.807938,13.301086,11.575317,-57.54547,0.1127458,-0.060812693,9.805814,0.00090096146,-0.001877062,0.0007352829,0.0002593994,0.00015258789,-0.00022888184
2019-07-01T18:53:40.933Z,-9.0568414e-05,-0.0065736515,0.46477774,0.11366272,-0.062210083,9.805786,12.736511,11.688232,-58.255005,0.11333028,-0.06149704,9.805802,0.0012695789,-0.0014253706,-0.0012598038,1.5258789e-05,3.0517578e-05,-0.00012207031
2019-07-01T18:53:41.133Z,-0.00010187004,-0.006541671,0.46471003,0.11366272,-0.060775757,9.808182,12.158203,11.206055,-57.49817,0.112676635,-0.06139316,9.805811,-0.0011793971,-9.213388e-05,0.0009088516,7.6293945e-05,3.0517578e-05,0.0
2019-07-01T18:53:41.334Z,-4.433596e-05,-0.0065823887,0.46473697,0.1138916,-0.062454224,9.807709,13.214111,11.424255,-57.57141,0.11390625,-0.060768586,9.8058,0.002358511,4.8205256e-06,0.0014076233,0.00032043457,-3.0517578e-05,0.0
2019-07-01T18:53:41.540Z,-9.1314716e-05,-0.006586484,0.4648122,0.11437988,-0.06317139,9.80722,12.895203,11.550903,-57.910156,0.11354391,-0.061631393,9.805799,-0.0008564517,-0.0020054393,-0.0014619827,7.6293945e-05,-3.0517578e-05,0.00012207031
2019-07-01T18:53:41.745Z,-9.0353045e-05,-0.0065809125,0.46479636,0.11341858,-0.06149292,9.805313,12.957764,11.04126,-57.49054,0.11345704,-0.061561875,9.8058,-5.5126846e-05,-0.00016614795,0.0004682541,7.6293945e-05,3.0517578e-05,-0.00018310547
2019-07-01T18:53:41.949Z,-7.098045e-05,-0.0065956702,0.46480814,0.11294556,-0.061019897,9.804596,12.989807,11.849976,-58.00476,0.11388908,-0.06136151,9.805797,0.0009582117,0.00011575222,-0.0019273758,7.6293945e-05,3.0517578e-05,-6.1035156e-05
2019-07-01T18:53:42.151Z,-5.7664434e-05,-0.006572698,0.46473005,0.11413574,-0.06149292,9.80603,12.338257,11.581421,-57.276917,0.11361695,-0.06091083,9.805802,-0.00019925088,0.0003796853,-0.0008096695,0.0001373291,9.1552734e-05,6.1035156e-05
2019-07-01T18:53:42.354Z,-5.0799434e-05,-0.0066028815,0.4647992,0.115097046,-0.060775757,9.806503,13.48114,11.87439,-57.03888,0.1141989,-0.061075646,9.805795,0.0006459728,0.0003041923,0.0012235641,-0.00016784668,-0.0001373291,-0.00012207031
2019-07-01T18:53:42.550Z,-2.1535137e-05,-0.006630002,0.46482956,0.11534119,-0.06149292,9.810089,12.564087,11.157227,-57.070923,0.114934534,-0.060818642,9.805788,0.001333423,-0.00066407025,0.001709938,0.00019836426,9.1552734e-05,-0.00018310547
2019-07-01T18:53:42.757Z,-6.1096194e-05,-0.0066283885,0.46487972,0.11390686,-0.06341553,9.807938,12.811279,11.31897,-57.12433,0.11454236,-0.0614974,9.805788,-0.000185512,-0.0009444542,0.0006504059,-0.00010681152,0.00015258789,0.00012207031
2019-07-01T18:53:42.963Z,-0.00010882436,-0.0066387276,0.4649722,0.11628723,-0.06340027,9.806259,12.988281,11.695862,-57.130432,0.11428018,-0.06243239,9.805785,-0.00040949136,-0.0016888753,-0.00035953522,-4.5776367e-05,3.0517578e-05,6.1035156e-05
2019-07-01T18:53:43.161Z,-8.311206e-05,-0.0066929315,0.4650779,0.11605835,-0.06317139,9.810333,12.739563,11.608887,-57.43866,0.115448326,-0.062494032,9.805771,0.0022420958,-0.00018747896,0.0016736984,1.5258789e-05,-3.0517578e-05,0.00012207031
2019-07-01T18:53:43.367Z,-7.045764e-05,-0.0067209858,0.4651335,0.117492676,-0.061264038,9.81105,11.912537,11.196899,-58.24585,0.11604689,-0.062537506,9.805763,0.00068967044,-0.0006128922,0.0012788773,0.0001373291,-0.0001373291,0.0002593994
2019-07-01T18:53:43.566Z,-6.594915e-05,-0.006664236,0.46497968,0.11222839,-0.06388855,9.810089,11.991882,11.126709,-58.03528,0.11511356,-0.061921515,9.8057785,-0.0017384216,0.0016421527,0.0008535385,-0.00010681152,3.0517578e-05,6.1035156e-05
2019-07-01T18:53:43.772Z,-9.57839e-05,-0.0067268834,0.46518365,0.117492676,-0.06341553,9.808655,12.776184,10.667419,-57.936096,0.11591467,-0.0630376,9.805762,0.0012978762,-0.0025098473,-0.0013427734,7.6293945e-05,-7.6293945e-05,0.00019836426
2019-07-01T18:53:43.974Z,-8.832345e-05,-0.006734904,0.46519426,0.11581421,-0.06364441,9.807465,13.684082,11.167908,-58.09784,0.116121225,-0.06298264,9.80576,-0.0003443882,-0.00041261315,0.00022602081,0.0001373291,-0.00019836426,0.00018310547
2019-07-01T18:53:44.238Z,-9.2628325e-05,-0.0067224987,0.4651679,0.114852905,-0.06173706,9.809387,11.740112,10.969543,-58.511353,0.115868464,-0.06294075,9.805763,-0.0008067563,-0.0006844625,-0.00032806396,0.00019836426,-7.6293945e-05,-0.00012207031
2019-07-01T18:53:44.378Z,-7.553799e-05,-0.0066679455,0.4650025,0.11390686,-0.062454224,9.805069,12.649536,11.460876,-57.91931,0.11508892,-0.06212481,9.805778,-0.0014533028,0.0011195466,-0.0013399124,0.0001373291,3.0517578e-05,0.00018310547
2019-07-01T18:53:44.580Z,-4.4320397e-05,-0.0066520586,0.46491826,0.1131897,-0.05958557,9.80722,12.869263,10.968018,-58.103943,0.11510365,-0.06142693,9.805782,-0.000501439,0.0004186742,-0.00089359283,0.0002593994,-0.0001373291,0.00038146973
2019-07-01T18:53:44.777Z,-6.132507e-05,-0.006612314,0.4648382,0.11462402,-0.06413269,9.806747,12.379456,10.71167,-57.455444,0.11426403,-0.061349448,9.805792,-0.0013356209,-0.00013427064,-0.00076007843,7.6293945e-05,9.1552734e-05,0.0
2019-07-01T18:53:44.983Z,-6.323837e-05,-0.0066201035,0.4648611,0.11462402,-0.061264038,9.809372,12.362671,12.016296,-56.66046,0.114380255,-0.06145665,9.80579,-0.00027085096,-0.00073928386,0.0015687943,0.0001373291,-0.0001373291,0.00032043457
2019-07-01T18:53:45.192Z,-4.3955904e-05,-0.006620674,0.4648361,0.114608765,-0.062210083,9.808426,12.425232,11.9644165,-58.714294,0.1145677,-0.06112378,9.80579,0.00025832653,0.0006065108,9.059906e-05,1.5258789e-05,-3.0517578e-05,0.0
2019-07-01T18:53:45.420Z,-8.31266e-05,-0.0066771386,0.46503684,0.117248535,-0.062454224,9.806992,12.966919,11.25946,-57.36847,0.11517691,-0.06234489,9.805776,0.0013325289,-0.002248954,-0.0008955002,-4.5776367e-05,3.0517578e-05,0.0002593994
2019-07-01T18:53:45.591Z,-5.2193478e-05,-0.006651871,0.4649286,0.11366272,-0.060775757,9.804825,12.940979,11.889648,-54.14276,0.115027875,-0.06156327,9.805782,-0.00042031705,0.0017576292,-0.00091171265,-4.5776367e-05,-3.0517578e-05,0.0002593994
2019-07-01T18:53:45.799Z,-7.642043e-05,-0.006645168,0.46494445,0.11341858,-0.0619812,9.808182,13.038635,12.791443,-56.90918,0.11468947,-0.061924882,9.805784,-0.00079544634,-0.00076654926,-0.00060749054,1.5258789e-05,-3.0517578e-05,0.0002593994
2019-07-01T18:53:46.002Z,-8.732236e-05,-0.006633183,0.46492824,0.11437988,-0.065322876,9.805786,13.026428,10.905457,-58.12378,0.11438309,-0.062002793,9.805787,-0.00026056916,-0.00068840384,7.05719e-05,0.0001373291,9.1552734e-05,-6.1035156e-05
2019-07-01T18:53:46.203Z,-0.000107321466,-0.00662748,0.46494088,0.11366272,-0.060546875,9.807465,12.721252,11.247253,-57.89032,0.1141008,-0.06229968,9.805788,-0.00020649284,-0.001582019,-0.00011920929,0.0002593994,9.1552734e-05,0.0002593994
2019-07-01T18:53:46.407Z,-9.0332374e-05,-0.0066112326,0.46487525,0.114852905,-0.06317139,9.811768,13.482666,12.025452,-57.61261,0.11397822,-0.06184808,9.805794,-0.00033865124,0.00036771968,0.0018320084,0.0001373291,-3.0517578e-05,0.00012207031
2019-07-01T18:53:46.615Z,-0.00011431365,-0.0066778716,0.4650816,0.11413574,-0.06436157,9.806976,13.302612,11.723328,-58.1192,0.11490199,-0.06289888,9.805775,0.00087781996,-0.0016879961,0.0018663406,-0.00010681152,-0.0002593994,0.00032043457
2019-07-01T18:53:46.815Z,-0.00011644819,-0.0066647143,0.4650503,0.11413574,-0.06341553,9.808426,12.632751,10.9436035,-57.192993,0.114656314,-0.062811874,9.8057785,-0.0015075058,0.00012754649,-0.0014677048,1.5258789e-05,-0.0002593994,6.1035156e-05
2019-07-01T18:53:47.017Z,-9.022981e-05,-0.00665663,0.46499324,0.11462402,-0.05958557,9.804596,13.197327,10.983276,-57.28302,0.11475911,-0.06227551,9.80578,7.573515e-05,0.0007923953,-0.001294136,7.6293945e-05,-3.0517578e-05,0.00012207031
2019-07-01T18:53:47.219Z,-5.2063784e-05,-0.006631017,0.46487415,0.11557007,-0.06173706,9.805542,13.389587,11.64856,-57.08008,0.114670746,-0.061363805,9.805788,0.00017015636,0.0013116337,-0.0010280609,0.0001373291,9.1552734e-05,0.00024414062
2019-07-01T18:53:47.425Z,-7.3719435e-05,-0.0066530756,0.46496132,0.11462402,-0.06149292,9.80603,13.502502,12.464905,-57.598877,0.11485021,-0.061952274,9.805781,0.00071175396,-0.0016877651,-0.0006875992,0.0001373291,9.1552734e-05,0.00032043457
2019-07-01T18:53:47.620Z,-5.1818824e-05,-0.006641995,0.46490237,0.11437988,-0.062210083,9.806992,13.249207,12.228394,-57.711792,0.11486164,-0.061463308,9.805785,-0.0004918128,0.00093707815,0.00034713745,1.5258789e-05,-0.0001373291,0.00044250488
2019-07-01T18:53:47.824Z,-4.781182e-05,-0.0066234255,0.46484855,0.11462402,-0.058380127,9.80722,13.200378,11.131287,-57.556152,0.11457947,-0.061217442,9.80579,-0.00020814687,0.00044625625,-0.00024795532,1.5258789e-05,9.1552734e-05,0.0002593994
2019-07-01T18:53:48.032Z,8.337585e-06,-0.0065919245,0.46468946,0.114852905,-0.058624268,9.80484,12.878418,10.958862,-56.896973,0.11455517,-0.05993462,9.805798,6.323308e-05,0.0022745952,-0.00049209595,7.6293945e-05,3.0517578e-05,0.0
2019-07-01T18:53:48.229Z,6.638663e-06,-0.0065915524,0.4646908,0.1138916,-0.06149292,9.806992,13.555908,11.808777,-57.281494,0.114533134,-0.05996091,9.805798,-0.00015886873,-0.0008119084,-3.8146973e-06,0.00019836426,-3.0517578e-05,0.00012207031
2019-07-01T18:53:48.430Z,1.1730608e-05,-0.006602172,0.46471146,0.11653137,-0.06124878,9.805786,12.683105,12.191772,-57.922363,0.11476257,-0.059971947,9.805796,0.00080373883,-0.00055770203,-0.000330925,0.0001373291,9.1552734e-05,-0.00018310547
2019-07-01T18:53:48.632Z,8.217658e-06,-0.0065806136,0.46466017,0.11294556,-0.061019897,9.805313,13.07373,11.773682,-57.04193,0.11435964,-0.059829835,9.8058,1.6830862e-05,-0.00071525574,-6.2942505e-05,0.0002593994,0.00021362305,0.0
2019-07-01T18:53:48.834Z,-7.842957e-05,-0.0066013667,0.4648332,0.11366272,-0.06149292,9.80722,12.451172,10.800171,-59.028625,0.11391836,-0.061546028,9.805796,0.0009231493,-0.00090203807,-2.9563904e-05,7.6293945e-05,3.0517578e-05,0.0
2019-07-01T18:53:49.052Z,-9.410502e-05,-0.006592797,0.46483245,0.11366272,-0.062927246,9.808182,12.844849,12.12616,-57.489014,0.11362669,-0.061740004,9.805798,-0.00046531856,-0.00021883845,0.00029563904,-4.5776367e-05,3.0517578e-05,-0.00012207031
2019-07-01T18:53:49.249Z,-0.000105204934,-0.0066202316,0.4649191,0.11581421,-0.06341553,9.805313,12.075806,11.128235,-57.435608,0.113995776,-0.062194027,9.80579,0.0015608743,-0.0009700358,3.1471252e-05,1.5258789e-05,0.00021362305,-6.1035156e-05
2019-07-01T18:53:49.449Z,-0.000114816794,-0.006601409,0.46488333,0.11222839,-0.062927246,9.80603,12.345886,10.211182,-59.066772,0.11358383,-0.06218471,9.805796,-0.0013642684,-0.0005088225,-0.0007715225,0.0001373291,-0.0001373291,-6.1035156e-05
2019-07-01T18:53:49.670Z,-0.00012136081,-0.0065714912,0.46481442,0.11222839,-0.060775757,9.80722,12.637329,11.242676,-58.189392,0.11300951,-0.062016767,9.805803,-0.0005598143,0.00028385967,-0.00020122528,1.5258789e-05,0.00015258789,0.00012207031
2019-07-01T18:53:49.857Z,-0.00014186247,-0.006606079,0.46493265,0.11605835,-0.065322876,9.806503,12.150574,10.91156,-57.0282,0.113414824,-0.062703244,9.805794,0.0011823401,-0.0016519129,0.000667572,7.6293945e-05,9.1552734e-05,0.00044250488
2019-07-01T18:53:50.052Z,-0.00011550929,-0.0066358433,0.4649739,0.11557007,-0.062927246,9.806503,12.815857,11.392212,-57.032776,0.114169024,-0.06252238,9.805786,0.0013903901,-0.00039903075,-0.00019741058,0.00019836426,-3.0517578e-05,6.1035156e-05
2019-07-01T18:53:50.262Z,-9.808015e-05,-0.006664048,0.46502334,0.11413574,-0.062454224,9.806259,12.5564575,10.9375,-56.89087,0.11481419,-0.062483378,9.805779,0.000751473,3.1549484e-05,-0.001086235,1.5258789e-05,-0.0001373291,0.00012207031
2019-07-01T18:53:50.464Z,-9.329891e-05,-0.006678013,0.4650531,0.11677551,-0.062927246,9.806976,12.464905,10.86731,-57.881165,0.115098156,-0.0625316,9.805775,0.00070460886,-0.00038942695,0.0011873245,7.6293945e-05,3.0517578e-05,0.00019836426
2019-07-01T18:53:50.666Z,-6.671888e-05,-0.00668938,0.46504614,0.11534119,-0.06149292,9.805313,12.719727,11.326599,-58.703613,0.11553844,-0.062172867,9.805773,0.0012302771,0.00043946132,-0.00080776215,7.6293945e-05,9.1552734e-05,0.00024414062
2019-07-01T18:53:50.869Z,-0.00011579488,-0.0066570607,0.4650295,0.11294556,-0.06341553,9.807938,13.142395,11.56311,-57.391357,0.11453086,-0.062728025,9.80578,-0.002308756,-0.0014012158,-6.0081482e-05,7.6293945e-05,-7.6293945e-05,6.1035156e-05
2019-07-01T18:53:51.123Z,-0.00011072321,-0.0066210553,0.46492884,0.112457275,-0.062927246,9.805069,12.348938,11.7248535,-56.871033,0.11395908,-0.062298615,9.80579,-0.0010213554,0.0005658306,0.00028419495,7.6293945e-05,3.0517578e-05,6.1035156e-05
2019-07-01T18:53:51.325Z,-0.00011161848,-0.006622591,0.46493405,0.11413574,-0.062210083,9.807465,13.597107,11.244202,-59.284973,0.113977216,-0.062328838,9.80579,-7.927418e-05,-0.00012050569,0.00018978119,1.5258789e-05,-3.0517578e-05,0.0
2019-07-01T18:53:51.473Z,-0.00014034018,-0.0066558328,0.46506006,0.114852905,-0.06484985,9.805069,13.74054,11.11908,-60.751343,0.1142835,-0.063146956,9.805781,-0.00015471876,-0.0014549121,-0.00034809113,-4.5776367e-05,-0.00019836426,6.1035156e-05
2019-07-01T18:53:51.822Z,-0.00015670482,-0.0066583026,0.46508896,0.11317444,-0.062454224,9.805542,13.595581,10.862732,-57.173157,0.11417504,-0.06345735,9.80578,-0.00051601976,-0.0006732866,-0.0005559921,1.5258789e-05,-7.6293945e-05,6.1035156e-05
2019-07-01T18:53:51.879Z,-6.903384e-05,-0.006631012,0.46489745,0.11653137,-0.05958557,9.810333,13.363647,11.445618,-59.310913,0.114514306,-0.061661452,9.805788,0.0008141771,0.003288161,0.0015506744,7.6293945e-05,3.0517578e-05,0.0
2019-07-01T18:53:52.106Z,-5.536343e-05,-0.006622167,0.46485564,0.11222839,-0.060058594,9.810577,13.74054,11.270142,-61.39984,0.11448827,-0.061338015,9.80579,-0.00013633817,0.00057723746,0.0026216507,1.5258789e-05,-3.0517578e-05,0.00012207031
2019-07-01T18:53:52.290Z,-5.303601e-05,-0.0065874597,0.46476212,0.11413574,-0.060775757,9.810333,12.8845215,11.636353,-59.780884,0.11391327,-0.060969125,9.805799,-0.0012470186,0.00021218508,0.0012788773,0.0001373291,-3.0517578e-05,0.0002593994
2019-07-01T18:53:52.489Z,-2.9679444e-05,-0.006613422,0.46479762,0.11437988,-0.06149292,9.806992,12.498474,10.305786,-60.565186,0.114574574,-0.060804773,9.805792,0.0012067035,0.00051951036,-0.00042819977,-4.5776367e-05,-3.0517578e-05,0.0002593994
2019-07-01T18:53:52.690Z,-6.319718e-05,-0.0066328174,0.46489415,0.11557007,-0.06317139,9.80986,13.140869,11.715698,-58.416748,0.1145991,-0.06157613,9.805787,-0.0004900247,-0.0018250681,-0.001077652,7.6293945e-05,-0.0001373291,0.00012207031
2019-07-01T18:53:52.894Z,-5.182582e-05,-0.0066235014,0.46485427,0.114852905,-0.06124878,9.808182,13.043213,11.270142,-58.050537,0.1145438,-0.06128858,9.805791,3.0465424e-05,0.00028714165,0.0013456345,7.6293945e-05,3.0517578e-05,0.00032043457
2019-07-01T18:53:53.098Z,-7.134237e-05,-0.0066507733,0.46495205,0.115097046,-0.06364441,9.809616,14.094543,11.33728,-57.777405,0.11483256,-0.061888803,9.805782,0.0011839271,-0.0017330423,0.0012197495,0.0001373291,0.00015258789,0.00012207031
2019-07-01T18:53:53.304Z,-0.00010678421,-0.0066708196,0.4650529,0.11557007,-0.06460571,9.807465,13.116455,12.722778,-56.851196,0.11485027,-0.0627001,9.805777,-0.0007443875,-0.0014162809,-0.0020523071,-4.5776367e-05,-0.00019836426,0.00038146973
2019-07-01T18:53:53.502Z,-0.00012705108,-0.0066643716,0.465064,0.11366272,-0.062927246,9.81105,13.189697,10.916138,-57.977295,0.11455269,-0.06299462,9.805779,-0.00021321326,-0.0011158511,0.0018129349,0.0001373291,9.1552734e-05,0.00032043457
2019-07-01T18:53:53.709Z,-0.00014700822,-0.006690348,0.46515903,0.11413574,-0.065078735,9.807938,12.464905,12.762451,-58.026123,0.114814825,-0.0635904,9.805773,-1.15484e-06,-0.0012377203,-0.00022411346,1.5258789e-05,-0.0001373291,0.0002593994
2019-07-01T18:53:53.907Z,-0.00012017124,-0.0066820155,0.46510044,0.11534119,-0.062210083,9.806747,13.197327,12.879944,-57.652283,0.11491916,-0.06304083,9.805774,-9.622425e-05,0.00035890937,-0.001584053,0.00019836426,-7.6293945e-05,0.00032043457
2019-07-01T18:53:54.114Z,-8.252128e-05,-0.006628917,0.46491054,0.11198425,-0.061019897,9.80603,11.845398,11.331177,-57.30896,0.11435403,-0.061878238,9.805788,-0.0016723722,0.0015861951,-0.0016965866,0.00019836426,-0.0001373291,0.00032043457
2019-07-01T18:53:54.316Z,-0.00011647609,-0.006625443,0.46494815,0.11366272,-0.06317139,9.809616,12.869263,10.968018,-58.103943,0.11398146,-0.062441017,9.80579,-0.0008368045,-0.0007140599,0.0017385483,-0.00010681152,-3.0517578e-05,0.00024414062
2019-07-01T18:53:54.520Z,-0.00011504302,-0.0066516385,0.46501437,0.11534119,-0.062210083,9.808655,12.802124,11.175537,-57.455444,0.11444466,-0.06266356,9.805782,0.00062681735,-0.0004938245,-0.00075244904,1.5258789e-05,-7.6293945e-05,0.00012207031
2019-07-01T18:53:54.723Z,-9.801281e-05,-0.0066565378,0.4650037,0.11557007,-0.06364441,9.810333,12.138367,10.769653,-57.585144,0.114685796,-0.062411167,9.805781,0.00062148273,-2.4609268e-05,0.0014095306,0.0001373291,3.0517578e-05,0.00019836426
2019-07-01T18:53:54.924Z,-0.00011874467,-0.0066679274,0.46506184,0.11462402,-0.06388855,9.807465,13.075256,11.773682,-56.89087,0.11469034,-0.06288255,9.8057785,0.0003709346,-0.0012305304,0.00030708313,7.6293945e-05,9.1552734e-05,0.00019836426
2019-07-01T18:53:55.123Z,-6.575468e-05,-0.0066501936,0.46494287,0.11413574,-0.062454224,9.807709,13.090515,12.214661,-57.330322,0.11487409,-0.0617853,9.805782,0.00091202557,0.0012687929,-0.0007162094,0.0001373291,-7.6293945e-05,0.00012207031
2019-07-01T18:53:55.326Z,-5.0368137e-05,-0.0066252206,0.46485674,0.114608765,-0.060546875,9.807465,12.9776,11.706543,-58.563232,0.114586756,-0.061279252,9.805789,-0.0004696548,0.0002693273,-0.0015983582,0.00019836426,3.0517578e-05,0.0002593994
2019-07-01T18:53:55.527Z,-2.8748806e-05,-0.0065776184,0.46470314,0.11341858,-0.059814453,9.807465,12.869263,11.11908,-58.82721,0.1139678,-0.060450062,9.805801,-0.0015301779,0.0013631918,0.00021648407,7.6293945e-05,-7.6293945e-05,0.0
2019-07-01T18:53:55.733Z,-5.3960153e-05,-0.006633563,0.4648834,0.11581421,-0.062210083,9.80603,13.221741,11.643982,-57.829285,0.11469702,-0.06142114,9.805787,0.0013337359,-0.0017436408,-0.0012998581,-4.5776367e-05,-3.0517578e-05,0.00032043457
2019-07-01T18:53:55.938Z,-4.6592333e-05,-0.0066056238,0.46480057,0.1131897,-0.062210083,9.805542,12.37793,12.382507,-56.73828,0.114284776,-0.06102776,9.805794,-0.000878036,0.0009754859,-6.198883e-05,-4.5776367e-05,-1.5258789e-05,0.0002593994
2019-07-01T18:53:56.141Z,-8.513503e-05,-0.0066168574,0.46488273,0.11390686,-0.062210083,9.804825,12.29248,10.787964,-58.721924,0.11412274,-0.061810076,9.805791,-0.00021916628,-0.0020766929,-0.0014772415,0.0001373291,3.0517578e-05,0.00018310547
2019-07-01T18:53:56.342Z,-7.235674e-05,-0.006611089,0.46485016,0.115097046,-0.062454224,9.806992,12.599182,10.366821,-58.291626,0.11414136,-0.061531395,9.805793,-0.00024222583,-0.00020150095,0.0007638931,0.00019836426,-7.6293945e-05,0.00024414062
2019-07-01T18:53:56.547Z,-7.910905e-05,-0.006638471,0.4649307,0.11462402,-0.062454224,9.807709,12.60376,10.514832,-58.488464,0.11454962,-0.061908714,9.805785,0.000538446,-0.0017308444,0.00019359589,0.0002593994,-7.6293945e-05,0.0005645752
2019-07-01T18:53:56.751Z,-7.5040225e-05,-0.0066716913,0.46501157,0.11605835,-0.06436157,9.807709,13.075256,11.92627,-57.765198,0.115157865,-0.062151514,9.805778,0.0011148155,-0.0010120198,0.00092220306,0.0001373291,-3.0517578e-05,0.00019836426
2019-07-01T18:53:56.955Z,-0.00010836766,-0.00665176,0.4650055,0.11294556,-0.06364441,9.808899,12.409973,11.59668,-58.561707,0.11450827,-0.06254762,9.805781,-0.0015826076,-0.00085704774,0.00094127655,1.5258789e-05,-7.6293945e-05,0.0
2019-07-01T18:53:57.153Z,-0.00010524277,-0.0066523,0.4650026,0.11462402,-0.062210083,9.809616,12.072754,10.980225,-57.087708,0.114546366,-0.062497918,9.805783,-0.00019376725,-0.00018556416,0.0012693405,7.6293945e-05,-7.6293945e-05,0.00038146973
2019-07-01T18:53:57.355Z,-8.924652e-05,-0.0066450587,0.46496177,0.1131897,-0.06173706,9.806747,13.038635,11.273193,-58.576965,0.11456939,-0.06214884,9.805784,-0.00046394765,-4.4811517e-05,0.00052165985,0.00019836426,-0.0001373291,0.0005645752
2019-07-01T18:53:57.557Z,-0.000106671636,-0.006605508,0.4648828,0.11174011,-0.06317139,9.805313,13.554382,11.808777,-57.432556,0.1137293,-0.062080573,9.805794,-0.002233401,-0.0003652759,-0.0025205612,0.0001373291,-0.0001373291,0.0002593994
2019-07-01T18:53:57.762Z,-9.650656e-05,-0.006610528,0.4648819,0.11581421,-0.060302734,9.804825,12.87384,11.114502,-58.14972,0.113909215,-0.06194972,9.805793,0.00046321005,-0.00025630742,-0.0013666153,0.0001373291,3.0517578e-05,6.1035156e-05
2019-07-01T18:53:57.962Z,-9.195562e-05,-0.0066093663,0.46487263,0.112457275,-0.062927246,9.808655,13.250732,12.225342,-57.3349,0.11393119,-0.061858907,9.805793,-5.3822994e-05,-0.0003434457,0.0011634827,0.0001373291,-3.0517578e-05,0.0002593994
2019-07-01T18:53:58.171Z,-8.859195e-05,-0.006584481,0.46480322,0.11222839,-0.06173706,9.804825,12.936401,10.528564,-57.365417,0.11353458,-0.061564703,9.8057995,-0.0010875985,7.736683e-05,-0.00065898895,0.0001373291,-7.6293945e-05,0.00032043457
2019-07-01T18:53:58.401Z,-6.887145e-05,-0.006591847,0.4647953,0.11413574,-0.061264038,9.805557,13.076782,11.923218,-57.38983,0.113842815,-0.061288383,9.805798,0.00029535592,0.0007402003,-0.0021982193,-4.5776367e-05,-7.6293945e-05,-6.1035156e-05
2019-07-01T18:53:58.572Z,-7.884503e-05,-0.006595275,0.46481794,0.1131897,-0.060546875,9.807709,12.12616,11.766052,-54.663086,0.11380985,-0.061495736,9.805797,-0.00015569478,-0.00070971623,0.0018911362,7.6293945e-05,-3.0517578e-05,0.00024414062
2019-07-01T18:53:58.776Z,-5.9599704e-05,-0.006570215,0.46472627,0.11532593,-0.061019897,9.808182,12.229919,11.146545,-58.494568,0.11355646,-0.06092132,9.805803,0.00032486767,0.0010971166,0.00030136108,1.5258789e-05,0.00021362305,0.00019836426
2019-07-01T18:53:58.977Z,-7.724923e-05,-0.0066047893,0.4648405,0.11462402,-0.062454224,9.810333,12.962341,11.187744,-57.60956,0.11398805,-0.061557677,9.805796,0.00060774386,-0.0011101775,0.0030708313,-4.5776367e-05,-7.6293945e-05,0.00012207031
2019-07-01T18:53:59.175Z,-5.5326793e-05,-0.0066338065,0.4648859,0.1138916,-0.06460571,9.806992,13.322449,11.860657,-56.581116,0.11468861,-0.06144742,9.805787,0.00038754195,-0.0012397543,-0.0012989044,0.00038146973,-0.0002593994,6.1035156e-05
2019-07-01T18:53:59.382Z,-0.000106319334,-0.0066478075,0.4649924,0.11413574,-0.062454224,9.808182,13.293457,11.430359,-57.80182,0.11445926,-0.062474314,9.805783,-0.00057382137,-0.0018755682,9.059906e-05,-4.5776367e-05,-3.0517578e-05,6.1035156e-05
2019-07-01T18:53:59.590Z,-7.497509e-05,-0.0066012326,0.4648281,0.11294556,-0.061019897,9.811539,12.142944,10.919189,-58.084106,0.113947876,-0.06148416,9.805796,-0.0012837127,0.001201529,0.0027656555,0.00019836426,-7.6293945e-05,6.1035156e-05
2019-07-01T18:53:59.791Z,-9.822873e-05,-0.0066143773,0.46489426,0.11437988,-0.062210083,9.808655,12.820435,11.616516,-57.74231,0.113959484,-0.062016316,9.805792,-9.140372e-05,-0.00088982284,0.00025749207,-4.5776367e-05,-3.0517578e-05,0.0
2019-07-01T18:53:59.992Z,-0.00010901049,-0.006632759,0.46495694,0.11341858,-0.06364441,9.810104,12.44812,10.575867,-58.31604,0.11417594,-0.062379226,9.805788,-8.288026e-05,-0.0010129847,0.00065135956,7.6293945e-05,-0.0001373291,0.0002593994
2019-07-01T18:54:00.197Z,-0.00010359455,-0.006643195,0.46497664,0.114608765,-0.062454224,9.809143,13.313293,11.869812,-57.711792,0.11440513,-0.0623829,9.805784,-0.00030816346,-5.0183386e-05,-0.00068187714,1.5258789e-05,-0.00019836426,0.0002593994
2019-07-01T18:54:00.398Z,-0.00013652488,-0.00666658,0.46508276,0.114608765,-0.06460571,9.806747,13.336182,12.380981,-57.911682,0.114503264,-0.063181676,9.805778,7.118285e-05,-0.0016492382,-0.0007791519,1.5258789e-05,-3.0517578e-05,6.1035156e-05
2019-07-01T18:54:00.599Z,-0.00013394993,-0.0066180946,0.46495304,0.11294556,-0.06149292,9.808655,12.773132,12.417603,-57.87964,0.113694176,-0.06267805,9.805792,-0.0014985949,0.00095906854,-0.00019454956,1.5258789e-05,3.0517578e-05,0.00019836426
2019-07-01T18:54:00.810Z,-9.1064845e-05,-0.006645883,0.46496642,0.11557007,-0.062454224,9.809143,13.067627,11.627197,-56.91986,0.114566796,-0.062188532,9.805784,0.0014582574,0.00022540241,2.193451e-05,0.00019836426,-7.6293945e-05,0.0002593994
2019-07-01T18:54:01.014Z,-5.956893e-05,-0.006686352,0.46502843,0.115097046,-0.06317139,9.80603,12.390137,10.9313965,-57.411194,0.115552336,-0.0620188,9.805774,0.001197882,0.00053945556,-0.0014162064,-4.5776367e-05,-0.00019836426,0.00032043457
2019-07-01T18:54:01.247Z,-8.202715e-05,-0.0066666417,0.46500802,0.11413574,-0.062210083,9.80722,12.646484,11.38916,-58.084106,0.1150067,-0.062226307,9.805778,-0.0018565431,-0.0011760853,-0.00013923645,0.00019836426,-0.00019836426,6.1035156e-05
2019-07-01T18:54:01.408Z,-8.0665784e-05,-0.0066172583,0.46487764,0.11341858,-0.06124878,9.80603,12.367249,12.240601,-57.295227,0.114170805,-0.061735466,9.805791,-0.0024457201,0.00047955662,-0.0015249252,0.0001373291,-0.00019836426,0.00038146973
2019-07-01T18:54:01.615Z,-7.7299796e-05,-0.0066389544,0.4649295,0.112701416,-0.06317139,9.806747,11.451721,11.598206,-57.765198,0.1145746,-0.061881546,9.805785,0.0005104244,-0.0012833476,-0.00053977966,0.0002593994,-7.6293945e-05,0.00012207031
2019-07-01T18:54:01.817Z,-8.668556e-05,-0.0066324384,0.4649254,0.117004395,-0.060775757,9.807465,13.510132,10.861206,-57.62329,0.11437616,-0.06198458,9.805787,0.001420565,-0.0014214702,-0.00029468536,0.00032043457,0.00015258789,0.00012207031
2019-07-01T18:54:02.022Z,-5.899999e-05,-0.006646926,0.46492508,0.11581421,-0.061965942,9.809372,12.785339,10.736084,-57.31659,0.11488019,-0.061635908,9.805783,0.0009063482,-8.63038e-05,0.0017147064,0.00019836426,-3.0517578e-05,-0.00018310547
2019-07-01T18:54:02.221Z,-5.8887283e-05,-0.006665649,0.46497363,0.11198425,-0.062454224,9.80603,13.064575,11.785889,-58.32367,0.11520292,-0.061811,9.8057785,-0.00036949664,-0.00063276663,-0.0014066696,7.6293945e-05,-0.0002593994,6.1035156e-05
2019-07-01T18:54:02.426Z,-7.271646e-05,-0.0066435537,0.46493515,0.11341858,-0.06341553,9.807709,12.898254,11.547852,-57.458496,0.114695854,-0.061844636,9.805784,-0.0012985393,0.00011904538,0.00033473969,-4.5776367e-05,-7.6293945e-05,0.0002593994
2019-07-01T18:54:02.633Z,-8.663371e-05,-0.006645279,0.46495876,0.11653137,-0.061264038,9.808182,12.580872,11.598206,-57.28302,0.11459724,-0.062105082,9.805783,-0.00048404932,-0.00033691898,0.00022411346,-4.5776367e-05,-7.6293945e-05,0.00019836426
2019-07-01T18:54:02.835Z,-3.237343e-05,-0.0066044684,0.464778,0.11557007,-0.060058594,9.809143,13.7161255,11.82251,-57.814026,0.114395894,-0.060767405,9.805795,0.00043091178,0.0019128583,0.0006227493,0.00019836426,0.00021362305,0.00012207031
2019-07-01T18:54:03.037Z,-3.8834973e-05,-0.0066075586,0.46479493,0.112701416,-0.060058594,9.809616,12.490845,11.448669,-57.688904,0.11438948,-0.060909964,9.805794,-0.0002879128,-0.001053039,0.0013809204,0.00019836426,-7.6293945e-05,0.00012207031
2019-07-01T18:54:03.238Z,-9.024469e-05,-0.006631955,0.46492904,0.114852905,-0.06556702,9.806747,12.217712,10.777283,-57.891846,0.11433505,-0.06204244,9.805787,-0.00022960454,-0.0025468357,-0.0006761551,7.6293945e-05,-3.0517578e-05,0.00019836426
2019-07-01T18:54:03.440Z,-0.000107855136,-0.006612277,0.46490204,0.112701416,-0.0619812,9.806274,12.573242,11.378479,-57.177734,0.1138347,-0.062165324,9.805793,-0.00043341517,-0.00075247884,-0.002213478,0.0001373291,0.00015258789,0.00019836426
2019-07-01T18:54:03.646Z,-5.2623298e-05,-0.0066213696,0.46484983,0.11557007,-0.060302734,9.808426,12.895203,11.39679,-57.110596,0.11449981,-0.061282407,9.80579,0.0010493323,0.0014791526,0.00059986115,7.6293945e-05,-7.6293945e-05,0.00024414062
2019-07-01T18:54:03.846Z,-7.667984e-05,-0.006599776,0.46482667,0.11317444,-0.06364441,9.806992,12.643433,11.314392,-57.948303,0.113907136,-0.061500296,9.805796,-0.0014711097,-0.0011865944,8.392334e-05,0.00019836426,-7.6293945e-05,0.00032043457
2019-07-01T18:54:04.053Z,-0.00010945481,-0.006638058,0.46497133,0.11462402,-0.06364441,9.805542,12.792969,11.03363,-58.01239,0.11426288,-0.062437125,9.805786,0.0012910292,-0.0021597557,-0.00091362,7.6293945e-05,0.00015258789,6.1035156e-05
2019-07-01T18:54:04.254Z,-0.00010537845,-0.00665216,0.46500242,0.11462402,-0.06341553,9.808655,12.989807,11.618042,-56.61621,0.1145427,-0.062498968,9.805782,-0.00018573552,5.725026e-05,0.0011539459,-4.5776367e-05,-0.00019836426,0.0002593994
2019-07-01T18:54:04.457Z,-9.6301876e-05,-0.006631599,0.46493644,0.11437988,-0.060058594,9.809372,13.6779785,10.9436035,-57.461548,0.114273116,-0.062145326,9.805787,-0.0006395355,0.00017996877,0.0010843277,0.0001373291,-3.0517578e-05,0.00019836426
2019-07-01T18:54:04.658Z,-8.469969e-05,-0.0066203605,0.46489125,0.11341858,-0.06341553,9.806503,13.07373,11.851501,-57.5531,0.11418695,-0.06183556,9.805791,-0.00031100214,0.00035111234,-0.0023088455,7.6293945e-05,-3.0517578e-05,0.00024414062
2019-07-01T18:54:04.859Z,-5.633631e-05,-0.006641333,0.46490687,0.11534119,-0.06173706,9.811295,12.510681,12.1154785,-58.91266,0.11480864,-0.061536297,9.805785,0.0009753853,-0.00065760687,0.0024576187,0.00032043457,-7.6293945e-05,-0.00012207031
2019-07-01T18:54:05.065Z,-8.457484e-05,-0.0066361506,0.46493217,0.11437988,-0.06341553,9.805542,12.113953,11.930847,-57.121277,0.11445939,-0.061982654,9.805786,-0.00082232803,-0.0016478635,-0.0007638931,0.00019836426,-3.0517578e-05,0.00012207031
2019-07-01T18:54:05.268Z,-5.7065456e-05,-0.006634434,0.4648899,0.11413574,-0.061019897,9.80722,11.689758,11.616516,-58.07495,0.11468338,-0.061483856,9.805787,0.00014864653,0.0002462715,-0.0008249283,0.00019836426,-7.6293945e-05,0.00018310547
2019-07-01T18:54:05.471Z,-3.792028e-05,-0.006591927,0.464753,0.11366272,-0.05958557,9.808426,12.791443,11.03363,-58.01239,0.11412926,-0.060746174,9.805798,-0.0009796843,0.0014179759,0.0007209778,1.5258789e-05,3.0517578e-05,0.00012207031
2019-07-01T18:54:05.673Z,-4.927959e-05,-0.006612697,0.46482265,0.115097046,-0.062927246,9.80722,13.261414,10.848999,-58.447266,0.114381574,-0.061141763,9.805792,-0.00026619434,-0.0015457198,-0.00078964233,0.00019836426,-0.00019836426,0.00012207031
2019-07-01T18:54:05.876Z,-5.0221028e-05,-0.006604701,0.46480313,0.11294556,-0.060775757,9.80722,12.849426,10.374451,-57.092285,0.1142355,-0.0610827,9.805795,-0.000590913,-0.00064466894,-0.000374794,0.00019836426,-7.6293945e-05,0.0
2019-07-01T18:54:06.073Z,-7.1141585e-05,-0.0066204984,0.464873,0.11390686,-0.062927246,9.80722,12.70752,10.803223,-57.073975,0.11431423,-0.061599024,9.80579,4.7020614e-05,-0.00084516034,7.6293945e-05,-4.5776367e-05,-3.0517578e-05,0.0002593994
2019-07-01T18:54:06.278Z,-7.840801e-05,-0.006618336,0.46487734,0.114852905,-0.06413269,9.809143,13.047791,11.265564,-57.37152,0.11421013,-0.06170605,9.805791,0.00014898926,-0.0009810925,0.0003633499,0.00019836426,9.1552734e-05,0.0
2019-07-01T18:54:06.476Z,-0.00011142353,-0.0066393865,0.4649775,0.11437988,-0.06173706,9.808426,12.557983,11.16333,-57.824707,0.11426754,-0.062484212,9.805785,-0.00016245991,-0.0016317144,0.0016880035,1.5258789e-05,-7.6293945e-05,-0.00012207031
2019-07-01T18:54:06.678Z,-8.9243775e-05,-0.0066445097,0.46496034,0.11437988,-0.065322876,9.804825,12.95929,11.190796,-58.137512,0.11455998,-0.062143598,9.805784,0.0002733767,0.0001730062,-0.0019159317,0.0001373291,-7.6293945e-05,0.00019836426
2019-07-01T18:54:06.890Z,-0.00012774902,-0.0066500413,0.46502766,0.11390686,-0.06317139,9.807465,12.496948,11.291504,-56.134033,0.114300095,-0.06287133,9.805782,-0.00064945966,-0.0019718707,-0.0012779236,0.0001373291,-3.0517578e-05,0.00012207031
2019-07-01T18:54:07.109Z,-0.0001053667,-0.006599302,0.46486485,0.112457275,-0.060775757,9.807938,11.564636,11.953735,-55.433655,0.1136347,-0.061999027,9.805796,-0.0014252812,0.0009894818,0.0012216568,0.00019836426,-3.0517578e-05,0.00038146973
2019-07-01T18:54:07.296Z,-6.5835695e-05,-0.006594269,0.46479744,0.11462402,-0.05886841,9.80722,12.716675,10.948181,-56.8161,0.1139124,-0.06125802,9.805798,0.0006897077,0.0014400929,0.00049877167,1.5258789e-05,3.0517578e-05,0.00044250488
2019-07-01T18:54:07.497Z,-6.9434245e-05,-0.006602828,0.46482465,0.1138916,-0.062454224,9.806747,11.849976,11.402893,-57.144165,0.11402632,-0.061402038,9.805795,9.665638e-05,-0.00032814965,-0.0015792847,1.5258789e-05,-3.0517578e-05,0.00019836426
2019-07-01T18:54:07.716Z,-7.445112e-05,-0.0066541736,0.46496516,0.11605835,-0.062927246,9.809143,12.400818,11.378479,-58.680725,0.11486234,-0.061975498,9.805782,0.00068971515,-0.0019033328,0.0008621216,0.00019836426,-0.0002593994,0.00032043457
2019-07-01T18:54:07.897Z,-5.750745e-05,-0.006640673,0.46490675,0.11366272,-0.060302734,9.80722,13.510132,10.861206,-57.62329,0.114786506,-0.0615506,9.805785,-0.00043072551,0.0012607872,0.0010547638,-0.00010681152,-7.6293945e-05,0.00012207031
2019-07-01T18:54:08.104Z,-5.8616028e-05,-0.006643093,0.4649146,0.11437988,-0.062927246,9.807938,12.927246,12.054443,-56.599426,0.11481787,-0.06159293,9.805784,-0.00070773065,-0.0006034188,-0.0007505417,-4.5776367e-05,-0.0002593994,0.00048828125
2019-07-01T18:54:08.316Z,-4.2889053e-05,-0.0066500506,0.46491107,0.114852905,-0.060775757,9.808899,13.589478,10.949707,-58.81653,0.11508232,-0.061382826,9.805782,0.00023420155,-0.00034108013,-0.00017547607,0.00019836426,-7.6293945e-05,6.1035156e-05
2019-07-01T18:54:08.514Z,-4.173845e-05,-0.0066542393,0.4649204,0.11341858,-0.06173706,9.807938,13.2369995,12.161255,-58.63037,0.11516491,-0.06140226,9.805782,-0.0010578036,-0.0005636774,0.0006799698,0.0001373291,-0.00032043457,0.00019836426
2019-07-01T18:54:08.715Z,-2.982402e-05,-0.006643886,0.4648771,0.11628723,-0.060775757,9.806747,11.987305,10.903931,-57.400513,0.11509677,-0.061095335,9.805784,-2.2545457e-05,0.000575833,-0.0009813309,1.5258789e-05,3.0517578e-05,0.00032043457
2019-07-01T18:54:08.916Z,-3.7804133e-05,-0.0066495584,0.46490282,0.11437988,-0.06149292,9.809143,12.757874,11.975098,-57.29065,0.115120724,-0.06128897,9.805783,0.00042004138,-0.0006766319,0.0010938644,7.6293945e-05,9.1552734e-05,0.0002593994
2019-07-01T18:54:09.121Z,-4.3234377e-05,-0.006661811,0.46494216,0.11557007,-0.062927246,9.806992,12.854004,10.601807,-58.026123,0.11528122,-0.061500106,9.805779,-0.00021033734,-0.00094015524,-0.00054073334,0.0001373291,-0.0001373291,0.00018310547
2019-07-01T18:54:09.324Z,-1.1735081e-05,-0.0066423784,0.4648483,0.11532593,-0.06124878,9.805542,12.710571,11.257935,-59.321594,0.115237504,-0.06076374,9.805785,-0.00064235926,0.00095646456,-0.0021190643,0.0001373291,-0.0001373291,0.0
2019-07-01T18:54:09.524Z,-4.0191182e-05,-0.006647522,0.4649008,0.114852905,-0.061965942,9.807709,12.956238,11.193848,-58.514404,0.115063734,-0.061311588,9.805783,0.0002464801,-0.0020955652,0.00034236908,0.0002593994,0.00015258789,6.1035156e-05
2019-07-01T18:54:09.726Z,-2.486336e-05,-0.0066722585,0.4649441,0.115097046,-0.062454224,9.809143,12.496948,11.595154,-57.807922,0.11563001,-0.061276637,9.805777,0.00040076673,-0.00068995357,0.0019893646,0.00019836426,-0.00019836426,0.00038146973
2019-07-01T18:54:09.935Z,-7.9188874e-05,-0.0066278772,0.46490324,0.11341858,-0.062927246,9.80986,12.734985,11.540222,-57.83081,0.11436688,-0.061809957,9.805789,-0.0021659061,-0.0013466142,4.2915344e-05,7.6293945e-05,9.1552734e-05,0.00032043457
2019-07-01T18:54:10.136Z,-6.583214e-05,-0.006639122,0.46491417,0.11390686,-0.0619812,9.80986,12.800598,11.027527,-57.107544,0.11468315,-0.061681967,9.805785,0.0001327321,-0.00026405975,0.0016260147,0.0001373291,-0.0001373291,0.00044250488
2019-07-01T18:54:10.339Z,-7.8371086e-05,-0.006649753,0.46495906,0.11390686,-0.062454224,9.807709,13.305664,11.569214,-56.86798,0.114750266,-0.062002458,9.805783,-0.00039884448,-0.00066526607,-0.0014677048,1.5258789e-05,-0.0001373291,0.0005645752
2019-07-01T18:54:10.534Z,-4.3393535e-05,-0.006619158,0.46483138,0.114852905,-0.05958557,9.808899,11.633301,11.817932,-56.29425,0.114546835,-0.06109959,9.805791,-0.0009178892,0.0008148737,0.00093364716,0.0002593994,-0.0001373291,0.00032043457
2019-07-01T18:54:10.745Z,-4.6170207e-05,-0.006617174,0.46483004,0.11366272,-0.062698364,9.807938,12.571716,11.456299,-57.84149,0.11448716,-0.061129544,9.805792,-0.0003925562,-0.00058555976,0.0012636185,0.0001373291,-7.6293945e-05,0.0002593994
2019-07-01T18:54:10.944Z,-3.2087773e-05,-0.006595687,0.46475476,0.11341858,-0.060775757,9.808426,13.505554,10.78949,-58.013916,0.1142476,-0.06067939,9.805797,-0.00014098734,0.0006362684,-0.002038002,7.6293945e-05,9.1552734e-05,0.00038146973
2019-07-01T18:54:11.144Z,-6.075779e-05,-0.006560307,0.46470207,0.112701416,-0.060775757,9.80603,12.87384,11.264038,-58.798218,0.11337552,-0.060848027,9.805807,-0.0018834025,8.2526356e-05,-0.0016727448,-0.00010681152,-3.0517578e-05,-6.1035156e-05
2019-07-01T18:54:11.352Z,-7.920537e-05,-0.006580824,0.4647808,0.110305786,-0.06149292,9.805557,13.02948,12.495422,-56.43921,0.1135582,-0.06136549,9.8058,-0.0004002005,-0.0015528761,-0.0004720688,0.0001373291,-0.00019836426,0.00019836426
2019-07-01T18:54:11.554Z,-0.000119143566,-0.0065600104,0.4647815,0.11437988,-0.06388855,9.805786,12.413025,11.366272,-57.022095,0.11283266,-0.061869394,9.805805,-0.0015745088,-0.0003357865,-0.0012693405,-0.00016784668,-3.0517578e-05,0.00038146973
2019-07-01T18:54:11.756Z,-0.00013062448,-0.0065832064,0.46485767,0.11174011,-0.06317139,9.805542,13.139343,11.566162,-57.76825,0.113125436,-0.062289953,9.8057995,0.0002881065,-0.0011228062,-0.0006933212,7.6293945e-05,-7.6293945e-05,0.00018310547
2019-07-01T18:54:11.956Z,-0.00013479136,-0.0065795537,0.46485388,0.11294556,-0.062698364,9.806503,13.470459,11.732483,-57.595825,0.11302429,-0.062328525,9.8058,-0.00032527,-0.00036851317,-0.00045204163,7.6293945e-05,-3.0517578e-05,0.0
2019-07-01T18:54:12.162Z,-0.00016335868,-0.0065801786,0.46489477,0.11341858,-0.062927246,9.806992,12.35199,12.026978,-58.09326,0.11277178,-0.0628355,9.8058,-0.00079089403,-0.0017683357,0.00016593933,0.00019836426,-7.6293945e-05,0.0002593994
2019-07-01T18:54:12.365Z,-9.198304e-05,-0.0065871635,0.46481487,0.11294556,-0.061019897,9.808182,12.016296,11.714172,-58.294678,0.11354943,-0.06164954,9.805799,0.0010566413,0.0018295683,0.0025119781,0.0001373291,-0.0001373291,6.1035156e-05
2019-07-01T18:54:12.567Z,-0.00010915482,-0.0065314975,0.46469355,0.11174011,-0.06149292,9.805069,12.586975,11.746216,-57.481384,0.1124347,-0.061424844,9.805813,-0.0016523153,-0.00030583888,-0.001045227,0.00019836426,0.00015258789,6.1035156e-05
2019-07-01T18:54:12.776Z,-0.0001265043,-0.006583745,0.4648534,0.1138916,-0.06460571,9.806976,12.612915,10.658264,-58.15735,0.11317265,-0.06222277,9.8057995,0.00095065683,-0.0014148019,9.918213e-05,-4.5776367e-05,-0.0001373291,0.00012207031
2019-07-01T18:54:12.976Z,-0.00011645572,-0.0065665166,0.46479475,0.11174011,-0.060775757,9.808426,12.915039,12.0651245,-58.10852,0.11296922,-0.06188372,9.805804,-0.00028061122,0.0003978163,7.534027e-05,7.6293945e-05,3.0517578e-05,0.00032043457
2019-07-01T18:54:13.179Z,-9.604834e-05,-0.006546058,0.46471345,0.1131897,-0.06149292,9.807709,13.352966,11.001587,-58.34198,0.11280563,-0.06133247,9.805809,-0.001070559,0.0008118935,0.0013246536,7.6293945e-05,-0.00019836426,0.0002593994
2019-07-01T18:54:13.378Z,-0.00010785599,-0.0065789525,0.4648153,0.112701416,-0.061264038,9.808655,13.464355,11.587524,-57.55005,0.113262124,-0.06185038,9.805801,0.00038237125,-0.0020282157,-0.00038814545,0.0002593994,-0.0001373291,0.00012207031
2019-07-01T18:54:13.583Z,-5.3485146e-05,-0.006539508,0.46463794,0.11341858,-0.06124878,9.805542,13.30719,11.569214,-56.86798,0.11308499,-0.060523957,9.805811,-0.0011163801,0.0014350414,-0.00042057037,0.00032043457,-0.00019836426,0.00032043457
2019-07-01T18:54:13.780Z,-5.6401143e-05,-0.0065581226,0.4646904,0.11341858,-0.060775757,9.809143,12.072754,11.131287,-57.810974,0.113378085,-0.060750958,9.805806,0.0004910901,-0.0009740889,0.0011529922,0.0001373291,-3.0517578e-05,0.00038146973
2019-07-01T18:54:13.980Z,-6.107012e-05,-0.006539936,0.46464947,0.11294556,-0.060775757,9.807938,12.489319,11.528015,-58.35266,0.11302252,-0.060661066,9.805811,-0.0008180961,-0.000101827085,0.00029087067,7.6293945e-05,-3.0517578e-05,0.00032043457
2019-07-01T18:54:14.188Z,-3.0696618e-05,-0.0065740384,0.4646965,0.11390686,-0.060058594,9.804108,12.710571,11.106873,-58.447266,0.11388833,-0.060450405,9.805802,0.0011926144,-8.79243e-05,-0.0014028549,0.0001373291,-0.0001373291,0.0002593994
2019-07-01T18:54:14.388Z,-2.4282679e-05,-0.0065626353,0.46465802,0.11366272,-0.061264038,9.80722,11.930847,11.636353,-58.38318,0.11375138,-0.06023014,9.805805,-0.000813663,-6.844103e-05,-0.0014123917,0.0001373291,-0.0001373291,0.0002593994
2019-07-01T18:54:14.592Z,-7.1638926e-05,-0.0066181915,0.46486768,0.11413574,-0.06341553,9.810333,12.643433,11.314392,-57.948303,0.11427001,-0.06158594,9.805791,0.0005508363,-0.0010951459,0.002035141,7.6293945e-05,-0.0001373291,0.00019836426
2019-07-01T18:54:14.798Z,-6.682185e-05,-0.0066135647,0.46484903,0.11366272,-0.060775757,9.807709,12.728882,11.393738,-57.859802,0.11423489,-0.0614577,9.805792,-0.0010739639,-0.00026388094,-0.0005531311,0.0001373291,-0.0002593994,0.00012207031
2019-07-01T18:54:15.008Z,-6.295349e-05,-0.006628062,0.46488142,0.11413574,-0.062927246,9.808655,13.587952,10.719299,-57.580566,0.11451963,-0.061526895,9.805788,-0.0001738742,5.23068e-05,0.0009059906,-4.5776367e-05,-0.00019836426,0.00044250488
2019-07-01T18:54:15.229Z,-7.7220255e-05,-0.006624247,0.4648911,0.11317444,-0.06149292,9.807938,12.721252,11.019897,-56.7276,0.11432263,-0.061741095,9.805789,-0.0011736527,-0.0009435192,-0.0014696121,0.0001373291,-0.00019836426,0.00012207031
2019-07-01T18:54:15.411Z,-6.451468e-05,-0.006578686,0.46475506,0.112457275,-0.060546875,9.805069,12.373352,12.080383,-55.59082,0.11365678,-0.061087586,9.805801,-0.0014497712,0.00079634786,-0.00065517426,0.0001373291,-3.0517578e-05,0.00032043457
2019-07-01T18:54:15.608Z,-4.8544694e-05,-0.0065447167,0.4646447,0.11151123,-0.058624268,9.806992,12.886047,11.407471,-58.317566,0.11322001,-0.060486495,9.80581,-0.0007624626,0.0013972148,-0.001077652,-4.5776367e-05,3.0517578e-05,0.0002593994
2019-07-01T18:54:15.813Z,-5.2823376e-05,-0.006528565,0.46460852,0.11341858,-0.062454224,9.807465,13.708496,11.828613,-58.717346,0.11290299,-0.060408995,9.805814,-0.0014024973,-0.00036101416,-0.0007162094,0.0001373291,-0.00019836426,0.00019836426
2019-07-01T18:54:16.014Z,-5.957675e-05,-0.006560653,0.46470132,0.11341858,-0.060546875,9.810577,13.026428,10.983276,-58.711243,0.11339233,-0.06083057,9.805805,6.16163e-06,-0.00089572,0.0016012192,1.5258789e-05,-0.0002593994,0.00036621094
2019-07-01T18:54:16.215Z,-1.7692915e-05,-0.006626942,0.46481633,0.117248535,-0.0619812,9.806503,11.99646,11.198425,-57.79419,0.11491734,-0.060722306,9.805789,0.0025485456,-0.00052757934,0.0010681152,0.00019836426,-0.0001373291,0.00062561035
2019-07-01T18:54:16.419Z,-1.6913793e-05,-0.006612067,0.46477655,0.11366272,-0.060775757,9.806747,12.719727,11.399841,-58.91571,0.11466887,-0.060568016,9.805793,-0.0007978156,3.199652e-05,-0.0010471344,7.6293945e-05,-7.6293945e-05,0.00024414062
2019-07-01T18:54:16.624Z,-7.2492156e-05,-0.006623859,0.4648836,0.11413574,-0.062210083,9.807938,12.652588,11.608887,-58.265686,0.11435953,-0.061654486,9.805789,-0.0007198006,-0.0019775294,0.00042152405,-4.5776367e-05,-3.0517578e-05,0.00048828125
2019-07-01T18:54:16.839Z,-5.575225e-05,-0.0065971487,0.4647911,0.11198425,-0.060058594,9.806747,13.000488,11.990356,-57.29828,0.11405477,-0.06110835,9.805797,-0.0011308715,0.0012902431,-0.00019454956,-4.5776367e-05,-0.0001373291,0.00044250488
2019-07-01T18:54:17.030Z,-3.273757e-05,-0.006610225,0.4647935,0.11437988,-0.060775757,9.806503,13.015747,10.610962,-57.87964,0.11449148,-0.06082821,9.805794,0.00034508854,-0.000411883,-0.00093364716,0.0002593994,-0.0001373291,0.00050354004
2019-07-01T18:54:17.240Z,-2.832011e-05,-0.0065560527,0.46464643,0.11151123,-0.05958557,9.809143,12.541199,10.951233,-58.84857,0.113601066,-0.060238782,9.805807,-0.0018798709,0.0009073876,0.0004968643,7.6293945e-05,-3.0517578e-05,0.0005645752
2019-07-01T18:54:17.434Z,5.808576e-06,-0.006544101,0.46456847,0.1138916,-0.05886841,9.806976,12.660217,11.602783,-57.362366,0.11370978,-0.059527136,9.80581,-0.0007804185,0.00091134757,-0.00045967102,0.0001373291,-0.0002593994,0.00032043457
2019-07-01T18:54:17.637Z,-3.9329727e-05,-0.006544924,0.46463257,0.11366272,-0.062927246,9.804596,13.07373,11.927795,-57.917786,0.113308415,-0.060326796,9.80581,-0.0010934472,-0.0014031194,-0.0004682541,-4.5776367e-05,-7.6293945e-05,0.00038146973
2019-07-01T18:54:17.842Z,-4.1685766e-05,-0.0065544597,0.46466064,0.112457275,-0.061019897,9.808182,12.872314,11.116028,-58.30078,0.113450624,-0.060458206,9.805807,0.0004210025,-0.0010240674,0.0011205673,0.00019836426,3.0517578e-05,0.00024414062
2019-07-01T18:54:18.043Z,-2.8210356e-05,-0.006589106,0.46473232,0.11534119,-0.061965942,9.808899,12.72583,11.31897,-57.724,0.11417019,-0.06054917,9.805799,0.00091066957,-0.0006910227,-0.00068569183,0.0001373291,-0.0001373291,0.00036621094
2019-07-01T18:54:18.252Z,-8.595441e-05,-0.006605922,0.4648554,0.11437988,-0.062454224,9.80722,13.148499,11.708069,-57.362366,0.11392729,-0.061721075,9.805794,-0.001002714,-0.0028732717,0.00082588196,0.0001373291,-0.0001373291,0.00012207031
2019-07-01T18:54:18.447Z,-6.6635126e-05,-0.0066062002,0.4648296,0.11294556,-0.06173706,9.806503,12.654114,11.534119,-57.754517,0.11411006,-0.061384812,9.805794,0.00048003346,0.0006190948,-0.00040626526,1.5258789e-05,3.0517578e-05,6.1035156e-05
2019-07-01T18:54:18.653Z,-3.760379e-05,-0.0065776007,0.46471527,0.11294556,-0.05958557,9.808426,11.650085,10.5896,-57.528687,0.11388597,-0.060605247,9.805802,-0.00073215365,0.0012747906,0.0003604889,7.6293945e-05,-7.6293945e-05,0.0002593994
2019-07-01T18:54:18.848Z,-5.224623e-05,-0.006596621,0.4647849,0.11413574,-0.06149292,9.807938,13.145447,11.709595,-57.662964,0.11407799,-0.061041858,9.805797,0.00027883053,-0.0011558868,0.00040340424,7.6293945e-05,-3.0517578e-05,0.00032043457
2019-07-01T18:54:19.050Z,-1.546223e-05,-0.0065696198,0.4646641,0.11341858,-0.05934143,9.806747,12.408447,11.447144,-58.06427,0.11395265,-0.060141392,9.805803,-0.0005520806,0.0012824908,-0.0008497238,0.0001373291,-7.6293945e-05,0.00012207031
2019-07-01T18:54:19.253Z,-4.72905e-05,-0.0065818527,0.46473965,0.114852905,-0.06149292,9.806259,12.368774,10.798645,-59.329224,0.11386983,-0.060815353,9.8058,-0.00046223402,-0.00067170337,-0.0012044907,-0.00016784668,-7.6293945e-05,0.00048828125
2019-07-01T18:54:19.457Z,-2.4970932e-05,-0.006602584,0.46476296,0.11437988,-0.06149292,9.81105,13.111877,10.829163,-57.16095,0.11443167,-0.060619723,9.805795,0.00039524585,-0.00014226884,0.0025558472,0.0001373291,-0.00019836426,0.0002593994
2019-07-01T18:54:19.664Z,-8.5594475e-05,-0.00660345,0.4648485,0.112457275,-0.06436157,9.806259,12.72583,11.166382,-56.848145,0.113888144,-0.061691403,9.805795,-0.0009672567,-0.0024279281,-0.00020980835,7.6293945e-05,3.0517578e-05,0.00019836426
2019-07-01T18:54:19.869Z,-8.607166e-05,-0.0066276398,0.4649121,0.11462402,-0.060775757,9.808182,12.492371,11.37085,-57.174683,0.11429938,-0.061928447,9.805789,0.00030069053,-0.0009858161,-0.00014972687,0.0001373291,-0.0001373291,0.00038146973
2019-07-01T18:54:20.068Z,-6.316439e-05,-0.006619182,0.4648586,0.11366272,-0.062210083,9.806259,12.770081,10.523987,-58.265686,0.11436511,-0.061446644,9.805791,0.00023049861,0.00092209503,-0.0018501282,1.5258789e-05,3.0517578e-05,0.00012207031
2019-07-01T18:54:20.276Z,-8.524866e-05,-0.0066035236,0.4648482,0.11294556,-0.062210083,9.808182,12.431335,11.956787,-57.80945,0.11389259,-0.06168603,9.805795,-0.0019262582,-0.0012315102,0.00084400177,0.00019836426,-0.0002593994,0.00038146973
2019-07-01T18:54:20.477Z,-8.499432e-05,-0.0065858983,0.46480197,0.11317444,-0.062683105,9.808899,13.638306,11.891174,-57.644653,0.11359207,-0.06151499,9.805799,-0.00044891238,0.00028314814,0.002322197,1.5258789e-05,3.0517578e-05,0.00032043457
2019-07-01T18:54:20.678Z,-8.108346e-05,-0.006599672,0.46483245,0.11366272,-0.05958557,9.807938,12.918091,11.909485,-57.00836,0.11386479,-0.061576564,9.805796,-0.00022482127,-0.0006212145,-0.0014810562,0.0001373291,-0.00019836426,0.00050354004
2019-07-01T18:54:20.893Z,-6.1576866e-05,-0.00659642,0.46479717,0.11462402,-0.062210083,9.808182,13.261414,11.079407,-59.83429,0.11398859,-0.06120364,9.805797,0.0006091669,0.0006861314,0.0005979538,1.5258789e-05,9.1552734e-05,6.1035156e-05
2019-07-01T18:54:21.135Z,-8.799326e-05,-0.0065724407,0.46477106,0.11294556,-0.06173706,9.806503,13.345337,11.158752,-59.898376,0.113333195,-0.061440427,9.805802,-0.00088538975,-0.0012445338,-4.7683716e-06,7.6293945e-05,3.0517578e-05,1.5258789e-05
2019-07-01T18:54:21.381Z,-6.476417e-05,-0.0065486706,0.46467727,0.11437988,-0.06149292,9.805786,13.345337,11.00769,-59.246826,0.11313863,-0.060808375,9.805809,-0.00092653185,0.0012315623,-0.0014352798,1.5258789e-05,-0.0001373291,0.00038146973
2019-07-01T18:54:21.541Z,-6.271533e-05,-0.006592119,0.46478754,0.1138916,-0.062210083,9.807938,13.438416,11.383057,-59.779358,0.11390419,-0.06118296,9.805798,0.0014222935,-0.0010192282,-0.0003156662,7.6293945e-05,-3.0517578e-05,0.00050354004
2019-07-01T18:54:21.693Z,-7.730591e-05,-0.006591093,0.46480492,0.11366272,-0.06341553,9.806747,13.591003,11.096191,-59.08966,0.11375216,-0.06142921,9.805798,-0.000823766,-0.0010157414,0.0004310608,0.0001373291,-0.0001373291,0.00019836426
2019-07-01T18:54:21.896Z,-9.882721e-05,-0.006610514,0.46488506,0.11366272,-0.062927246,9.807709,13.356018,11.151123,-58.766174,0.11388759,-0.061990295,9.805793,-0.0002465546,-0.0018864498,0.0007658005,0.00019836426,-0.0001373291,0.00012207031
2019-07-01T18:54:22.100Z,-0.0001005747,-0.006613432,0.46489504,0.11413574,-0.06149292,9.809616,13.676453,11.174011,-59.002686,0.11392163,-0.062048532,9.805792,-5.003065e-05,-0.000638932,-0.0002937317,0.0001373291,-3.0517578e-05,0.00012207031
2019-07-01T18:54:22.304Z,-8.132279e-05,-0.0065937922,0.46481746,0.112457275,-0.06149292,9.807709,12.469482,10.9375,-57.640076,0.11376155,-0.061525192,9.805798,-0.00083847344,0.0007615946,0.00044631958,7.6293945e-05,-0.0001373291,0.0002593994
2019-07-01T18:54:22.499Z,-5.7486945e-05,-0.0065674903,0.46471626,0.11341858,-0.061019897,9.805313,12.214661,12.371826,-56.884766,0.11352909,-0.060858514,9.805804,-0.00035700947,0.00080936775,-0.00082302094,0.0001373291,3.0517578e-05,0.0
2019-07-01T18:54:22.707Z,-9.4361945e-05,-0.0065534045,0.46473026,0.11079407,-0.06149292,9.806274,13.464355,11.51123,-57.188416,0.112947404,-0.061372288,9.805807,-0.0016946271,-0.0010741614,-0.0005464554,1.5258789e-05,-0.0001373291,0.00019836426
2019-07-01T18:54:22.909Z,-9.033614e-05,-0.0065884087,0.46481586,0.112472534,-0.06460571,9.807938,12.657166,11.531067,-57.377625,0.11358601,-0.06163242,9.805799,0.00028771162,-0.0008121021,0.0005950928,7.6293945e-05,-0.0002593994,0.0001373291
2019-07-01T18:54:23.113Z,-0.00013278247,-0.0065869032,0.46487024,0.11557007,-0.06413269,9.810089,12.605286,10.43396,-57.673645,0.11316907,-0.06236274,9.805799,-1.4156103e-06,-0.0022308193,0.0007171631,0.00019836426,0.00021362305,0.0
2019-07-01T18:54:23.316Z,-0.00012337141,-0.0066058994,0.46490675,0.11317444,-0.0619812,9.806747,12.557983,11.161804,-57.74994,0.11358214,-0.062377203,9.805794,0.00053329766,-0.00078303367,-0.00032615662,0.00019836426,-7.6293945e-05,0.00019836426
2019-07-01T18:54:23.516Z,-0.0001014187,-0.006630114,0.46493962,0.11605835,-0.06173706,9.807938,12.982178,11.625671,-57.595825,0.11420046,-0.062221047,9.805788,0.0011205673,2.1945685e-05,-5.4359436e-05,7.6293945e-05,-3.0517578e-05,7.6293945e-05
2019-07-01T18:54:23.718Z,-5.1210594e-05,-0.0066360165,0.46488598,0.11605835,-0.060546875,9.80722,13.172913,10.626221,-58.410645,0.11476452,-0.06139611,9.805787,0.0012653619,0.001352746,0.0013971329,7.6293945e-05,3.0517578e-05,0.00012207031
2019-07-01T18:54:23.914Z,-4.0429066e-05,-0.006658264,0.46492907,0.11605835,-0.06124878,9.804108,12.966919,11.1831665,-57.081604,0.11524612,-0.061417345,9.80578,0.0010360181,-7.285923e-05,-0.0040130615,1.5258789e-05,3.0517578e-05,7.6293945e-05
2019-07-01T18:54:24.132Z,-4.709065e-05,-0.006655495,0.464931,0.11437988,-0.06173706,9.803635,12.658691,11.604309,-57.5119,0.11513717,-0.061508026,9.805781,-0.00075689703,-0.0007022582,-0.0009241104,0.0001373291,-0.0001373291,6.1035156e-05
2019-07-01T18:54:24.326Z,-3.6764126e-05,-0.006646761,0.46489412,0.11534119,-0.0619812,9.80722,12.651062,11.460876,-57.76825,0.115082234,-0.06124427,9.805783,1.3209879e-05,0.00046936423,0.00033950806,1.5258789e-05,3.0517578e-05,6.1035156e-05
2019-07-01T18:54:24.524Z,-4.9927985e-05,-0.006609935,0.46481636,0.11437988,-0.059814453,9.806274,13.067627,11.781311,-57.946777,0.11432814,-0.06112703,9.805793,-0.0011565313,0.00010864064,0.00022411346,3.0517578e-05,9.1552734e-05,-0.00015258789
2019-07-01T18:54:24.744Z,-2.593223e-05,-0.006645156,0.46487504,0.1138916,-0.0619812,9.809616,12.449646,10.499573,-57.728577,0.115154445,-0.061039068,9.805784,0.0016078725,0.00027030706,0.0017471313,-3.0517578e-05,-1.5258789e-05,-0.0002746582
2019-07-01T18:54:24.934Z,-7.702844e-05,-0.0066034505,0.46483672,0.112472534,-0.062210083,9.808899,13.288879,11.206055,-57.31659,0.11396707,-0.061541144,9.805795,-0.0020053163,-0.00090092793,0.0016412735,-3.0517578e-05,9.1552734e-05,-9.1552734e-05
2019-07-01T18:54:25.135Z,-8.9222136e-05,-0.0065912884,0.46482182,0.11222839,-0.06124878,9.805786,13.044739,11.117554,-57.02362,0.11364575,-0.06164009,9.805798,-0.00071783364,-8.739531e-05,-0.0008172989,-3.0517578e-05,-1.5258789e-05,-0.0002746582
2019-07-01T18:54:25.350Z,-0.000112824084,-0.0065778806,0.46481934,0.11341858,-0.0619812,9.810577,13.284302,11.05957,-57.121277,0.11319794,-0.061927397,9.805801,-0.00028520823,0.00045243278,0.0026493073,-0.0002746582,0.00015258789,-0.00033569336
2019-07-01T18:54:25.545Z,-7.3898846e-05,-0.0065628868,0.46472684,0.11366272,-0.05934143,9.805313,13.058472,11.561584,-57.83844,0.113298826,-0.061102916,9.805805,-0.00013882667,0.0017692782,-0.0031766891,-3.0517578e-05,-7.6293945e-05,-0.00039672852
2019-07-01T18:54:25.766Z,-0.00011575829,-0.006603677,0.4648905,0.11532593,-0.062210083,9.806503,12.31842,11.216736,-57.502747,0.11361412,-0.06222266,9.805795,0.000749588,-0.0016570352,0.00027370453,-0.00015258789,3.0517578e-05,-9.1552734e-05
2019-07-01T18:54:25.953Z,-5.9862487e-05,-0.0065674745,0.46471947,0.112457275,-0.05909729,9.808426,12.481689,11.228943,-57.582092,0.11350694,-0.060900036,9.805804,-0.00010365993,0.0022839755,-0.00013446808,9.1552734e-05,3.0517578e-05,-0.00021362305
2019-07-01T18:54:26.155Z,-4.8473597e-05,-0.0065614684,0.4646882,0.114852905,-0.060058594,9.808655,13.0859375,12.141418,-57.34558,0.11350858,-0.060643494,9.805805,0.000130184,0.0008418411,0.0014972687,-9.1552734e-05,3.0517578e-05,-0.00033569336
2019-07-01T18:54:26.358Z,-5.23092e-05,-0.0066048224,0.46480632,0.11390686,-0.06317139,9.805786,12.757874,11.824036,-56.414795,0.114218354,-0.06112048,9.805795,0.0013355985,-0.0010809787,-0.0013923645,3.0517578e-05,-1.5258789e-05,-0.00039672852
2019-07-01T18:54:26.560Z,-5.8831203e-05,-0.0065674833,0.4647181,0.11366272,-0.058151245,9.807938,12.677002,10.299683,-58.306885,0.11351659,-0.06088203,9.805804,-0.00034300238,0.00083206967,2.4795532e-05,-9.1552734e-05,0.0002746582,4.5776367e-05
2019-07-01T18:54:26.765Z,-6.566181e-05,-0.006587742,0.4647802,0.11462402,-0.06364441,9.810333,12.445068,10.426331,-57.818604,0.11380183,-0.06119328,9.805799,0.0005450547,-5.3014606e-05,0.002896309,-0.00015258789,-1.5258789e-05,-1.5258789e-05
2019-07-01T18:54:26.961Z,-7.453336e-05,-0.0065687643,0.464743,0.11294556,-0.05909729,9.807709,13.241577,10.411072,-58.537292,0.11339399,-0.06116958,9.805803,-0.00071810186,0.00016345084,-0.0012636185,-3.0517578e-05,3.0517578e-05,-0.00021362305
2019-07-01T18:54:27.166Z,-9.0849695e-05,-0.0065978956,0.46484125,0.115097046,-0.06317139,9.804352,12.290955,10.560608,-57.48291,0.11374428,-0.061731085,9.805796,0.00037755817,-0.0004714541,-0.00024700165,0.00015258789,0.00021362305,-9.1552734e-05
2019-07-01T18:54:27.369Z,-4.0093568e-05,-0.006603211,0.46478534,0.11605835,-0.060058594,9.80722,12.799072,11.178589,-57.832336,0.11430318,-0.060890954,9.805795,0.00124643,0.0013162792,0.0011053085,9.1552734e-05,3.0517578e-05,-9.1552734e-05
2019-07-01T18:54:27.576Z,-3.3794287e-05,-0.0066486304,0.4648949,0.11557007,-0.06124878,9.80722,11.91864,11.268616,-57.928467,0.11514173,-0.061209854,9.805784,0.0013720468,-0.00076199695,-0.0005340576,3.0517578e-05,-7.6293945e-05,-0.00021362305
2019-07-01T18:54:27.776Z,-4.984124e-05,-0.006658327,0.46494216,0.11534119,-0.062927246,9.808182,13.244629,12.1536255,-57.57599,0.11516047,-0.061583057,9.80578,0.0006325394,-0.0011039786,0.0005970001,9.1552734e-05,0.00015258789,-1.5258789e-05
2019-07-01T18:54:27.978Z,-8.40834e-05,-0.006611081,0.46486625,0.11222839,-0.061965942,9.809372,12.982178,11.550903,-57.159424,0.11403318,-0.061737023,9.805793,-0.0023161992,0.0005007684,0.00039958954,-0.00021362305,-1.5258789e-05,-0.0002746582
2019-07-01T18:54:28.179Z,-7.953159e-05,-0.00664836,0.46495703,0.11605835,-0.06317139,9.805786,11.909485,11.048889,-57.89795,0.11471563,-0.062009636,9.805783,0.00083135813,-0.0009051338,-4.7683716e-05,9.1552734e-05,-0.0001373291,-0.00015258789
2019-07-01T18:54:28.383Z,-0.0001047706,-0.006713235,0.4651605,0.1179657,-0.06341553,9.808426,12.591553,11.743164,-56.878662,0.11559739,-0.06306607,9.805766,0.0018729717,-0.0017716065,-0.00019454956,-9.1552734e-05,3.0517578e-05,-0.0002746582
2019-07-01T18:54:28.580Z,-5.683972e-05,-0.0066834893,0.46501723,0.11557007,-0.062454224,9.806259,12.091064,11.647034,-58.387756,0.11552829,-0.061943833,9.805774,-0.0004461035,0.0021373443,-0.0012483597,3.0517578e-05,-7.6293945e-05,4.5776367e-05
2019-07-01T18:54:28.800Z,-9.0792055e-05,-0.0067093903,0.46513128,0.11628723,-0.062698364,9.808182,12.159729,11.206055,-57.34558,0.11566024,-0.062784486,9.805767,0.00038243085,-0.0010955632,0.00012493134,-0.00015258789,3.0517578e-05,-3.0517578e-05
2019-07-01T18:54:28.991Z,-6.200571e-05,-0.006720464,0.46512052,0.11462402,-0.06149292,9.808426,12.327576,11.209106,-56.44684,0.11611587,-0.06238431,9.805764,0.00086376816,0.00066054985,0.0015172958,3.0517578e-05,-1.5258789e-05,-0.0002746582
2019-07-01T18:54:29.196Z,-0.0001153227,-0.006711464,0.46517038,0.11462402,-0.06460571,9.80722,12.867737,10.8932495,-57.817078,0.11546966,-0.063234404,9.805766,-0.0013569593,-0.0011145547,-0.00025844574,-0.00015258789,-1.5258789e-05,-9.1552734e-05
2019-07-01T18:54:29.401Z,-0.00012039387,-0.0066855103,0.46510985,0.115097046,-0.0619812,9.810577,13.284302,11.209106,-57.618713,0.11497714,-0.0630778,9.805774,-0.00062752515,0.00064017624,0.0012617111,-9.1552734e-05,9.1552734e-05,-0.00039672852
2019-07-01T18:54:29.604Z,-0.000121937235,-0.0066887722,0.46512046,0.11437988,-0.062927246,9.807938,12.683105,12.266541,-58.135986,0.115018934,-0.06313573,9.805772,-0.0004435107,0.00022678822,0.0005283356,-9.1552734e-05,-0.0001373291,-0.00015258789
2019-07-01T18:54:29.804Z,-0.00013212391,-0.0066824495,0.46511802,0.11462402,-0.06364441,9.808655,13.258362,12.44812,-57.66754,0.11481641,-0.063254595,9.805774,-0.0009438917,-0.00014201552,0.00019168854,-3.0517578e-05,-0.0001373291,-0.00045776367
2019-07-01T18:54:30.006Z,-0.00013939921,-0.0066523473,0.46504968,0.11294556,-0.062454224,9.80722,13.095093,10.542297,-57.746887,0.1142323,-0.063097484,9.805781,-0.0010709092,0.0006588921,-0.0009908676,-9.1552734e-05,3.0517578e-05,-0.00033569336
2019-07-01T18:54:30.208Z,-0.000118191674,-0.0066721914,0.46507215,0.11605835,-0.06341553,9.809143,13.542175,11.44104,-56.977844,0.11476868,-0.06291318,9.805777,0.0010143518,3.0249357e-06,0.00045776367,9.1552734e-05,-1.5258789e-05,-0.00021362305
2019-07-01T18:54:30.413Z,-0.00014584833,-0.0067002573,0.4651832,0.114852905,-0.06460571,9.807938,13.198853,11.2838745,-58.581543,0.11499569,-0.0636638,9.805769,0.0010323226,-0.0013981387,-0.0001745224,-3.0517578e-05,0.00015258789,-0.00033569336
2019-07-01T18:54:30.616Z,-0.0001488976,-0.0066553405,0.46507052,0.11413574,-0.06317139,9.806747,12.454224,10.571289,-57.485962,0.11419615,-0.0632924,9.805781,-0.0008004159,0.00085083395,-0.0012388229,-3.0517578e-05,0.00021362305,-0.00039672852
2019-07-01T18:54:30.818Z,-0.00016317627,-0.0066866092,0.46517152,0.11437988,-0.06460571,9.807709,12.483215,11.076355,-56.63147,0.1146015,-0.06383861,9.805773,0.00093919784,-0.0007507503,0.001086235,-9.1552734e-05,3.0517578e-05,-9.1552734e-05
2019-07-01T18:54:31.017Z,-0.00016602964,-0.0066445377,0.46506596,0.11366272,-0.062698364,9.808182,12.760925,12.121582,-57.562256,0.11385264,-0.063490726,9.805783,-0.000930205,0.00080525875,-0.0010271072,-3.0517578e-05,0.00015258789,-0.00033569336
2019-07-01T18:54:31.227Z,-0.00015338422,-0.0066689514,0.46511212,0.11628723,-0.062454224,9.80603,12.921143,12.059021,-57.20215,0.11438855,-0.06349982,9.805778,0.0011659637,9.293854e-05,-0.0013256073,-3.0517578e-05,3.0517578e-05,-0.00033569336
2019-07-01T18:54:31.441Z,-0.00014494515,-0.00667601,0.46511889,0.11534119,-0.062927246,9.80722,13.285828,11.209106,-57.618713,0.11458759,-0.06341857,9.805776,0.0007375404,-0.00021695346,7.05719e-05,9.1552734e-05,9.1552734e-05,-0.000579834
2019-07-01T18:54:31.629Z,-0.000119005395,-0.0067015067,0.46514955,0.11653137,-0.06436157,9.810333,12.135315,12.138367,-55.49469,0.11526469,-0.06320479,9.805769,0.0014858767,0.0007642433,0.0014810562,-9.1552734e-05,3.0517578e-05,-0.00015258789
2019-07-01T18:54:31.831Z,-0.00010465141,-0.006704632,0.46513796,0.11653137,-0.06149292,9.808655,12.643433,11.390686,-58.38623,0.115450725,-0.062982574,9.805768,8.761138e-05,0.0010186806,0.0011529922,-0.00015258789,-7.6293945e-05,-0.00015258789
2019-07-01T18:54:32.037Z,-8.214605e-05,-0.0067389715,0.46519634,0.117248535,-0.062454224,9.808182,12.876892,11.112976,-57.92389,0.11624805,-0.06291278,9.805758,0.0019346476,0.0009615198,-0.0008277893,-0.00021362305,9.1552734e-05,-0.00015258789
2019-07-01T18:54:32.235Z,-8.90653e-05,-0.0067294664,0.46518114,0.11628723,-0.061965942,9.809387,13.069153,11.932373,-58.520508,0.11602099,-0.06294419,9.805761,-0.0007330328,0.0002664253,0.0018510818,-9.1552734e-05,-7.6293945e-05,-0.0002593994
2019-07-01T18:54:32.443Z,-0.0001152699,-0.006718294,0.4651881,0.112457275,-0.06317139,9.807938,12.283325,12.315369,-58.259583,0.11558745,-0.06329811,9.805764,-0.0007664487,-0.0015342757,-0.0010061264,0.00021362305,3.0517578e-05,-0.00019836426
2019-07-01T18:54:32.645Z,-8.9971574e-05,-0.0066541755,0.4649865,0.1138916,-0.06341553,9.806503,12.731934,11.46698,-57.84607,0.114719324,-0.062247768,9.805781,-0.002759762,0.0024467148,-0.0011444092,-9.1552734e-05,-0.0002593994,-0.00033569336
2019-07-01T18:54:32.847Z,-0.00013496118,-0.00669105,0.46514428,0.115097046,-0.06364441,9.806992,13.198853,11.1328125,-57.781982,0.11493796,-0.063385725,9.805772,0.0003772527,-0.002166964,0.00019359589,-3.0517578e-05,-1.5258789e-05,-0.00015258789
2019-07-01T18:54:33.048Z,-9.909798e-05,-0.006686529,0.4650832,0.11557007,-0.06124878,9.807465,12.586975,11.74469,-57.406616,0.11519098,-0.062713884,9.805773,0.000847131,0.0012319759,-0.0009918213,3.0517578e-05,9.1552734e-05,-1.5258789e-05
2019-07-01T18:54:33.251Z,-0.00011000918,-0.0066604996,0.4650305,0.11341858,-0.060775757,9.805542,13.221741,11.416626,-56.591797,0.11464327,-0.06265906,9.805779,-0.0009948835,0.0009298399,-0.0009756088,-0.00021362305,3.0517578e-05,-0.00021362305
2019-07-01T18:54:33.451Z,-0.00010123389,-0.006648512,0.46498725,0.11294556,-0.062210083,9.806992,11.729431,10.749817,-58.480835,0.114518225,-0.062391765,9.805782,-0.00014603883,0.00065889955,-0.0011281967,-3.0517578e-05,3.0517578e-05,-1.5258789e-05
2019-07-01T18:54:33.654Z,-9.732216e-05,-0.006585584,0.4648181,0.11366272,-0.05911255,9.805313,13.298035,11.503601,-57.78656,0.1134119,-0.061442398,9.805801,-0.0017406642,0.0016738512,4.1007996e-05,-9.1552734e-05,9.1552734e-05,-0.0001373291
2019-07-01T18:54:33.857Z,-0.0001391646,-0.006584162,0.46487188,0.114852905,-0.06460571,9.805786,12.501526,11.66687,-57.56836,0.113063164,-0.06244878,9.8057995,-0.0001289174,-0.0014335178,-0.0009946823,-0.00015258789,0.00015258789,-0.00033569336
2019-07-01T18:54:34.065Z,-0.0001357895,-0.006619418,0.46495903,0.11605835,-0.061965942,9.808426,13.389587,11.7248535,-57.443237,0.11369994,-0.06272282,9.805791,0.0016271025,-0.00091379136,0.00045394897,9.1552734e-05,9.1552734e-05,-0.00021362305
2019-07-01T18:54:34.267Z,-0.00015302392,-0.0066491845,0.46506017,0.11462402,-0.06460571,9.805069,13.616943,11.453247,-57.958984,0.11405237,-0.063306555,9.805782,0.0010378957,-0.0010512546,-0.0012960434,-3.0517578e-05,9.1552734e-05,-0.00021362305
2019-07-01T18:54:34.473Z,-0.00015904018,-0.0066455943,0.4650591,0.112457275,-0.062210083,9.806992,13.684082,11.090088,-57.585144,0.11393523,-0.063378125,9.805783,-0.0005258322,-3.2298267e-05,0.00041866302,-3.0517578e-05,-7.6293945e-05,-9.1552734e-05
2019-07-01T18:54:34.670Z,-0.00012704266,-0.0066251894,0.464962,0.11413574,-0.062698364,9.80603,12.182617,11.71875,-57.469177,0.1138797,-0.062623955,9.805789,0.00024442375,0.0018545836,0.0004310608,-9.1552734e-05,9.1552734e-05,-9.1552734e-05
2019-07-01T18:54:34.868Z,-0.00013300902,-0.0066206525,0.4649584,0.11413574,-0.062454224,9.805557,12.657166,11.454773,-57.014465,0.11374677,-0.06268571,9.80579,-0.0005782023,-0.00048243254,-0.0009832382,9.1552734e-05,-7.6293945e-05,-0.0002746582
2019-07-01T18:54:35.079Z,-0.00012496633,-0.0066569494,0.46504182,0.11390686,-0.06484985,9.80722,12.882996,11.257935,-57.894897,0.114444405,-0.06288785,9.80578,0.0001681447,-0.0012385398,0.00094509125,0.00021362305,-0.00032043457,-9.1552734e-05
2019-07-01T18:54:35.279Z,-0.000115944444,-0.006628171,0.46495453,0.112457275,-0.059829712,9.806992,12.8479,10.453796,-57.754517,0.11403321,-0.062457472,9.805788,-0.0015881136,0.0014442429,0.00015640259,-0.00015258789,-0.00019836426,-9.1552734e-05
2019-07-01T18:54:35.479Z,-0.00011373205,-0.00660234,0.46488425,0.11341858,-0.06364441,9.807465,12.59613,10.142517,-57.429504,0.11360981,-0.062174477,9.805795,-0.00091733783,0.0004423149,-0.00053691864,3.0517578e-05,-1.5258789e-05,-0.00021362305
2019-07-01T18:54:35.682Z,-0.0001734968,-0.006605191,0.4649738,0.112701416,-0.06460571,9.806992,12.612915,10.58197,-57.643127,0.113107994,-0.06324971,9.805794,-0.00017854571,-0.0020641685,0.0012359619,-3.0517578e-05,0.00021362305,-0.0005187988
2019-07-01T18:54:35.880Z,-0.00014851594,-0.0066360715,0.46501985,0.11581421,-0.06149292,9.80722,13.063049,11.708069,-57.962036,0.1138687,-0.06310349,9.805786,0.0012165606,0.00041166693,-0.0007715225,-3.0517578e-05,-7.6293945e-05,-7.6293945e-05
2019-07-01T18:54:36.083Z,-0.00014109757,-0.006647551,0.46503952,0.11317444,-0.06388855,9.806976,13.316345,12.017822,-58.13446,0.11413427,-0.06308192,9.805783,0.0004753247,-8.149445e-05,0.0004415512,3.0517578e-05,-1.5258789e-05,-9.1552734e-05
2019-07-01T18:54:36.288Z,-0.00013915566,-0.0066340985,0.46500185,0.11413574,-0.06388855,9.804352,12.9776,11.402893,-57.037354,0.11392109,-0.06292065,9.805786,-0.0005055964,-0.0002490282,-0.0019445419,0.00015258789,-1.5258789e-05,9.1552734e-05
2019-07-01T18:54:36.494Z,-0.00016124515,-0.006596261,0.46493372,0.11222839,-0.062698364,9.808899,12.728882,11.468506,-58.146667,0.11306753,-0.06295042,9.805797,-0.0010990053,0.0005049482,0.0022115707,-0.00015258789,0.00015258789,-0.00021362305
2019-07-01T18:54:36.699Z,-0.00016989911,-0.0066501186,0.4650858,0.11366272,-0.06388855,9.807938,13.339233,12.374878,-57.23419,0.11391282,-0.06361137,9.805782,0.0011642948,-0.0009832159,0.0006837845,-9.1552734e-05,-0.0001373291,-0.00021362305
2019-07-01T18:54:36.905Z,-0.00016628117,-0.0066365968,0.46504563,0.11581421,-0.06388855,9.804825,13.015747,12.509155,-58.2489,0.113713935,-0.06342005,9.805785,-0.00030582398,0.000498645,-0.001619339,-3.0517578e-05,3.0517578e-05,-0.0002746582
2019-07-01T18:54:37.130Z,-0.00017681623,-0.006637383,0.46506217,0.11126709,-0.0619812,9.80722,11.21521,11.499023,-56.266785,0.1136303,-0.06361226,9.805785,-0.0009377077,0.00020166487,-0.00027179718,-0.00015258789,-0.00019836426,-9.1552734e-05
2019-07-01T18:54:37.306Z,-0.000108980006,-0.006667603,0.46504757,0.11917114,-0.060775757,9.80484,12.24823,11.2838745,-57.032776,0.11477477,-0.06270819,9.805778,0.0015092567,0.001690045,-0.0009822845,3.0517578e-05,-0.00019836426,-0.00015258789
2019-07-01T18:54:37.510Z,-7.415055e-05,-0.0067438716,0.4651981,0.11462402,-0.06413269,9.806992,12.335205,11.584473,-57.80487,0.11640595,-0.06281891,9.8057575,0.002511032,-0.0003470704,0.0011072159,3.0517578e-05,-0.00019836426,-1.5258789e-05
2019-07-01T18:54:37.708Z,-0.00013365738,-0.0067007905,0.46516782,0.11413574,-0.06436157,9.804596,13.040161,11.122131,-57.70111,0.115117274,-0.063455015,9.805769,-0.0026600063,-0.00115069,-0.0016622543,-3.0517578e-05,-1.5258789e-05,-0.00015258789
2019-07-01T18:54:37.912Z,-0.00011871446,-0.0066978587,0.46513966,0.11341858,-0.06317139,9.805542,13.197327,11.135864,-58.158875,0.115204714,-0.063165165,9.80577,-0.00035185367,0.00046683103,1.2397766e-05,3.0517578e-05,-0.0001373291,0.00010681152
2019-07-01T18:54:38.117Z,-0.0001340084,-0.0066737826,0.46509805,0.11532593,-0.06388855,9.806503,12.799072,11.026001,-56.958008,0.11465018,-0.06320567,9.805777,-0.00075957924,-0.00020931661,0.00016880035,3.0517578e-05,9.1552734e-05,-0.00021362305
2019-07-01T18:54:38.321Z,-0.00015872423,-0.0066561913,0.46508625,0.11341858,-0.06364441,9.805786,12.585449,11.747742,-57.78351,0.114120156,-0.0634728,9.80578,-0.0009454191,-0.00041591376,-0.00021266937,-3.0517578e-05,3.0517578e-05,-1.5258789e-05
2019-07-01T18:54:38.526Z,-0.00016188377,-0.006719188,0.46525452,0.117004395,-0.06364441,9.807709,13.143921,11.483765,-56.80237,0.11517286,-0.0641242,9.805764,0.0018221512,-0.0016817376,0.0016183853,9.1552734e-05,-7.6293945e-05,-0.00033569336
2019-07-01T18:54:38.728Z,-0.00012280162,-0.0067117056,0.46518132,0.11532593,-0.06364441,9.807709,12.75177,11.752319,-56.881714,0.115404844,-0.06336788,9.805766,0.00040208548,0.0016348213,-0.00035476685,-3.0517578e-05,-1.5258789e-05,4.5776367e-05
2019-07-01T18:54:38.931Z,-0.0001731966,-0.006682407,0.46517438,0.11198425,-0.06413269,9.805542,12.190247,11.862183,-57.21283,0.11443692,-0.063974604,9.805774,-0.0019891188,-0.0006258115,0.00040531158,-0.00015258789,-1.5258789e-05,4.5776367e-05
2019-07-01T18:54:39.132Z,-0.0001573167,-0.0066699926,0.46512023,0.11581421,-0.06341553,9.809143,12.32605,11.212158,-56.747437,0.114370175,-0.06357865,9.805778,0.00022575259,0.0013757125,0.00058555603,-0.00015258789,9.1552734e-05,-1.5258789e-05
2019-07-01T18:54:39.330Z,-0.00017389654,-0.006721496,0.46527702,0.11557007,-0.06556702,9.80603,13.356018,10.920715,-57.22809,0.11510167,-0.06435674,9.805763,0.0011701733,-0.0019188449,0.00039100647,9.1552734e-05,-7.6293945e-05,-0.00015258789
2019-07-01T18:54:39.537Z,-0.00016916395,-0.0066843997,0.465174,0.11341858,-0.06173706,9.805786,13.427734,10.85968,-58.226013,0.11450833,-0.063922726,9.805774,-0.0006107092,0.0007564947,-0.0010232925,3.0517578e-05,0.00015258789,-1.5258789e-05
2019-07-01T18:54:39.743Z,-0.00012207821,-0.0066821184,0.46510333,0.11653137,-0.062698364,9.806976,13.198853,11.1328125,-57.781982,0.114903346,-0.06307525,9.805774,0.0013757646,0.0013426468,-0.00020694733,9.1552734e-05,0.00015258789,-1.5258789e-05
2019-07-01T18:54:39.951Z,-0.00012306074,-0.006654849,0.46503374,0.112472534,-0.062210083,9.805542,13.116455,10.978699,-57.50885,0.1144259,-0.06283456,9.805781,-0.0014856756,0.00013912469,-0.00045204163,9.1552734e-05,-0.0001373291,0.00016784668
2019-07-01T18:54:40.145Z,-0.000112219524,-0.0066449717,0.46499312,0.11437988,-0.06436157,9.808182,13.522339,11.157227,-58.09326,0.11435616,-0.06255099,9.805784,0.0016907677,0.00082018226,-0.00073337555,0.00015258789,3.0517578e-05,-1.5258789e-05
2019-07-01T18:54:40.416Z,-0.00012130544,-0.0066709877,0.46507332,0.115097046,-0.062454224,9.805786,13.153076,10.33783,-59.225464,0.11471929,-0.06295641,9.805777,0.001082465,-0.001398325,0.00014972687,0.00015258789,9.1552734e-05,4.5776367e-05
2019-07-01T18:54:40.553Z,-9.789956e-05,-0.006675794,0.46505365,0.115097046,-0.06341553,9.807938,13.011169,10.919189,-60.083008,0.11501762,-0.06259131,9.805776,-0.0004047379,0.00061617047,-0.00022220612,3.0517578e-05,-0.0002593994,4.5776367e-05
2019-07-01T18:54:40.757Z,-0.000109996436,-0.0066862674,0.46509752,0.11413574,-0.065078735,9.805069,13.291931,11.509705,-58.61664,0.115086004,-0.06290258,9.805773,0.00024574995,-0.0014538392,-0.00030231476,0.00021362305,3.0517578e-05,-0.00021362305
2019-07-01T18:54:40.956Z,-0.00012511581,-0.006714044,0.46519056,0.11557007,-0.06388855,9.806992,12.617493,11.262512,-60.90393,0.11542367,-0.06343061,9.805766,-9.082258e-05,-0.0011705309,-0.00019931793,3.0517578e-05,-0.00019836426,4.5776367e-05
2019-07-01T18:54:41.197Z,-0.00013194491,-0.0067213476,0.46521896,0.11534119,-0.062698364,9.807709,13.821411,11.047363,-60.316467,0.1154861,-0.0636195,9.805763,-0.00017055869,-0.0005074665,0.00034618378,3.0517578e-05,-7.6293945e-05,-0.00021362305
2019-07-01T18:54:41.364Z,-0.00013409622,-0.006738549,0.46526667,0.117492676,-0.06604004,9.807938,14.385986,10.932922,-59.458923,0.11576166,-0.06382005,9.805759,0.00027641654,-0.0005303398,0.001666069,3.0517578e-05,-7.6293945e-05,-1.5258789e-05
2019-07-01T18:54:41.566Z,-0.00014322229,-0.006727625,0.4652508,0.11437988,-0.06364441,9.80986,14.079285,11.276245,-59.449768,0.1154899,-0.06387673,9.805763,-0.00041864812,-0.00071471184,0.0009460449,0.00015258789,3.0517578e-05,-0.00015258789
2019-07-01T18:54:41.764Z,-0.00011654578,-0.00673123,0.4652235,0.11628723,-0.06364441,9.806259,12.783813,11.042786,-59.143066,0.11579785,-0.06344292,9.805761,0.0007151887,0.0002815798,-0.0012836456,0.00015258789,3.0517578e-05,-0.0001373291
2019-07-01T18:54:41.969Z,-7.8614175e-05,-0.006702978,0.46509787,0.11366272,-0.06173706,9.80603,12.496948,11.669922,-58.096313,0.11566238,-0.06251019,9.805769,-0.00033906847,0.0010269284,-6.389618e-05,0.00021362305,-1.5258789e-05,-0.00033569336
2019-07-01T18:54:42.175Z,-0.00013014638,-0.00670215,0.46516654,0.11653137,-0.06388855,9.806259,13.1073,10.75592,-57.250977,0.115173005,-0.063406296,9.805769,-0.0010510385,-0.0016801134,-0.0006828308,-3.0517578e-05,-1.5258789e-05,-0.00021362305
2019-07-01T18:54:42.383Z,-9.937768e-05,-0.006703499,0.46512777,0.11390686,-0.062927246,9.808899,13.591003,10.86731,-57.852173,0.11547988,-0.06287934,9.805768,0.00031847507,0.0013950542,0.00034999847,-9.1552734e-05,-7.6293945e-05,-0.00021362305
2019-07-01T18:54:42.577Z,-0.00010935101,-0.0066989716,0.4651297,0.11677551,-0.062927246,9.80603,13.0355835,11.125183,-58.229065,0.11531017,-0.06301145,9.80577,1.28522515e-05,-0.00039414316,0.0003938675,3.0517578e-05,9.1552734e-05,-0.00021362305
2019-07-01T18:54:42.781Z,-0.0001592601,-0.0066908584,0.46517718,0.11366272,-0.062454224,9.809143,13.146973,11.709595,-57.58667,0.114710584,-0.06381012,9.805772,-0.0008413717,-0.0012561604,0.00074005127,-9.1552734e-05,9.1552734e-05,-0.00015258789
2019-07-01T18:54:42.989Z,-0.00012412189,-0.0066451,0.4650098,0.115097046,-0.06484985,9.804825,12.390137,11.157227,-58.573914,0.11424865,-0.06276098,9.805783,0.00011638552,0.0012762174,-0.0012722015,0.00021362305,0.0002746582,-0.00015258789
2019-07-01T18:54:43.185Z,-0.00014758672,-0.006653615,0.46506423,0.11317444,-0.062683105,9.805786,12.246704,11.434937,-57.90863,0.11417859,-0.06325308,9.805781,-4.721433e-05,-0.0008619353,-0.0018043518,-3.0517578e-05,3.0517578e-05,-0.00015258789
2019-07-01T18:54:43.386Z,-8.143898e-05,-0.0067020524,0.46509933,0.117248535,-0.062927246,9.804352,12.161255,11.355591,-58.14514,0.115620434,-0.062550984,9.805769,0.0023431107,0.00057094544,-0.00040912628,0.00021362305,-0.0001373291,-0.0002746582
2019-07-01T18:54:43.591Z,-0.00010545886,-0.0066918354,0.46510577,0.11437988,-0.06341553,9.806747,12.876892,11.112976,-57.92389,0.11522349,-0.062875666,9.805772,-0.0008488372,-0.001010023,0.0005302429,9.1552734e-05,-1.5258789e-05,-9.1552734e-05
2019-07-01T18:54:43.823Z,-0.000111637455,-0.0067034177,0.4651444,0.11628723,-0.062698364,9.805069,12.799072,11.103821,-57.39441,0.11536546,-0.06309363,9.805769,-2.219528e-05,0.00016524643,-0.0012407303,-0.00015258789,-7.6293945e-05,0.00010681152
2019-07-01T18:54:43.995Z,-0.000121285106,-0.0066914205,0.46512645,0.11437988,-0.06341553,9.809616,12.649536,11.309814,-57.19452,0.11507044,-0.06314935,9.805772,1.6711652e-05,-1.6614795e-05,0.0020399094,-3.0517578e-05,0.00015258789,-0.00021362305
2019-07-01T18:54:44.201Z,-0.00013408471,-0.006663224,0.46507066,0.11390686,-0.06341553,9.808426,12.548828,10.945129,-57.94525,0.11446812,-0.06310713,9.8057785,-0.0010672286,0.0009068027,0.0013608932,-0.00021362305,3.0517578e-05,0.00016784668
2019-07-01T18:54:44.396Z,-0.00015401989,-0.006674705,0.46512794,0.114608765,-0.06364441,9.804108,13.037109,10.972595,-57.278442,0.1144815,-0.063565396,9.805776,0.0001316145,-0.0007901192,-0.001168251,-3.0517578e-05,3.0517578e-05,3.0517578e-05
2019-07-01T18:54:44.603Z,-0.00014574986,-0.0066799144,0.46513015,0.11677551,-0.062210083,9.80603,13.70697,11.601257,-57.481384,0.11464723,-0.06346962,9.805775,0.0009145215,0.0005469695,-0.00045490265,-9.1552734e-05,0.00015258789,-1.5258789e-05
2019-07-01T18:54:44.810Z,-0.00015308744,-0.006693345,0.46517518,0.11390686,-0.06413269,9.808182,12.82959,11.837769,-58.000183,0.11481021,-0.063725375,9.805771,0.00027561188,-0.00015694648,0.0004911423,-9.1552734e-05,-1.5258789e-05,0.00010681152
2019-07-01T18:54:45.030Z,-0.00016596314,-0.006712437,0.46524256,0.117248535,-0.06460571,9.809143,13.024902,10.676575,-57.037354,0.115019314,-0.06413186,9.805766,0.00053753704,-0.00046648085,0.0003271103,-9.1552734e-05,3.0517578e-05,-9.1552734e-05
2019-07-01T18:54:45.217Z,-0.00017255069,-0.0067455946,0.46533787,0.115097046,-0.0657959,9.806976,11.9644165,11.682129,-54.52423,0.11552785,-0.064561225,9.805757,0.000737153,-0.000993371,0.0015001297,3.0517578e-05,-7.6293945e-05,-0.00015258789
2019-07-01T18:54:45.419Z,-0.00015945818,-0.0067418157,0.46531004,0.115097046,-0.06341553,9.806274,12.878418,11.260986,-58.270264,0.11558378,-0.06429582,9.805758,0.00021455437,0.00041610748,-0.0010757446,3.0517578e-05,3.0517578e-05,-9.1552734e-05
2019-07-01T18:54:45.623Z,-0.00015421401,-0.0067487666,0.46532091,0.11653137,-0.065078735,9.808182,12.467957,10.939026,-57.9422,0.11575151,-0.06426964,9.805757,0.00028386712,0.00014970452,0.0011959076,-3.0517578e-05,-1.5258789e-05,-0.0002746582
2019-07-01T18:54:45.824Z,-0.00012906377,-0.006701594,0.46516362,0.11581421,-0.0619812,9.808899,12.181091,11.71875,-57.62024,0.11517344,-0.063382044,9.805769,-0.0008144006,0.0014123172,-0.0003232956,9.1552734e-05,9.1552734e-05,-0.0002746582
2019-07-01T18:54:46.026Z,-0.0001476527,-0.006730736,0.46526498,0.11581421,-0.06581116,9.808182,12.484741,11.380005,-58.229065,0.11550244,-0.06398388,9.805761,0.0017206669,-0.00204207,0.0007352829,0.00021362305,0.0002746582,-0.00021362305
2019-07-01T18:54:46.228Z,-0.00012902242,-0.0067318166,0.46524218,0.11653137,-0.06388855,9.80986,12.806702,11.170959,-56.851196,0.11569286,-0.063667335,9.805762,0.0003343001,4.0084124e-05,0.00096702576,0.00015258789,-1.5258789e-05,3.0517578e-05
2019-07-01T18:54:46.435Z,-9.393754e-05,-0.0067162025,0.46515334,0.11462402,-0.062698364,9.804596,13.946533,11.621094,-57.788086,0.11574825,-0.06290413,9.805765,4.0359795e-05,0.0007079616,-0.0009431839,0.00021362305,-1.5258789e-05,-1.5258789e-05
2019-07-01T18:54:46.632Z,-0.00012551616,-0.0067105126,0.46518195,0.11413574,-0.06484985,9.807465,13.407898,12.164307,-57.580566,0.115359314,-0.0634042,9.805766,0.00068064034,-0.00023010373,0.002286911,3.0517578e-05,0.00015258789,-0.00015258789
2019-07-01T18:54:46.839Z,-0.00015107036,-0.0067264796,0.4652586,0.11677551,-0.06317139,9.806503,12.524414,12.026978,-56.66504,0.115397826,-0.06400354,9.805762,0.0006490648,-0.0013129786,-0.0011940002,3.0517578e-05,0.00015258789,-9.1552734e-05
2019-07-01T18:54:47.036Z,-0.00014403925,-0.0067223483,0.46523818,0.11605835,-0.062454224,9.807709,12.857056,12.4938965,-57.71637,0.115391746,-0.06384112,9.805764,-0.00030804425,-4.004687e-05,0.0003232956,9.1552734e-05,-7.6293945e-05,-0.00021362305
2019-07-01T18:54:47.243Z,-0.00012612427,-0.006717808,0.46520177,0.114852905,-0.06581116,9.807465,12.518311,11.805725,-56.256104,0.115479,-0.06348391,9.805764,0.0003112033,0.0012870207,0.0018129349,-0.00015258789,3.0517578e-05,-9.1552734e-05
2019-07-01T18:54:47.447Z,-0.00015553417,-0.006723537,0.46525708,0.11534119,-0.06460571,9.809143,13.285828,11.209106,-57.618713,0.115306124,-0.06405399,9.805763,-0.00023269653,-0.0014998987,-6.389618e-05,9.1552734e-05,3.0517578e-05,-0.00015258789
2019-07-01T18:54:47.646Z,-0.000120603414,-0.006719759,0.46519923,0.117004395,-0.062698364,9.806503,12.6449585,11.314392,-57.79724,0.11556343,-0.063405536,9.805764,-1.4849007e-05,0.0007189587,-0.0003671646,0.00015258789,-0.0001373291,0.00016784668
2019-07-01T18:54:47.849Z,-0.00013377542,-0.006724331,0.46522924,0.114868164,-0.06364441,9.80722,12.477112,11.0824585,-57.383728,0.11552046,-0.06367985,9.805763,2.8580427e-05,-0.00067012757,-8.2969666e-05,3.0517578e-05,3.0517578e-05,-9.1552734e-05
2019-07-01T18:54:48.058Z,-0.00010930382,-0.0067052348,0.46514592,0.11532593,-0.06341553,9.807465,13.183594,10.765076,-57.629395,0.11541818,-0.06306989,9.805768,0.0001359731,0.00086850673,-0.0008611679,9.1552734e-05,9.1552734e-05,-9.1552734e-05
2019-07-01T18:54:48.280Z,-0.00011754718,-0.006723199,0.46520397,0.11677551,-0.062454224,9.805786,13.116455,11.054993,-57.87201,0.11565069,-0.06338448,9.805763,0.0001546219,-0.000743337,-0.0012044907,3.0517578e-05,-7.6293945e-05,-9.1552734e-05
2019-07-01T18:54:48.457Z,-7.792811e-05,-0.006683065,0.46504512,0.11317444,-0.061264038,9.805069,12.471008,12.225342,-54.43573,0.11532663,-0.062309757,9.805774,-0.0007122606,0.0017833598,0.00015258789,9.1552734e-05,-1.5258789e-05,-0.0002746582
2019-07-01T18:54:48.662Z,-0.00012526505,-0.006672888,0.4650837,0.112701416,-0.06460571,9.8033905,13.050842,11.416626,-58.094788,0.11471543,-0.06304384,9.805777,-0.0015390143,-0.0018070936,-0.0019731522,9.1552734e-05,-7.6293945e-05,3.0517578e-05
2019-07-01T18:54:48.866Z,-0.00011923557,-0.00665063,0.4650175,0.11437988,-0.062927246,9.806259,13.528442,11.300659,-57.911682,0.11438868,-0.06272756,9.805782,-0.0011920258,0.000757806,-0.000834465,-3.0517578e-05,-0.0001373291,4.5776367e-05
2019-07-01T18:54:49.066Z,-0.00013469096,-0.0066919276,0.46514618,0.11605835,-0.06460571,9.808182,13.145447,11.634827,-57.3761,0.11495552,-0.06338929,9.805771,0.00085569173,-0.0014589131,0.0016822815,3.0517578e-05,-7.6293945e-05,-0.00015258789
2019-07-01T18:54:49.267Z,-0.00014703895,-0.006740103,0.4652885,0.117248535,-0.06413269,9.808899,13.168335,11.994934,-56.547546,0.115668945,-0.064061776,9.805758,0.0015651286,-0.0010089502,0.001914978,-9.1552734e-05,3.0517578e-05,-9.1552734e-05
2019-07-01T18:54:49.478Z,-0.00019827751,-0.0067433016,0.4653673,0.11317444,-0.065078735,9.806503,12.590027,10.072327,-57.821655,0.11525109,-0.064990744,9.8057575,-0.0011316091,-0.00081124157,0.0003232956,-0.0002746582,-7.6293945e-05,-0.00021362305
2019-07-01T18:54:49.718Z,-0.0001668164,-0.006716182,0.46525347,0.11605835,-0.06364441,9.806503,12.754822,11.978149,-57.817078,0.115075745,-0.06418227,9.805765,0.00047686696,0.0012647584,0.0002117157,9.1552734e-05,0.00021362305,4.5776367e-05
2019-07-01T18:54:49.877Z,-0.00013813404,-0.006721385,0.46522757,0.115097046,-0.06436157,9.805069,11.152649,11.782837,-55.903625,0.115429655,-0.063728414,9.805763,0.00062253326,0.0005604327,-0.0019350052,9.1552734e-05,-1.5258789e-05,-0.00015258789
2019-07-01T18:54:50.081Z,-0.000111637266,-0.006729068,0.46521112,0.11605835,-0.06124878,9.80722,12.5442505,10.873413,-58.03528,0.11580598,-0.06333636,9.805761,0.00046945363,0.00065969676,0.00094890594,3.0517578e-05,-7.6293945e-05,-1.5258789e-05
2019-07-01T18:54:50.279Z,-0.0001236458,-0.006654117,0.46503264,0.11294556,-0.06388855,9.806976,12.324524,11.364746,-57.84912,0.11440793,-0.0628379,9.805781,-0.002438806,0.0006361231,0.0006303787,9.1552734e-05,9.1552734e-05,-9.1552734e-05
2019-07-01T18:54:50.481Z,-0.00011699664,-0.006715671,0.46518365,0.11772156,-0.062927246,9.807465,13.288879,11.358643,-58.192444,0.11552648,-0.06330358,9.805765,0.0017069504,-0.0010497123,-5.6266785e-05,3.0517578e-05,-0.0001373291,-1.5258789e-05
2019-07-01T18:54:50.686Z,-0.0001057176,-0.0067437477,0.46524116,0.11604309,-0.065078735,9.806503,12.620544,10.801697,-57.826233,0.116112694,-0.06337147,9.8057575,0.0011160746,-0.00050629675,0.00075531006,9.1552734e-05,-1.5258789e-05,-0.0002746582
2019-07-01T18:54:50.891Z,-0.000104607556,-0.006743333,0.46523857,0.11557007,-0.062927246,9.805786,12.953186,11.044312,-58.016968,0.1161158,-0.06334807,9.8057575,-0.0010253787,-0.00053685904,-0.0022096634,0.00015258789,-0.0002593994,-0.00021362305
2019-07-01T18:54:51.097Z,-0.00014207074,-0.006730851,0.4652576,0.11341858,-0.06556702,9.806992,12.0651245,10.986328,-57.992554,0.115555905,-0.06388706,9.805761,-0.0011814311,-0.0009597987,-0.00019073486,-3.0517578e-05,-1.5258789e-05,-1.5258789e-05
2019-07-01T18:54:51.332Z,-0.0001736208,-0.006735178,0.46531224,0.115097046,-0.065322876,9.806992,13.172913,10.624695,-58.335876,0.115339145,-0.0644814,9.80576,-0.001208052,-0.0015560463,-0.00012493134,9.1552734e-05,-0.00019836426,-0.00033569336
2019-07-01T18:54:51.497Z,-0.00016513541,-0.006690865,0.46518528,0.11366272,-0.062698364,9.806274,12.313843,11.222839,-58.255005,0.114656515,-0.06391323,9.805772,-0.0012465641,0.0017079562,0.00071048737,-0.00015258789,3.0517578e-05,-0.0002746582
2019-07-01T18:54:51.703Z,-0.0001781991,-0.0066946982,0.4652132,0.11534119,-0.06413269,9.806992,12.597656,11.888123,-56.84967,0.114601836,-0.06417862,9.80577,0.000240542,-0.00019231439,0.00032043457,-9.1552734e-05,9.1552734e-05,-0.0002746582
2019-07-01T18:54:51.909Z,-0.00016670258,-0.006709477,0.46523586,0.114608765,-0.06436157,9.806503,14.105225,11.860657,-59.33075,0.11496166,-0.06411682,9.805767,0.00083979964,0.00023537874,0.00036621094,-3.0517578e-05,3.0517578e-05,-7.6293945e-05
2019-07-01T18:54:52.111Z,-0.00016495952,-0.0067164274,0.46525156,0.115097046,-0.06341553,9.807465,13.951111,11.767578,-58.06122,0.11509708,-0.06415202,9.805764,-0.00026027858,2.8304756e-05,0.0005722046,-3.0517578e-05,-0.0001373291,-0.00033569336
2019-07-01T18:54:52.312Z,-0.0001207792,-0.006699954,0.46514794,0.11581421,-0.06173706,9.805542,12.811279,11.547852,-58.28705,0.115221664,-0.06322121,9.805769,0.0005817339,0.001261197,-0.0009031296,0.00015258789,9.1552734e-05,-0.00039672852
2019-07-01T18:54:52.515Z,-0.00013081403,-0.006691764,0.46514043,0.114852905,-0.062698364,9.805313,13.288879,11.358643,-58.192444,0.114988476,-0.06331974,9.805772,-0.00013815612,0.00014977902,-0.0013961792,-9.1552734e-05,9.1552734e-05,-0.00033569336
2019-07-01T18:54:52.719Z,-0.00013591912,-0.006680235,0.46511745,0.11557007,-0.062927246,9.80722,12.709045,10.955811,-57.946777,0.11474338,-0.063300215,9.805775,0.00010216981,0.00037702173,0.0008172989,-9.1552734e-05,0.00015258789,-0.00021362305
2019-07-01T18:54:52.925Z,-0.000108571556,-0.0066888314,0.46510223,0.11557007,-0.062698364,9.804352,13.86261,11.541748,-57.878113,0.115143195,-0.06290185,9.805773,0.0011418313,0.00044883043,-0.0008916855,9.1552734e-05,9.1552734e-05,-1.5258789e-05
2019-07-01T18:54:53.121Z,-0.00011308769,-0.0066381195,0.4649765,0.114852905,-0.062210083,9.805542,12.402344,11.222839,-57.354736,0.11423044,-0.06250142,9.805785,-9.5658004e-05,0.0002918616,-0.0005540848,3.0517578e-05,9.1552734e-05,-0.00015258789
2019-07-01T18:54:53.326Z,-0.00011387232,-0.0066469265,0.46500048,0.11366272,-0.061965942,9.80722,13.301086,11.726379,-58.421326,0.1143745,-0.06259847,9.805783,-1.8104911e-06,-0.00056898594,0.0010652542,9.1552734e-05,-7.6293945e-05,-0.00033569336
2019-07-01T18:54:53.524Z,-0.00010119601,-0.0066101965,0.46488747,0.115097046,-0.062698364,9.806259,13.018799,10.609436,-57.50122,0.11386031,-0.062028844,9.805793,-0.00044827163,0.0005394891,-9.727478e-05,0.00015258789,0.00015258789,-0.0002746582
2019-07-01T18:54:53.730Z,-0.00013472854,-0.006659642,0.46506223,0.11390686,-0.06388855,9.805313,12.684631,12.037659,-56.593323,0.11440066,-0.06308455,9.80578,0.0014146268,-0.0015217587,-0.0013360977,-0.00015258789,9.1552734e-05,-0.00015258789
2019-07-01T18:54:53.934Z,-0.00012268282,-0.006662784,0.46505386,0.115097046,-0.06173706,9.808182,14.201355,11.851501,-57.450867,0.114565685,-0.06290298,9.805779,4.876405e-05,0.00045401603,0.0018262863,-3.0517578e-05,-7.6293945e-05,-0.00033569336
2019-07-01T18:54:54.132Z,-0.00010562013,-0.006657268,0.46501607,0.11534119,-0.06149292,9.804596,13.157654,12.004089,-57.829285,0.11462822,-0.06255151,9.80578,0.00046426803,0.0012899637,-0.0008573532,-0.00015258789,9.1552734e-05,-0.00015258789
2019-07-01T18:54:54.348Z,-9.965317e-05,-0.0066609345,0.4650174,0.115097046,-0.06364441,9.804596,12.434387,11.955261,-57.432556,0.114746206,-0.062481523,9.805779,0.000578478,-0.00021615997,-0.00057315826,9.1552734e-05,9.1552734e-05,-0.00015258789
2019-07-01T18:54:54.548Z,-0.00010192738,-0.0066518523,0.46499687,0.11462402,-0.06173706,9.804825,13.612366,11.380005,-57.974243,0.114569224,-0.062435523,9.805782,-0.0006585419,-2.0783395e-05,-0.00085926056,3.0517578e-05,-7.6293945e-05,-1.5258789e-05
2019-07-01T18:54:54.747Z,-7.994645e-05,-0.0066291536,0.46490762,0.11222839,-0.06124878,9.807709,13.261414,11.079407,-59.83429,0.11438182,-0.061835308,9.805788,-7.733703e-06,0.0010626838,0.0016527176,3.0517578e-05,9.1552734e-05,-0.00021362305
2019-07-01T18:54:54.978Z,-8.111113e-05,-0.0066277445,0.46490556,0.11628723,-0.06149292,9.805786,12.475586,11.083984,-57.685852,0.11434688,-0.061842415,9.805788,0.0007462725,-0.0001366809,-0.00033569336,3.0517578e-05,0.00021362305,-0.00015258789
2019-07-01T18:54:55.223Z,-0.000118171985,-0.0066601397,0.46504077,0.11628723,-0.06484985,9.806747,13.116455,11.053467,-57.795715,0.11456184,-0.06279884,9.805779,0.00077567995,-0.002277881,-6.2942505e-05,9.1552734e-05,9.1552734e-05,-0.0002746582
2019-07-01T18:54:55.382Z,-9.4009985e-05,-0.0066461717,0.4649712,0.11462402,-0.062210083,9.805313,13.311768,10.5026245,-60.406494,0.1145446,-0.062242918,9.805783,0.00054814667,0.0009812154,0.0001077652,3.0517578e-05,0.00015258789,-0.0002746582
2019-07-01T18:54:55.554Z,-8.820941e-05,-0.0066425526,0.46495384,0.11437988,-0.06149292,9.806992,14.97345,11.480713,-59.44519,0.11453588,-0.062106945,9.805784,0.0005592331,0.0006150678,-0.00040721893,-9.1552734e-05,0.00015258789,-0.0002746582
2019-07-01T18:54:55.755Z,-0.00010212624,-0.0066588945,0.46501547,0.11557007,-0.0619812,9.8033905,13.668823,11.105347,-59.620667,0.11468837,-0.06250561,9.80578,0.00041292608,-0.00066809356,-0.0010652542,-3.0517578e-05,3.0517578e-05,0.00010681152
2019-07-01T18:54:55.959Z,-0.00011869239,-0.0066308533,0.46496528,0.11222839,-0.06484985,9.804352,12.812805,11.621094,-58.496094,0.11405396,-0.06253103,9.805787,-0.0013431609,-0.00017248094,-0.000872612,3.0517578e-05,-1.5258789e-05,-0.00021362305
2019-07-01T18:54:56.163Z,-0.00011345817,-0.006616506,0.46492076,0.11366272,-0.06124878,9.808426,11.930847,11.634827,-58.232117,0.11385571,-0.062303577,9.805791,-0.00091035664,-0.00015053526,0.0016565323,0.00015258789,-0.0001373291,-0.00015258789
2019-07-01T18:54:56.365Z,-0.00010578925,-0.0066058496,0.46488246,0.112457275,-0.061264038,9.806992,12.051392,12.286377,-56.895447,0.113743305,-0.06206833,9.805794,-9.1828406e-05,9.327009e-05,0.001906395,9.1552734e-05,3.0517578e-05,-0.0002746582
2019-07-01T18:54:56.566Z,-0.00010892582,-0.006617748,0.46491775,0.11557007,-0.06341553,9.80603,12.918091,12.063599,-57.88269,0.113918826,-0.06223582,9.805791,0.0004553795,-0.0002152957,-0.00096702576,-3.0517578e-05,3.0517578e-05,-9.1552734e-05
2019-07-01T18:54:56.768Z,-0.000108701286,-0.006596583,0.46486235,0.1131897,-0.06317139,9.805313,12.373352,12.385559,-57.266235,0.113557264,-0.062031824,9.805797,-0.0001424104,-0.00042036176,-0.00033283234,0.00021362305,0.00015258789,-0.00015258789
2019-07-01T18:54:56.973Z,-0.00011116456,-0.0066196797,0.46492586,0.11437988,-0.060302734,9.805542,12.310791,11.074829,-57.90863,0.11393137,-0.062293347,9.80579,0.00044877082,-0.00016102195,-0.0006980896,-9.1552734e-05,-7.6293945e-05,0.00010681152
2019-07-01T18:54:57.175Z,-0.00010736223,-0.0066197943,0.46492094,0.11390686,-0.06413269,9.802673,12.602234,12.036133,-57.044983,0.113968395,-0.06222774,9.805791,0.0006470606,0.0004870221,-0.0011072159,-9.1552734e-05,0.00015258789,-9.1552734e-05
2019-07-01T18:54:57.378Z,-0.00014063982,-0.006629138,0.46499097,0.11366272,-0.062210083,9.8033905,13.114929,11.056519,-58.172607,0.1138222,-0.06289978,9.805788,-0.00061599165,-0.0009978861,-0.0016927719,-9.1552734e-05,-7.6293945e-05,-0.00039672852
2019-07-01T18:54:57.584Z,-0.00011585577,-0.0065876213,0.46484885,0.11294556,-0.06149292,9.805313,12.739563,11.535645,-57.226562,0.11333737,-0.062072624,9.805799,-0.0006202981,0.0017613173,0.00015163422,-3.0517578e-05,9.1552734e-05,-0.00021362305
2019-07-01T18:54:57.783Z,-0.00011457879,-0.0066079665,0.46490005,0.112457275,-0.062454224,9.805542,12.882996,11.257935,-57.818604,0.11369868,-0.062242515,9.805794,-0.00026778132,-0.00069148093,0.000582695,9.1552734e-05,-0.0002593994,0.00010681152
2019-07-01T18:54:57.990Z,-7.967969e-05,-0.0066083423,0.46485308,0.11557007,-0.060058594,9.80603,13.09967,12.510681,-57.722473,0.1140267,-0.061633892,9.805794,0.00060376525,0.0010835379,0.0010194778,3.0517578e-05,-1.5258789e-05,-0.00021362305
2019-07-01T18:54:58.195Z,-6.762929e-05,-0.0066466695,0.46493626,0.117004395,-0.062454224,9.80603,12.811279,11.471558,-57.92389,0.114796266,-0.06178486,9.805783,0.0014904812,-0.0006691031,0.0011672974,9.1552734e-05,-1.5258789e-05,-0.00015258789
2019-07-01T18:54:58.398Z,-3.695822e-05,-0.0066975947,0.46502662,0.11581421,-0.061019897,9.805786,12.649536,11.31134,-57.269287,0.11595388,-0.061728507,9.805771,0.0015421435,0.00023380294,-0.00066280365,-3.0517578e-05,-0.00019836426,-1.5258789e-05
2019-07-01T18:54:58.595Z,-3.13001e-05,-0.006720226,0.4650777,0.117492676,-0.062927246,9.805069,12.52594,10.429382,-57.67212,0.11639483,-0.06184339,9.805764,0.00013106316,-0.00036378205,0.0014829636,3.0517578e-05,-0.00019836426,-0.00015258789
2019-07-01T18:54:58.806Z,-3.629664e-05,-0.0066776695,0.46497387,0.11413574,-0.060531616,9.803879,12.640381,11.239624,-57.737732,0.11561763,-0.0615284,9.805776,-0.001230061,0.0009926893,-0.0022058487,-9.1552734e-05,9.1552734e-05,-9.1552734e-05
2019-07-01T18:54:59.007Z,-5.6744942e-05,-0.0067356764,0.46515286,0.11843872,-0.065078735,9.806992,12.176514,11.645508,-57.635498,0.116425686,-0.062436003,9.80576,0.0010786057,-0.0014587753,-0.00067424774,-9.1552734e-05,-0.0001373291,-1.5258789e-05
2019-07-01T18:54:59.204Z,-0.0001119527,-0.006722312,0.465194,0.11341858,-0.06413269,9.803635,14.071655,10.751343,-57.592773,0.11568705,-0.06327795,9.805763,-0.002012007,-0.0018075332,-0.00012207031,3.0517578e-05,-0.0001373291,-0.00015258789
2019-07-01T18:54:59.409Z,-0.00010580337,-0.0066996496,0.46512657,0.11366272,-0.060531616,9.804108,12.808228,11.476135,-58.52661,0.11535453,-0.06295564,9.80577,-0.00072134286,0.001457721,0.00055122375,-0.00021362305,-1.5258789e-05,-0.00015258789
2019-07-01T18:54:59.611Z,-5.047234e-05,-0.0067065707,0.46506855,0.11413574,-0.062210083,9.802673,12.4557495,10.720825,-58.21228,0.11598352,-0.062050514,9.805768,-0.00040533394,-0.0001639165,0.0004606247,3.0517578e-05,-0.0002593994,-0.00015258789
2019-07-01T18:54:59.814Z,-9.627526e-05,-0.0067248056,0.4651789,0.11534119,-0.06460571,9.803879,12.8479,12.121582,-56.88629,0.11587446,-0.063026555,9.805763,-0.00051852316,-0.0013430417,-0.001124382,-0.00015258789,-7.6293945e-05,0.000289917
2019-07-01T18:55:00.016Z,-8.748756e-05,-0.0066827177,0.46505734,0.11366272,-0.062210083,9.807465,12.413025,11.669922,-58.547974,0.11523254,-0.06247416,9.805774,-0.0013339445,0.00026028603,0.0013246536,0.00021362305,-1.5258789e-05,-0.0002746582
2019-07-01T18:55:00.224Z,-0.000115959694,-0.0066421228,0.46499085,0.112457275,-0.06341553,9.804596,12.82196,9.942627,-58.007812,0.114272736,-0.06258965,9.805784,-0.0018070564,-0.0005863458,-0.0002374649,9.1552734e-05,3.0517578e-05,-9.1552734e-05
2019-07-01T18:55:00.426Z,-0.00010751075,-0.0066313683,0.46495125,0.11462402,-0.0619812,9.80722,13.049316,11.341858,-57.807922,0.11416586,-0.062339764,9.805787,-0.0002580434,0.00037330016,0.0012865067,3.0517578e-05,-1.5258789e-05,-1.5258789e-05
2019-07-01T18:55:00.623Z,-0.0001261718,-0.0066296277,0.46497238,0.1131897,-0.062698364,9.806503,13.192749,10.986328,-57.810974,0.11396398,-0.06265064,9.805788,-0.0002978295,-0.0002784878,-0.00042438507,-9.1552734e-05,3.0517578e-05,-0.0002746582
2019-07-01T18:55:00.840Z,-0.00011922929,-0.0066228095,0.46494508,0.11437988,-0.062454224,9.8033905,12.786865,10.887146,-57.81555,0.11391083,-0.062464405,9.80579,0.00023274869,0.00025001913,-0.00076293945,3.0517578e-05,9.1552734e-05,-0.00021362305
2019-07-01T18:55:01.032Z,-0.00012939508,-0.00660713,0.46491826,0.112457275,-0.062210083,9.806747,12.039185,10.47821,-58.473206,0.11354778,-0.062494498,9.805794,-0.00012860447,3.9950013e-05,0.0012493134,-3.0517578e-05,0.00015258789,-0.00021362305
2019-07-01T18:55:01.235Z,-0.00018649352,-0.0065957434,0.4649671,0.11366272,-0.065078735,9.808426,12.736511,11.689758,-58.329773,0.112825915,-0.06338836,9.805797,-0.00084766746,-0.0016870052,0.0011463165,-3.0517578e-05,0.00015258789,-0.00021362305
2019-07-01T18:55:01.438Z,-0.00013204257,-0.0066254856,0.46496966,0.11557007,-0.060775757,9.805542,13.301086,11.727905,-58.572388,0.11383871,-0.06271446,9.805789,0.001495637,0.0012253076,0.00012493134,3.0517578e-05,-0.0001373291,-9.1552734e-05
2019-07-01T18:55:01.638Z,-0.00010649987,-0.0066507487,0.4650003,0.1138916,-0.062210083,9.806747,12.823486,11.688232,-57.577515,0.114508115,-0.06250529,9.805782,0.00082191825,0.00077432394,0.0007266998,-9.1552734e-05,-0.0001373291,0.00016784668
2019-07-01T18:55:01.841Z,-0.00012710145,-0.0066735973,0.46508807,0.11628723,-0.06436157,9.806274,13.63678,11.8927,-57.870483,0.11471068,-0.06308276,9.805777,-0.00011596829,-0.0012710765,0.0004863739,3.0517578e-05,-0.0001373291,0.00010681152
2019-07-01T18:55:02.045Z,-0.000108971355,-0.006655462,0.46501595,0.11294556,-0.062698364,9.806747,11.990356,11.051941,-57.748413,0.11456631,-0.06259322,9.805781,4.9240887e-05,0.0008607879,-0.00094890594,3.0517578e-05,9.1552734e-05,-0.00015258789
2019-07-01T18:55:02.250Z,-0.00012248586,-0.00665524,0.46503395,0.11390686,-0.062927246,9.807465,13.2751465,11.065674,-58.026123,0.114437915,-0.062828176,9.805781,-0.0007836148,-0.0005827248,-0.0,3.0517578e-05,-0.0001373291,0.00010681152
2019-07-01T18:55:02.452Z,-0.00012874263,-0.0066766865,0.46509835,0.11462402,-0.06436157,9.806503,13.607788,11.231995,-57.626343,0.11474861,-0.06314077,9.805776,9.485334e-05,-0.00074258447,0.00016498566,3.0517578e-05,-0.0001373291,3.0517578e-05
2019-07-01T18:55:02.797Z,-0.00013502438,-0.0066608116,0.4650657,0.11437988,-0.061965942,9.806503,13.453674,11.369324,-57.821655,0.11441802,-0.0631008,9.805779,-0.00054015964,0.0006541535,0.00075149536,-0.00015258789,3.0517578e-05,-0.00021362305
2019-07-01T18:55:02.868Z,-0.0001466615,-0.0066460036,0.46504316,0.11390686,-0.06317139,9.805542,13.420105,10.639954,-57.966614,0.114056386,-0.063164875,9.805783,-0.00039628148,-5.066395e-06,-0.0019006729,-3.0517578e-05,9.1552734e-05,-0.00015258789
2019-07-01T18:55:03.065Z,-0.00012700805,-0.0066445395,0.46501234,0.11532593,-0.06124878,9.8029175,13.28125,11.364746,-59.022522,0.11421242,-0.06280631,9.805784,0.0006461367,0.0013102815,-0.001420021,-0.00015258789,9.1552734e-05,-9.1552734e-05
2019-07-01T18:55:03.276Z,-0.00012294068,-0.0066604526,0.46504813,0.11390686,-0.06484985,9.806747,13.490295,10.652161,-59.10034,0.114523254,-0.06288545,9.805779,0.00033148378,-0.0002869442,0.00065135956,3.0517578e-05,-7.6293945e-05,-0.00015258789
2019-07-01T18:55:03.463Z,-0.00010986436,-0.0066481563,0.4649982,0.114852905,-0.060058594,9.805786,12.686157,10.748291,-59.57489,0.11443257,-0.06253979,9.805783,-5.4247677e-05,0.00057470053,0.0005865097,3.0517578e-05,3.0517578e-05,0.00010681152
2019-07-01T18:55:03.669Z,-9.141493e-05,-0.006657817,0.46499795,0.11462402,-0.06173706,9.806503,12.272644,10.426331,-59.246826,0.11476858,-0.062307525,9.80578,0.00079575926,0.0005735718,0.00070667267,-3.0517578e-05,3.0517578e-05,-9.1552734e-05
2019-07-01T18:55:03.871Z,-9.13269e-05,-0.006642433,0.4649578,0.11437988,-0.06149292,9.804352,13.317871,12.016296,-58.059692,0.114505105,-0.062160503,9.805785,-0.00083871186,0.0008944683,-0.0015916824,-0.00015258789,-7.6293945e-05,4.5776367e-05
2019-07-01T18:55:04.076Z,-0.00010043973,-0.006615226,0.46489954,0.11366272,-0.062210083,9.804352,12.693787,10.588074,-57.644653,0.1139537,-0.062063128,9.805792,-0.0005271062,-0.00039546564,-0.000749588,0.00015258789,0.00015258789,-0.00015258789
2019-07-01T18:55:04.284Z,-9.705282e-05,-0.0066217994,0.46491197,0.11437988,-0.062698364,9.810577,12.6297,11.175537,-58.88214,0.11409784,-0.062065855,9.80579,2.7447939e-05,-0.00085570663,0.0031719208,0.00021362305,-7.6293945e-05,-0.00015258789
2019-07-01T18:55:04.476Z,-6.6561675e-05,-0.006611834,0.46484414,0.112701416,-0.059829712,9.805542,12.413025,11.592102,-58.10852,0.11420754,-0.061436776,9.805793,-0.00055170804,0.0013818853,-0.0005979538,-3.0517578e-05,-0.00019836426,4.5776367e-05
2019-07-01T18:55:04.680Z,-8.213008e-05,-0.0066061122,0.46485063,0.11366272,-0.062698364,9.80603,12.31842,11.299133,-58.392334,0.1139658,-0.061655793,9.805794,-0.00079310685,-0.0003244616,-0.000875473,-3.0517578e-05,-7.6293945e-05,-0.00021362305
2019-07-01T18:55:04.885Z,-0.00010483438,-0.0066545554,0.4650079,0.11581421,-0.06484985,9.805786,12.812805,11.395264,-57.411194,0.114588864,-0.06251208,9.805781,0.0002572164,-0.001128614,0.00085544586,-0.00015258789,-0.0002593994,3.0517578e-05
2019-07-01T18:55:05.086Z,-0.00011028951,-0.006663857,0.4650396,0.11341858,-0.06149292,9.806747,12.698364,10.810852,-58.27942,0.11469836,-0.062695734,9.8057785,0.00015274435,-0.00047466904,-0.00086402893,3.0517578e-05,-1.5258789e-05,0.00010681152
2019-07-01T18:55:05.287Z,-9.927536e-05,-0.006628681,0.46493295,0.11294556,-0.06124878,9.808426,13.400269,11.94458,-57.398987,0.114195585,-0.0621699,9.805788,-0.0017505214,0.0011566505,0.0018177032,-3.0517578e-05,-0.00019836426,-3.0517578e-05
2019-07-01T18:55:05.485Z,-8.30897e-05,-0.006588668,0.46480656,0.112457275,-0.060531616,9.80603,12.339783,11.654663,-57.414246,0.113657214,-0.061507754,9.805799,-0.00096378475,0.0014534779,-0.0007009506,-3.0517578e-05,3.0517578e-05,0.00015258789
2019-07-01T18:55:05.712Z,-0.00010510993,-0.0066013765,0.4648699,0.11341858,-0.06341553,9.80722,12.489319,11.528015,-58.42743,0.11367272,-0.062014136,9.805796,-0.0004956648,-0.00067732483,0.0008068085,-9.1552734e-05,-0.0001373291,-0.0002746582
2019-07-01T18:55:05.922Z,-0.00012702496,-0.0066218083,0.46495318,0.114852905,-0.06341553,9.806274,12.866211,12.486267,-56.5094,0.11382178,-0.06259168,9.80579,-0.00088310987,-0.00010289997,-0.0020313263,-9.1552734e-05,3.0517578e-05,-1.5258789e-05
2019-07-01T18:55:06.104Z,-0.00013635015,-0.0066708922,0.46509373,0.11413574,-0.06436157,9.805542,11.982727,10.678101,-56.69098,0.11457894,-0.0632194,9.805777,0.00075377524,-0.0011375025,0.00024604797,-3.0517578e-05,-0.00019836426,4.5776367e-05
2019-07-01T18:55:06.305Z,-0.00013557298,-0.0067001022,0.46516868,0.11581421,-0.062927246,9.804352,13.192749,10.835266,-56.858826,0.11508779,-0.063482106,9.80577,6.3329935e-06,6.818771e-05,-0.0009498596,-0.00015258789,-0.0002593994,-1.5258789e-05
2019-07-01T18:55:06.507Z,-0.000122432,-0.006675892,0.46508762,0.112701416,-0.062210083,9.80484,13.204956,11.277771,-57.75299,0.114793144,-0.06302256,9.805776,-0.0008960292,0.001053594,-0.0014257431,-3.0517578e-05,-7.6293945e-05,0.00016784668
2019-07-01T18:55:06.708Z,-0.00012987579,-0.006664037,0.465067,0.112701416,-0.06317139,9.804108,12.3046875,10.777283,-57.061768,0.114520885,-0.063040994,9.8057785,-0.0008461252,-0.00013701618,-0.0011129379,3.0517578e-05,-7.6293945e-05,0.00022888184
2019-07-01T18:55:06.915Z,-0.00013484406,-0.0066470313,0.46502957,0.114852905,-0.0619812,9.803879,12.982178,11.700439,-57.884216,0.11418299,-0.062967315,9.805783,-0.0009787306,0.00026092678,-0.00042533875,-3.0517578e-05,-7.6293945e-05,-0.00015258789
2019-07-01T18:55:07.117Z,-0.00011791262,-0.00664725,0.4650069,0.11437988,-0.062698364,9.806274,12.356567,12.0224,-57.414246,0.11434282,-0.0626724,9.805783,4.120171e-05,0.00021590292,0.001791954,9.1552734e-05,-7.6293945e-05,-0.00021362305
2019-07-01T18:55:07.322Z,-0.0001420318,-0.006657577,0.4650669,0.114852905,-0.06317139,9.805786,13.85498,11.31897,-57.39441,0.11429786,-0.06319312,9.80578,-0.00015565008,-0.00045485795,-0.0004014969,-0.00015258789,-1.5258789e-05,-9.1552734e-05
2019-07-01T18:55:07.520Z,-9.3687406e-05,-0.0066665127,0.4650237,0.115097046,-0.06124878,9.805542,13.499451,12.390137,-57.539368,0.11489702,-0.062429633,9.8057785,0.00067640096,0.0014079139,0.0005378723,3.0517578e-05,-0.0001373291,4.5776367e-05
2019-07-01T18:55:07.727Z,-8.4365114e-05,-0.006689167,0.46506983,0.114852905,-0.062927246,9.806259,12.228394,11.148071,-58.64563,0.11537212,-0.062480405,9.805773,0.0001982674,2.6006252e-05,0.00051403046,-3.0517578e-05,-0.00019836426,0.000289917
2019-07-01T18:55:07.927Z,-0.00013417796,-0.0067176023,0.4652123,0.11628723,-0.06460571,9.804596,12.748718,11.833191,-57.695007,0.1154012,-0.063623235,9.805765,0.00017177314,-0.0014571026,-0.0004491806,-0.00021362305,3.0517578e-05,4.5776367e-05
2019-07-01T18:55:08.127Z,-0.00014986249,-0.0066929576,0.46516973,0.11174011,-0.062698364,9.8076935,12.487793,11.375427,-57.8537,0.1148333,-0.063665144,9.805771,-0.0016587526,0.00073783845,0.000497818,-0.00021362305,-0.0001373291,3.0517578e-05
