timestamp,rotationVector_x,rotationVector_y,rotationVector_z,accelerometer_x,accelerometer_y,accelerometer_z,magneticField_x,magneticField_y,magneticField_z,gravity_x,gravity_y,gravity_z,linearAcceleration_x,linearAcceleration_y,linearAcceleration_z,gyroscope_x,gyroscope_y,gyroscope_z
2019-07-01T20:20:07.507Z,0.010878269,-0.012223511,0.99385595,0.23808289,-0.21463013,9.800522,3.6056519,-15.41748,-37.21924,0.2382914,-0.21491508,9.801399,0.00028331578,0.0007547885,0.000702858,-9.1552734e-05,9.1552734e-05,3.0517578e-05
2019-07-01T20:20:07.713Z,0.010874914,-0.012208345,0.99385655,0.23832703,-0.2141571,9.804108,2.2460938,-15.214539,-37.347412,0.2381927,-0.2146276,9.801408,-9.827316e-05,0.0007042289,-0.00063991547,-3.0517578e-05,9.1552734e-05,-3.0517578e-05
2019-07-01T20:20:07.912Z,0.010874121,-0.012204999,0.9938567,0.23832703,-0.2141571,9.800278,3.427124,-15.716553,-38.02643,0.23816988,-0.2145643,9.80141,0.0001372397,0.00042510033,0.0025968552,-3.0517578e-05,-9.1552734e-05,0.00015258789
2019-07-01T20:20:08.124Z,0.01087597,-0.012201522,0.9938562,0.237854,-0.2141571,9.7986145,3.2958984,-16.816711,-38.24463,0.23819955,-0.21449132,9.801411,0.00013504922,0.00032742321,-0.0022563934,3.0517578e-05,-9.1552734e-05,0.00021362305
2019-07-01T20:20:08.327Z,0.0108849285,-0.012191665,0.9938537,0.2359314,-0.21296692,9.800522,2.7023315,-15.612793,-38.505554,0.23835795,-0.21427445,9.801411,-2.05338e-05,0.000581041,-0.00021839142,-0.00015258789,3.0517578e-05,0.00021362305
2019-07-01T20:20:08.529Z,0.010840112,-0.0121823,0.99386525,0.24119568,-0.21607971,9.799561,2.8839111,-15.242004,-37.983704,0.23744297,-0.21421206,9.801435,-0.0017199665,0.0005095005,-0.00078487396,-3.0517578e-05,3.0517578e-05,9.1552734e-05
2019-07-01T20:20:08.734Z,0.010903707,-0.012233821,0.99384946,0.23832703,-0.21487427,9.803879,3.0914307,-15.800476,-39.163208,0.23882122,-0.21504807,9.801383,0.0024001896,-0.0017719567,-0.00052165985,0.00015258789,-3.0517578e-05,9.1552734e-05
2019-07-01T20:20:08.931Z,0.010887278,-0.012209757,0.9938534,0.23713684,-0.21368408,9.801483,3.591919,-15.553284,-38.4552,0.23844269,-0.21462186,9.801401,-0.0003566593,0.000461936,0.00187397,-9.1552734e-05,3.0517578e-05,-9.1552734e-05
2019-07-01T20:20:09.132Z,0.010877475,-0.012190043,0.9938556,0.2368927,-0.21440125,9.801239,3.1967163,-15.438843,-38.111877,0.23820566,-0.21426284,9.801415,-0.00083602965,0.0010635406,-1.6212463e-05,-3.0517578e-05,-9.1552734e-05,3.0517578e-05
2019-07-01T20:20:09.335Z,0.010850557,-0.012215003,0.99386305,0.23904419,-0.21607971,9.801239,2.8762817,-15.386963,-38.08899,0.2377199,-0.21482337,9.8014145,-0.00083096325,-0.0010087937,0.0006303787,-9.1552734e-05,9.1552734e-05,-3.0517578e-05
2019-07-01T20:20:09.540Z,0.010870994,-0.012217167,0.99385774,0.23664856,-0.21487427,9.800766,3.0838013,-14.428711,-37.600708,0.23813277,-0.21481062,9.801405,0.0006776452,0.00040000677,-0.0011730194,9.1552734e-05,-0.0001373291,-9.1552734e-05
2019-07-01T20:20:09.806Z,0.010862217,-0.012239443,0.9938604,0.23928833,-0.21487427,9.8022,3.1448364,-16.30249,-39.945984,0.23800391,-0.21526983,9.801398,-0.00062812865,-0.0012919903,1.1444092e-05,-9.1552734e-05,3.0517578e-05,-0.00015258789
2019-07-01T20:20:10.012Z,0.010879085,-0.012219791,0.99385566,0.2368927,-0.2141571,9.800766,3.956604,-16.1026,-40.24048,0.23829994,-0.21484014,9.8014,0.0007368177,0.001406908,0.001455307,-0.00015258789,-3.0517578e-05,-3.0517578e-05
2019-07-01T20:20:10.153Z,0.010846123,-0.012218086,0.99386424,0.237854,-0.21559143,9.799088,3.338623,-15.791321,-38.415527,0.23763773,-0.21489559,9.801415,-0.0014595836,0.0002631098,-0.00078582764,3.0517578e-05,-9.1552734e-05,-3.0517578e-05
2019-07-01T20:20:10.358Z,0.010882343,-0.012229999,0.993855,0.23904419,-0.2131958,9.799805,3.1784058,-15.649414,-39.43634,0.23838633,-0.21503094,9.8013935,0.000683859,-0.0005839467,-0.0019540787,0.00015258789,-0.00019836426,9.1552734e-05
2019-07-01T20:20:10.557Z,0.010889943,-0.01219846,0.9938525,0.23976135,-0.21391296,9.800766,2.6885986,-15.753174,-39.590454,0.23847231,-0.21439378,9.801405,-0.00036084652,0.0009281635,-0.0001821518,-3.0517578e-05,-3.0517578e-05,9.1552734e-05
2019-07-01T20:20:10.754Z,0.0109210275,-0.0121967485,0.99384433,0.23832703,-0.21487427,9.801483,2.508545,-16.281128,-38.935852,0.23908986,-0.2142765,9.8013935,0.001402989,0.00035069883,0.0011501312,-0.00015258789,-3.0517578e-05,7.6293945e-05
2019-07-01T20:20:10.960Z,0.010895508,-0.012230047,0.99385154,0.23760986,-0.21511841,9.802444,2.9052734,-16.549683,-38.09967,0.23864952,-0.21499638,9.801388,-0.0010192394,-0.0010864586,-0.000500679,-3.0517578e-05,-0.00019836426,-3.0517578e-05
2019-07-01T20:20:11.170Z,0.010898994,-0.012221317,0.99385047,0.23976135,-0.21511841,9.801483,2.8701782,-15.457153,-38.48114,0.23870093,-0.2148163,9.801391,-0.00038030744,0.0004208237,0.0022249222,3.0517578e-05,3.0517578e-05,0.0001373291
2019-07-01T20:20:11.363Z,0.010895791,-0.012212161,0.9938512,0.23664856,-0.21559143,9.803635,3.7872314,-14.891052,-37.87384,0.23861781,-0.21464592,9.801396,-4.772842e-05,0.00024566054,-0.0004310608,-3.0517578e-05,0.00015258789,-3.0517578e-05
2019-07-01T20:20:11.573Z,0.010865802,-0.012237486,0.9938594,0.24023438,-0.21678162,9.804825,2.8198242,-14.880371,-37.90741,0.23807144,-0.21522191,9.801397,-0.00095142424,-0.001071468,0.0012998581,3.0517578e-05,-3.0517578e-05,-0.00010681152
2019-07-01T20:20:11.774Z,0.010912192,-0.012258982,0.99384767,0.23951721,-0.21559143,9.804596,2.5009155,-14.907837,-37.294006,0.23904333,-0.21551715,9.801367,0.001639545,-0.00051140785,0.0018262863,-0.00015258789,-3.0517578e-05,3.0517578e-05
2019-07-01T20:20:11.974Z,0.010903529,-0.012272128,0.9938502,0.23808289,-0.21391296,9.800995,3.1433105,-14.784241,-38.279724,0.23889768,-0.21579757,9.801365,-0.00015038252,-0.00023449957,0.0010671616,-3.0517578e-05,-0.0001373291,-9.1552734e-05
2019-07-01T20:20:12.173Z,0.010891845,-0.012236793,0.9938526,0.23951721,-0.21511841,9.804108,3.1982422,-15.362549,-38.398743,0.23859042,-0.21513818,9.801387,-0.0010101795,0.0014808178,-0.0018377304,0.00021362305,-9.1552734e-05,3.0517578e-05
2019-07-01T20:20:12.379Z,0.0109331,-0.012226876,0.99384165,0.23904419,-0.21559143,9.800995,2.5344849,-15.847778,-37.942505,0.23939405,-0.21483298,9.8013735,0.0012842864,-1.5348196e-06,0.0011644363,-0.00015258789,9.1552734e-05,3.0517578e-05
2019-07-01T20:20:12.582Z,0.010919807,-0.012244358,0.99384546,0.23857117,-0.21536255,9.801956,3.3752441,-14.987183,-38.328552,0.23916495,-0.21521066,9.801371,9.869039e-05,-0.00035856664,-0.001616478,-3.0517578e-05,9.1552734e-05,-0.00010681152
2019-07-01T20:20:12.780Z,0.010905578,-0.01226253,0.99384946,0.2416687,-0.21679688,9.801239,3.0654907,-16.386414,-39.12964,0.23891857,-0.21560435,9.801368,-0.00014561415,-0.00045092404,0.00019359589,3.0517578e-05,9.1552734e-05,-3.0517578e-05
2019-07-01T20:20:12.995Z,0.010929314,-0.012268223,0.9938433,0.23857117,-0.21607971,9.804596,3.2302856,-14.707947,-37.963867,0.23940481,-0.21565163,9.801355,0.0010620803,-0.00041760504,-0.0013093948,3.0517578e-05,3.0517578e-05,9.1552734e-05
2019-07-01T20:20:13.197Z,0.010906676,-0.012318632,0.9938501,0.23832703,-0.21917725,9.800278,2.6016235,-14.312744,-38.009644,0.23905766,-0.21669832,9.80134,-0.0002643466,-0.002243936,-0.0018119812,0.0002746582,-7.6293945e-05,-0.00015258789
2019-07-01T20:20:13.396Z,0.010904001,-0.012272208,0.99385005,0.24024963,-0.21846008,9.800995,3.0410767,-15.3793335,-37.641907,0.23890729,-0.21579787,9.801365,-0.00036242604,0.0021375418,0.0016641617,-0.00015258789,9.1552734e-05,9.1552734e-05
2019-07-01T20:20:13.618Z,0.010921265,-0.012338158,0.9938466,0.23951721,-0.21583557,9.799088,3.491211,-15.849304,-39.03656,0.23939006,-0.21704078,9.801326,0.0013110638,-0.002361074,-0.00047969818,0.0002746582,-3.0517578e-05,3.0517578e-05
2019-07-01T20:20:13.813Z,0.010915934,-0.012283056,0.9938471,0.23857117,-0.21440125,9.801956,2.8884888,-15.168762,-37.893677,0.23916842,-0.21597779,9.801354,-0.00059860945,0.0015777647,-0.0016050339,-0.00015258789,9.1552734e-05,3.0517578e-05
2019-07-01T20:20:14.010Z,0.010923436,-0.012283545,0.9938451,0.23976135,-0.21559143,9.8029175,2.4230957,-14.68811,-38.153076,0.23931937,-0.21596712,9.801352,0.0004361719,0.00060983,0.0003671646,-3.0517578e-05,-0.00019836426,-3.0517578e-05
2019-07-01T20:20:14.266Z,0.010919398,-0.012286061,0.99384624,0.23857117,-0.21702576,9.801956,2.7526855,-16.340637,-38.201904,0.2392439,-0.21602717,9.801351,-0.0006852895,-0.00027008355,0.0005636215,9.1552734e-05,9.1552734e-05,-9.1552734e-05
2019-07-01T20:20:14.461Z,0.0109159835,-0.01226783,0.99384683,0.23760986,-0.21655273,9.800293,3.9627075,-16.337585,-37.94861,0.23913759,-0.21567993,9.801361,0.00013759732,0.0005733818,5.6266785e-05,-0.0002746582,0.00015258789,-0.00022888184
2019-07-01T20:20:14.661Z,0.0108722225,-0.012315587,0.99385905,0.23928833,-0.21511841,9.801712,3.1982422,-15.364075,-38.32245,0.23836274,-0.2167317,9.801357,-0.000995189,-0.001257047,-0.0012331009,0.00015258789,9.1552734e-05,9.1552734e-05
2019-07-01T20:20:14.864Z,0.01089081,-0.012264088,0.99385333,0.23928833,-0.2131958,9.804825,3.4240723,-15.713501,-38.328552,0.2386267,-0.21567464,9.8013735,0.0006582737,0.0015205741,0.00044441223,-3.0517578e-05,9.1552734e-05,-9.1552734e-05
2019-07-01T20:20:15.070Z,0.010899765,-0.012247784,0.9938507,0.23760986,-0.21511841,9.802444,3.7948608,-16.418457,-38.412476,0.23877163,-0.21533173,9.801378,0.00047680736,0.0009664595,0.0030145645,-0.00015258789,3.0517578e-05,0.00021362305
2019-07-01T20:20:15.272Z,0.010872143,-0.012230085,0.9938577,0.24143982,-0.21487427,9.802444,1.9012451,-15.597534,-38.090515,0.23818272,-0.21506011,9.801398,-0.00059977174,0.0011714548,-0.0010223389,-3.0517578e-05,9.1552734e-05,3.0517578e-05
2019-07-01T20:20:15.478Z,0.010919571,-0.012235447,0.99384534,0.23808289,-0.21583557,9.801239,3.7567139,-15.623474,-37.57019,0.23914161,-0.21503708,9.801375,0.0022750348,0.00018362701,-0.0003681183,3.0517578e-05,0.00021362305,9.1552734e-05
2019-07-01T20:20:15.679Z,0.010880717,-0.012237717,0.99385554,0.24023438,-0.2141571,9.801712,2.079773,-15.220642,-38.24768,0.23836997,-0.21518624,9.801391,-0.00052428246,-0.0003976822,-0.0012111664,-9.1552734e-05,-0.0001373291,9.1552734e-05
2019-07-01T20:20:15.882Z,0.010928085,-0.012236723,0.99384314,0.23928833,-0.21511841,9.801483,3.5964966,-15.559387,-37.776184,0.2393144,-0.21503904,9.801371,0.0011477023,-6.4611435e-05,0.0006303787,0.00015258789,-3.0517578e-05,9.1552734e-05
2019-07-01T20:20:16.081Z,0.01092463,-0.012239634,0.9938441,0.23951721,-0.21655273,9.801712,2.8030396,-15.246582,-37.982178,0.23925145,-0.21510528,9.801371,-0.00022287667,0.0002450496,-5.4359436e-05,-9.1552734e-05,-9.1552734e-05,9.1552734e-05
2019-07-01T20:20:16.282Z,0.010936816,-0.012259633,0.99384123,0.23808289,-0.21391296,9.801239,3.2974243,-15.071106,-37.513733,0.23953676,-0.21546343,9.801356,0.00021108985,-0.0008330047,-0.00019741058,-3.0517578e-05,9.1552734e-05,-3.0517578e-05
2019-07-01T20:20:16.491Z,0.010917941,-0.012233141,0.99384576,0.23832703,-0.21607971,9.8029175,3.6636353,-15.771484,-38.275146,0.23910424,-0.2149964,9.801377,-0.001248002,0.001081422,-0.0012369156,9.1552734e-05,-0.00019836426,9.1552734e-05
2019-07-01T20:20:16.690Z,0.010919669,-0.012245202,0.99384546,0.23808289,-0.21368408,9.80101,1.9042969,-15.600586,-37.638855,0.23916396,-0.21522756,9.801371,-0.00037705898,-0.0008403212,0.0012521744,3.0517578e-05,-0.0001373291,-9.1552734e-05
2019-07-01T20:20:16.892Z,0.010905136,-0.012218554,0.99384886,0.23736572,-0.2131958,9.800278,3.09906,-15.885925,-37.594604,0.2388179,-0.21474572,9.80139,-0.0014650375,0.0010732114,3.8146973e-05,-0.00015258789,-0.0001373291,-0.00015258789
2019-07-01T20:20:17.096Z,0.010877996,-0.012189849,0.9938555,0.23832703,-0.21296692,9.802444,3.0166626,-15.888977,-37.895203,0.23821566,-0.21425764,9.801415,-0.0011065453,0.0015460849,2.861023e-05,-3.0517578e-05,-3.0517578e-05,-0.00021362305
2019-07-01T20:20:17.294Z,0.010891482,-0.0121755265,0.9938517,0.23570251,-0.2115326,9.801483,2.758789,-16.345215,-37.52289,0.23845518,-0.21394123,9.801415,0.00010921061,0.00075151026,-0.00045490265,-0.00015258789,9.1552734e-05,-3.0517578e-05
2019-07-01T20:20:17.510Z,0.010847689,-0.012138707,0.99386257,0.23832703,-0.21391296,9.801239,3.42865,-15.563965,-38.52539,0.23750336,-0.21333931,9.801453,-0.0013261437,0.0020493418,-0.0006170273,-3.0517578e-05,9.1552734e-05,0.00038146973
2019-07-01T20:20:17.709Z,0.010861799,-0.012153078,0.9938591,0.23832703,-0.21655273,9.800049,3.0975342,-15.882874,-38.046265,0.23781526,-0.21358229,9.801439,0.0009891987,-0.000578776,-0.00026226044,-9.1552734e-05,9.1552734e-05,-0.00015258789
2019-07-01T20:20:17.901Z,0.010842814,-0.012211253,0.993865,0.23713684,-0.21679688,9.798843,3.2196045,-15.003967,-37.57019,0.23755737,-0.21477088,9.80142,-0.00018373132,-0.0020331591,-0.0003271103,-3.0517578e-05,3.0517578e-05,9.1552734e-05
2019-07-01T20:20:18.114Z,0.010834767,-0.012247696,0.9938677,0.23713684,-0.21511841,9.800522,3.6026,-15.261841,-38.772583,0.23747253,-0.21550506,9.801405,-8.113682e-05,-0.0015440136,-0.001502037,0.0002746582,3.0517578e-05,-3.0517578e-05
2019-07-01T20:20:18.377Z,0.01085581,-0.012208348,0.99386156,0.23976135,-0.21487427,9.800049,3.42865,-15.563965,-38.60016,0.23781095,-0.21467909,9.801415,0.0012288094,0.0007701069,0.002998352,-9.1552734e-05,3.0517578e-05,-9.1552734e-05
2019-07-01T20:20:18.566Z,0.010876595,-0.012232882,0.99385655,0.23641968,-0.21749878,9.801239,3.3462524,-15.79895,-37.361145,0.23827748,-0.21510278,9.8013935,0.00077439845,-0.0004955977,-0.0010290146,-3.0517578e-05,3.0517578e-05,-0.0002746582
2019-07-01T20:20:18.768Z,0.01084134,-0.012258035,0.99386615,0.23951721,-0.21247864,9.801239,3.7322998,-15.905762,-39.135742,0.23762546,-0.21568954,9.801397,-0.00073225796,-0.0013366789,0.000579834,-9.1552734e-05,9.1552734e-05,-0.000289917
2019-07-01T20:20:18.972Z,0.010859418,-0.0122202,0.99386084,0.23760986,-0.2131958,9.800049,2.6870728,-16.131592,-37.55188,0.23790781,-0.21490112,9.801409,0.0008979589,0.0019290298,-0.00040721893,3.0517578e-05,3.0517578e-05,3.0517578e-05
2019-07-01T20:20:19.172Z,0.010843014,-0.012199408,0.9938648,0.2368927,-0.2163086,9.8029175,2.5177002,-16.134644,-38.754272,0.23753665,-0.21453877,9.801426,-0.00063455105,0.00084619224,-0.00027179718,3.0517578e-05,-3.0517578e-05,-3.0517578e-05
2019-07-01T20:20:19.379Z,0.010852083,-0.012225014,0.9938628,0.23832703,-0.21534729,9.801727,2.5421143,-15.701294,-38.21411,0.23777127,-0.21501501,9.80141,0.0003286451,-0.0010648221,-0.00065898895,-0.00015258789,0.00015258789,-0.00015258789
2019-07-01T20:20:19.579Z,0.010846335,-0.01223118,0.9938644,0.23928833,-0.21583557,9.80101,2.1621704,-15.370178,-37.150574,0.23766929,-0.21515103,9.801409,0.00041265786,-0.00019539893,0.0014696121,3.0517578e-05,-3.0517578e-05,9.1552734e-05
2019-07-01T20:20:19.782Z,0.010871978,-0.01226008,0.9938582,0.23880005,-0.21583557,9.80101,2.809143,-15.101624,-38.102722,0.23824203,-0.21564707,9.801385,0.001038745,-0.0006546825,0.0005054474,-0.00015258789,0.00015258789,-9.1552734e-05
2019-07-01T20:20:19.982Z,0.010888569,-0.012251336,0.99385375,0.23713684,-0.21272278,9.801956,2.2155762,-15.872192,-37.480164,0.23855531,-0.21543136,9.801381,0.00096182525,0.0010301769,-0.00061798096,-0.0002746582,3.0517578e-05,-0.00015258789
2019-07-01T20:20:20.186Z,0.010856901,-0.012218113,0.99386144,0.23809814,-0.2141571,9.800995,2.0980835,-14.930725,-37.661743,0.23785315,-0.2148671,9.801411,-0.0016891509,0.0021547377,0.0010328293,-9.1552734e-05,-3.0517578e-05,-0.0002746582
2019-07-01T20:20:20.392Z,0.010875086,-0.012222731,0.9938568,0.23904419,-0.21487427,9.804352,2.8747559,-15.461731,-37.876892,0.23822616,-0.21490839,9.8014,0.00058846176,3.4749508e-05,-0.0009069443,0.00015258789,-9.1552734e-05,3.0517578e-05
2019-07-01T20:20:20.601Z,0.010868011,-0.012202343,0.9938583,0.23736572,-0.2131958,9.801712,3.0410767,-15.304565,-38.079834,0.23804222,-0.21452881,9.801413,2.424419e-05,0.00038649142,0.0013017654,3.0517578e-05,3.0517578e-05,3.0517578e-05
2019-07-01T20:20:20.799Z,0.0108812945,-0.012199409,0.99385476,0.2400055,-0.21559143,9.799805,2.84729,-16.12091,-37.85858,0.23830153,-0.21443568,9.80141,4.3660402e-06,0.0002975911,0.00039482117,-0.00015258789,-9.1552734e-05,-3.0517578e-05
2019-07-01T20:20:21.003Z,0.0108937835,-0.012222946,0.9938519,0.23857117,-0.21583557,9.8022,2.8762817,-15.539551,-37.28943,0.23860022,-0.21486221,9.801393,0.00091153383,-0.00048017502,-0.0013237,-3.0517578e-05,-1.5258789e-05,-3.0517578e-05
2019-07-01T20:20:21.295Z,0.010896776,-0.012237977,0.99385136,0.23880005,-0.21296692,9.799561,2.0370483,-16.246033,-38.076782,0.2386914,-0.21514805,9.801384,-0.0003630072,-0.00044462085,-0.0005617142,-9.1552734e-05,-9.1552734e-05,-0.00010681152
2019-07-01T20:20:21.501Z,0.010910963,-0.012221151,0.99384737,0.24047852,-0.21606445,9.801239,3.3737183,-16.50238,-40.298462,0.23893975,-0.21478078,9.801386,0.0003566444,0.0010894388,-0.00053310394,-0.00015258789,9.1552734e-05,9.1552734e-05
2019-07-01T20:20:21.611Z,0.010913314,-0.012237669,0.993847,0.23832703,-0.21559143,9.802444,3.6743164,-15.171814,-40.342712,0.23902126,-0.21509741,9.801377,0.00027933717,-3.2037497e-05,-0.00035190582,3.0517578e-05,-9.1552734e-05,3.0517578e-05
2019-07-01T20:20:21.816Z,0.010921802,-0.012249429,0.993845,0.23808289,-0.2163086,9.801483,2.3788452,-15.710449,-38.209534,0.23921542,-0.21530443,9.801368,0.00054714084,-0.0005322248,0.00088214874,-9.1552734e-05,0.00015258789,1.5258789e-05
2019-07-01T20:20:22.021Z,0.010883455,-0.012267056,0.9938553,0.24072266,-0.21655273,9.801956,3.300476,-14.770508,-38.81073,0.23848593,-0.2157525,9.801375,-0.0008779764,-0.0007985234,0.00025844574,-9.1552734e-05,0.00015258789,9.1552734e-05
2019-07-01T20:20:22.227Z,0.010916209,-0.012282598,0.993847,0.23857117,-0.21487427,9.804825,3.088379,-15.875244,-39.1037,0.23917294,-0.21596806,9.801353,0.0017622858,-9.690225e-05,0.0011386871,-9.1552734e-05,-9.1552734e-05,0.00021362305
2019-07-01T20:20:22.432Z,0.01090257,-0.012283819,0.9938506,0.23880005,-0.21655273,9.801483,3.1860352,-15.579224,-38.668823,0.23890291,-0.21602874,9.801359,-0.00084912777,0.00046361983,0.0010814667,-9.1552734e-05,-3.0517578e-05,-3.0517578e-05
2019-07-01T20:20:22.616Z,0.010887955,-0.012276284,0.9938543,0.2368927,-0.2163086,9.8033905,3.4225464,-15.864563,-37.527466,0.23859511,-0.2159208,9.801369,-0.00028823316,0.0005764961,-0.0007133484,-3.0517578e-05,9.1552734e-05,-3.0517578e-05
2019-07-01T20:20:22.816Z,0.010871245,-0.012290486,0.9938589,0.23951721,-0.21679688,9.800049,4.1519165,-15.667725,-38.198853,0.23829083,-0.21624354,9.80137,-0.0007068813,-0.0005298257,0.0004825592,-0.00015258789,-0.0001373291,-0.00010681152
2019-07-01T20:20:23.017Z,0.010887246,-0.012320146,0.9938552,0.24072266,-0.21464539,9.799332,3.112793,-15.516663,-38.049316,0.2386725,-0.21678032,9.801348,0.00036092103,-0.0004798025,-0.0012683868,-3.0517578e-05,9.1552734e-05,-0.00015258789
2019-07-01T20:20:23.241Z,0.0108856745,-0.012279204,0.99385494,0.23904419,-0.21607971,9.800278,3.1051636,-15.739441,-37.791443,0.23855564,-0.21598405,9.801369,-0.0014150888,0.00061812997,0.0009841919,9.1552734e-05,3.0517578e-05,-9.1552734e-05
2019-07-01T20:20:23.431Z,0.010881192,-0.012270653,0.99385595,0.2368927,-0.2163086,9.800766,2.1209717,-16.093445,-38.20343,0.23844822,-0.21582893,9.801374,-0.00010986626,-0.00026105344,-0.0006303787,-9.1552734e-05,9.1552734e-05,-3.0517578e-05
2019-07-01T20:20:23.635Z,0.010854135,-0.012264658,0.9938629,0.23640442,-0.21343994,9.801483,3.0654907,-14.793396,-37.89978,0.23789501,-0.21578461,9.80139,-0.0009932369,0.0006579608,0.00022411346,-9.1552734e-05,9.1552734e-05,-9.1552734e-05
2019-07-01T20:20:23.855Z,0.010822653,-0.012234338,0.9938707,0.23808289,-0.21440125,9.800766,3.4103394,-16.081238,-38.09967,0.23720263,-0.2152765,9.801417,-0.00079230964,0.0013581812,0.00030994415,-0.00015258789,3.0517578e-05,3.0517578e-05
2019-07-01T20:20:24.042Z,0.0108638145,-0.012235617,0.99385995,0.23640442,-0.21655273,9.801483,2.0629883,-15.739441,-37.295532,0.23802784,-0.21519072,9.801399,0.0012752265,0.0007761419,-0.0007429123,-0.00015258789,-3.0517578e-05,-0.00015258789
2019-07-01T20:20:24.243Z,0.010804506,-0.01226454,0.99387586,0.23928833,-0.21534729,9.800766,3.1723022,-15.872192,-38.8031,0.23690295,-0.21591581,9.801411,-0.0014332384,-0.00064724684,0.0002975464,-0.00015258789,0.0002746582,-9.1552734e-05
2019-07-01T20:20:24.443Z,0.010839164,-0.012253186,0.9938667,0.23832703,-0.21511841,9.8033905,1.7089844,-16.340637,-38.008118,0.2375719,-0.2156006,9.801401,0.0014712662,0.00048312545,0.0010004044,9.1552734e-05,-0.0001373291,9.1552734e-05
2019-07-01T20:20:24.644Z,0.010853217,-0.012252937,0.993863,0.23928833,-0.21463013,9.803879,3.187561,-15.811157,-37.205505,0.2378522,-0.2155579,9.801395,0.0004695356,0.00021539629,0.00034332275,-0.00015258789,3.0517578e-05,9.1552734e-05
2019-07-01T20:20:24.855Z,0.0108818,-0.012253865,0.99385554,0.23928833,-0.2172699,9.803635,3.7597656,-15.397644,-38.42926,0.23842534,-0.21549906,9.801383,0.0015484542,0.00018040836,0.0021390915,3.0517578e-05,0.00015258789,-0.00021362305
2019-07-01T20:20:25.056Z,0.010899763,-0.012271523,0.9938511,0.23857117,-0.21463013,9.802429,3.5491943,-14.610291,-38.56201,0.23882116,-0.21579589,9.801367,0.0009061992,-0.00025312603,0.00015640259,-0.00015258789,-9.1552734e-05,9.1552734e-05
2019-07-01T20:20:25.255Z,0.010888382,-0.012268071,0.99385405,0.23976135,-0.2172699,9.803879,2.8900146,-15.170288,-37.667847,0.2385865,-0.21575907,9.801373,-0.0010057092,0.00043807924,-0.0003671646,-3.0517578e-05,-0.0001373291,9.1552734e-05
2019-07-01T20:20:25.457Z,0.010914097,-0.012294425,0.9938477,0.24119568,-0.2172699,9.804352,2.7435303,-14.816284,-37.815857,0.23915544,-0.21620503,9.80135,0.0010426044,-0.0005437434,0.00055217743,-9.1552734e-05,9.1552734e-05,9.1552734e-05
2019-07-01T20:20:25.669Z,0.010950892,-0.01231059,0.99383837,0.23927307,-0.21607971,9.801956,3.363037,-15.357971,-37.649536,0.2399246,-0.21642178,9.801327,0.0014639199,-0.00032880902,0.0011739731,0.00021362305,-3.0517578e-05,3.0517578e-05
2019-07-01T20:20:25.870Z,0.0109314285,-0.012295736,0.99384326,0.23857117,-0.21655273,9.803162,1.776123,-16.474915,-38.793945,0.23950455,-0.21618387,9.801341,-0.0007455647,-0.00033178926,-0.0008211136,-0.00021362305,3.0517578e-05,-0.00015258789
2019-07-01T20:20:26.071Z,0.010922627,-0.012321864,0.993846,0.24023438,-0.21678162,9.803162,2.6916504,-15.908813,-38.18817,0.23938322,-0.21671851,9.801332,-0.0003812164,-4.017353e-05,0.00010204315,-0.00015258789,-3.0517578e-05,-0.00015258789
2019-07-01T20:20:26.271Z,0.010917995,-0.012327798,0.9938473,0.23545837,-0.21463013,9.801956,2.3788452,-15.710449,-38.209534,0.23930305,-0.21684702,9.8013315,0.00017698109,9.909272e-05,-0.00041007996,-0.0002746582,0.00021362305,-9.1552734e-05
2019-07-01T20:20:26.474Z,0.010851773,-0.012286656,0.9938639,0.23951721,-0.2163086,9.801727,2.7954102,-15.391541,-38.01117,0.23789372,-0.21622108,9.80138,-0.002467692,0.0023375005,-0.00026798248,3.0517578e-05,-3.0517578e-05,0.00019836426
2019-07-01T20:20:26.679Z,0.010881378,-0.012314482,0.9938566,0.23928833,-0.21702576,9.804108,2.6168823,-16.072083,-36.857605,0.23854339,-0.21668537,9.8013525,0.0014293641,-0.00079891086,-2.5749207e-05,-0.00015258789,9.1552734e-05,-3.0517578e-05
2019-07-01T20:20:26.876Z,0.010890268,-0.0123220775,0.99385446,0.2400055,-0.21559143,9.803635,2.5436401,-15.777588,-37.626648,0.23873693,-0.21680994,9.801346,0.0009800196,0.0002975464,0.0009384155,-3.0517578e-05,3.0517578e-05,-9.1552734e-05
2019-07-01T20:20:27.083Z,0.010902982,-0.012300609,0.99385077,0.23951721,-0.21583557,9.804352,3.1097412,-15.589905,-38.14087,0.23894621,-0.21635589,9.801351,0.00053064525,0.000800997,-0.00033283234,3.0517578e-05,0.00015258789,-3.0517578e-05
2019-07-01T20:20:27.283Z,0.010912887,-0.012301877,0.9938482,0.24311829,-0.21774292,9.804596,2.5238037,-16.064453,-38.363647,0.23914681,-0.21635398,9.801346,0.0010281652,-0.0001450032,0.0015325546,-9.1552734e-05,9.1552734e-05,9.1552734e-05
2019-07-01T20:20:27.486Z,0.010971013,-0.0123102525,0.9938331,0.23951721,-0.21511841,9.800995,2.445984,-16.075134,-37.908936,0.24032597,-0.21636079,9.801317,0.0024870634,0.0005802512,6.866455e-05,-3.0517578e-05,9.1552734e-05,3.0517578e-05
2019-07-01T20:20:27.693Z,0.010952052,-0.012308878,0.9938381,0.24119568,-0.21583557,9.801956,2.6901245,-16.134644,-37.327576,0.23994416,-0.21638516,9.801326,-0.00046488643,-0.00013336539,-0.0018806458,-9.1552734e-05,-3.0517578e-05,-0.00015258789
2019-07-01T20:20:27.904Z,0.010958099,-0.012318009,0.99383664,0.23857117,-0.21606445,9.801239,3.4500122,-15.129089,-38.21106,0.2400841,-0.21654734,9.801319,0.0003658384,0.0007375479,-0.0007581711,-0.00015258789,0.00021362305,-0.00015258789
2019-07-01T20:20:28.101Z,0.0109321335,-0.012307724,0.99384326,0.23951721,-0.21678162,9.801727,3.5003662,-15.779114,-38.645935,0.23954366,-0.21641636,9.801334,-0.00027927756,0.0003735423,-0.00035858154,-3.0517578e-05,0.0002746582,-0.0004119873
2019-07-01T20:20:28.301Z,0.010909089,-0.012312361,0.99384934,0.23928833,-0.21607971,9.801712,2.609253,-15.988159,-38.12256,0.2390928,-0.21656922,9.801342,-0.0005387068,-0.000685215,-0.0005598068,9.1552734e-05,-3.0517578e-05,-0.00010681152
2019-07-01T20:20:28.507Z,0.010929127,-0.012283513,0.9938436,0.2400055,-0.21440125,9.8029175,2.9922485,-14.726257,-37.657166,0.23943304,-0.21595113,9.801349,0.00079636276,0.0013392419,0.00026798248,-3.0517578e-05,-3.0517578e-05,-0.00015258789
2019-07-01T20:20:28.760Z,0.010929412,-0.012274503,0.99384344,0.23857117,-0.21511841,9.804352,3.0822754,-16.249084,-37.971497,0.23941986,-0.21577415,9.801352,0.00031724572,0.00044870377,0.00032901764,-3.0517578e-05,9.1552734e-05,3.0517578e-05
2019-07-01T20:20:28.910Z,0.0109096635,-0.012257674,0.9938483,0.2400055,-0.21559143,9.805786,2.3208618,-15.357971,-37.454224,0.23899008,-0.21549839,9.801369,-0.00070117414,0.0006584972,0.0011758804,-3.0517578e-05,-9.1552734e-05,0.0002593994
2019-07-01T20:20:29.114Z,0.010931349,-0.012250724,0.99384254,0.23808289,-0.2182312,9.801483,3.0899048,-14.434814,-36.77063,0.23940891,-0.215304,9.801363,0.001009956,1.0356307e-05,0.0017366409,-3.0517578e-05,0.00021362305,-0.00015258789
2019-07-01T20:20:29.335Z,0.010894399,-0.012296706,0.9938529,0.23928833,-0.21702576,9.8022,2.1484375,-15.510559,-37.857056,0.23876654,-0.21630275,9.801356,-0.00073228776,-0.0016402453,-0.0009088516,-9.1552734e-05,0.00015258789,-0.00021362305
2019-07-01T20:20:29.568Z,0.010925301,-0.012295814,0.99384487,0.23928833,-0.2141571,9.804352,3.3676147,-15.362549,-37.121582,0.23938227,-0.21620196,9.801344,0.0003195405,-0.0012582988,-0.00014686584,3.0517578e-05,0.00010681152,-0.00015258789
2019-07-01T20:20:29.766Z,0.010927765,-0.012253718,0.9938435,0.23832703,-0.21343994,9.8029175,2.7069092,-15.617371,-37.902832,0.23934352,-0.21537222,9.801363,0.00010608137,0.0015200824,0.0006933212,-3.0517578e-05,-9.1552734e-05,3.0517578e-05
2019-07-01T20:20:29.970Z,0.010896899,-0.012210314,0.9938509,0.23641968,-0.21702576,9.801712,2.5848389,-14.828491,-37.58545,0.23863609,-0.21460682,9.801397,-0.0013213605,0.0012127161,-0.001291275,0.00015258789,9.1552734e-05,0.0001373291
2019-07-01T20:20:30.171Z,0.010845992,-0.012247308,0.9938648,0.23808289,-0.21655273,9.800522,3.3538818,-15.501404,-38.053894,0.23769605,-0.21546727,9.8014,-0.0015511662,-0.0020189881,-0.0016698837,9.1552734e-05,-3.0517578e-05,3.0517578e-05
2019-07-01T20:20:30.376Z,0.010869677,-0.012259055,0.99385875,0.23951721,-0.21702576,9.800522,3.024292,-15.744019,-37.94098,0.23819391,-0.21563321,9.801386,0.0008365065,-0.00066289306,-0.0014305115,-9.1552734e-05,3.0517578e-05,9.1552734e-05
2019-07-01T20:20:30.577Z,0.010884078,-0.012279201,0.99385536,0.23832703,-0.2163086,9.800522,3.2485962,-15.939331,-38.89618,0.23852375,-0.21598831,9.80137,0.000763908,-0.0003196597,-0.0011043549,3.0517578e-05,-3.0517578e-05,0.00015258789
2019-07-01T20:20:30.780Z,0.0108736325,-0.012293997,0.99385834,0.237854,-0.21463013,9.799805,3.0456543,-15.232849,-37.913513,0.23834586,-0.21630575,9.801367,-0.00048354268,-0.0007275492,-0.000746727,9.1552734e-05,9.1552734e-05,-9.1552734e-05
2019-07-01T20:20:30.984Z,0.010870696,-0.012262755,0.9938586,0.23808289,-0.21487427,9.801727,2.4642944,-15.710449,-37.683105,0.23822199,-0.21570279,9.801383,0.00010794401,0.0010700226,0.0004644394,-3.0517578e-05,9.1552734e-05,-9.1552734e-05
2019-07-01T20:20:31.183Z,0.010855535,-0.012252444,0.9938624,0.23760986,-0.21583557,9.801956,3.1433105,-14.859009,-37.916565,0.2378975,-0.21554203,9.801394,-0.000532344,0.00042413175,0.00030994415,-3.0517578e-05,3.0517578e-05,-0.00016784668
2019-07-01T20:20:31.390Z,0.010852792,-0.012254519,0.9938631,0.237854,-0.21559143,9.802444,3.0426025,-15.380859,-37.41455,0.23784702,-0.21558999,9.801394,0.00023473799,-4.172325e-07,4.196167e-05,-0.00015258789,9.1552734e-05,3.0517578e-05
2019-07-01T20:20:31.592Z,0.010861035,-0.012265264,0.99386114,0.2400055,-0.21224976,9.801483,3.2485962,-16.091919,-38.095093,0.23803416,-0.21577787,9.801386,0.0005237758,0.00019843876,0.0009870529,-9.1552734e-05,-3.0517578e-05,-3.0517578e-05
2019-07-01T20:20:31.795Z,0.010889116,-0.012219014,0.99385303,0.23928833,-0.21487427,9.802444,2.5787354,-14.97345,-37.61444,0.23849875,-0.21479791,9.801396,0.0010283738,0.0023241192,-0.00062179565,-0.00015258789,0.00015258789,-9.1552734e-05
2019-07-01T20:20:31.994Z,0.010899728,-0.012219006,0.9938503,0.23857117,-0.21391296,9.802429,2.9968262,-14.657593,-37.039185,0.2387108,-0.21476915,9.801393,0.0007903576,0.000382334,0.00086688995,9.1552734e-05,-0.0001373291,3.0517578e-05
2019-07-01T20:20:32.209Z,0.010891766,-0.012217863,0.9938523,0.23832703,-0.21511841,9.802444,2.7160645,-15.473938,-37.571716,0.23854929,-0.21476826,9.801395,-0.0007007718,-0.00010107458,-0.0008544922,-0.00015258789,0.00015258789,-0.000289917
2019-07-01T20:20:32.404Z,0.010878015,-0.012214401,0.9938559,0.23521423,-0.21296692,9.801712,3.3721924,-15.213013,-37.54425,0.2382673,-0.21473762,9.801403,3.810227e-05,0.00060001016,0.0013418198,0.00015258789,0.00015258789,-3.0517578e-05
2019-07-01T20:20:32.605Z,0.010835505,-0.012151942,0.99386597,0.23760986,-0.2131958,9.799561,3.1707764,-15.94696,-38.66577,0.23728754,-0.21363086,9.801451,-0.0016161352,0.0016395301,-0.0003938675,-9.1552734e-05,-3.0517578e-05,3.0517578e-05
2019-07-01T20:20:32.807Z,0.010844805,-0.0121766655,0.99386394,0.23713684,-0.21559143,9.800278,2.9800415,-16.539001,-39.2334,0.23752497,-0.21408926,9.801435,0.00032566488,-0.0005530715,-0.0010528564,-9.1552734e-05,-3.0517578e-05,3.0517578e-05
2019-07-01T20:20:33.010Z,0.010830718,-0.012199372,0.993868,0.237854,-0.2163086,9.805313,3.3233643,-15.776062,-40.45105,0.23729084,-0.21457112,9.80143,-0.00038152933,-0.0005622953,-0.0016565323,3.0517578e-05,0.00015258789,-0.00015258789
2019-07-01T20:20:33.306Z,0.010821646,-0.012228288,0.9938708,0.23760986,-0.21463013,9.801483,2.8625488,-15.527344,-39.09912,0.23716988,-0.21516089,9.80142,-6.686151e-05,-0.0013750046,0.00288105,-0.00015258789,-3.0517578e-05,3.0517578e-05
2019-07-01T20:20:33.511Z,0.010835559,-0.012223317,0.9938671,0.23951721,-0.2172699,9.799805,3.388977,-14.69574,-38.27057,0.23743755,-0.2150263,9.801417,0.0006363541,0.00087733567,-0.00079250336,-9.1552734e-05,3.0517578e-05,-9.1552734e-05
2019-07-01T20:20:33.716Z,0.010875655,-0.012268819,0.9938574,0.2368927,-0.21368408,9.801483,3.1951904,-15.435791,-38.412476,0.23833375,-0.215808,9.801378,0.0018951744,-0.0012128204,-0.0003633499,-3.0517578e-05,9.1552734e-05,-9.1552734e-05
2019-07-01T20:20:33.921Z,0.010829061,-0.0122404555,0.99386907,0.23664856,-0.21655273,9.799561,3.2546997,-15.867615,-38.50403,0.23734345,-0.21537887,9.801412,-0.0014118701,0.0009774566,-0.00040912628,-3.0517578e-05,9.1552734e-05,-0.00015258789
2019-07-01T20:20:34.026Z,0.010823577,-0.012250363,0.9938707,0.23951721,-0.21751404,9.803879,2.520752,-16.139221,-38.227844,0.23725452,-0.21558735,9.80141,0.00012995303,-0.0005093813,-0.0015478134,3.0517578e-05,3.0517578e-05,3.0517578e-05
2019-07-01T20:20:34.224Z,0.010846802,-0.012287397,0.9938652,0.24047852,-0.21511841,9.803146,3.4240723,-15.711975,-38.479614,0.23779587,-0.21624894,9.801381,0.0012421757,-0.0012595057,0.001999855,-3.0517578e-05,0.00015258789,-9.1552734e-05
2019-07-01T20:20:34.424Z,0.010886731,-0.012245069,0.9938541,0.23713684,-0.21511841,9.8033905,3.239441,-16.236877,-38.2782,0.23850547,-0.21531376,9.801384,0.0014660805,0.0009431541,0.0010843277,-0.00015258789,0.00021362305,3.0517578e-05
2019-07-01T20:20:34.632Z,0.010863518,-0.0122599155,0.9938604,0.24023438,-0.21391296,9.803879,2.5878906,-16.348267,-38.876343,0.23807263,-0.2156666,9.801388,-0.000501439,0.00011020899,0.00041103363,3.0517578e-05,3.0517578e-05,-3.0517578e-05
2019-07-01T20:20:34.835Z,0.010888735,-0.012231153,0.99385333,0.23736572,-0.2141571,9.800049,3.7002563,-14.892578,-38.398743,0.23851648,-0.2150363,9.801391,0.0014545172,0.00091029704,-0.0003633499,9.1552734e-05,0.00015258789,-3.0517578e-05
2019-07-01T20:20:35.038Z,0.010875108,-0.012200638,0.99385643,0.24047852,-0.21487427,9.803162,3.2669067,-15.574646,-38.520813,0.23818046,-0.21447636,9.801411,-0.0003553033,0.0008045286,-0.0016927719,-3.0517578e-05,0.00015258789,-0.00022888184
2019-07-01T20:20:35.239Z,0.01089479,-0.012207185,0.99385136,0.23904419,-0.21463013,9.802673,2.7923584,-15.539551,-37.81433,0.23858744,-0.21455134,9.8014,0.0013943166,-0.0005457252,0.0007867813,3.0517578e-05,9.1552734e-05,-0.00015258789
2019-07-01T20:20:35.444Z,0.010917995,-0.012220709,0.9938455,0.2416687,-0.2141571,9.8029175,2.6382446,-15.405273,-37.78076,0.23907934,-0.21475317,9.801383,0.0008879453,-8.6799264e-05,0.0011587143,-0.00015258789,-3.0517578e-05,-9.1552734e-05
2019-07-01T20:20:35.647Z,0.010928661,-0.012209423,0.99384254,0.23474121,-0.21391296,9.800049,3.1921387,-15.512085,-38.35144,0.23926885,-0.2145037,9.801384,0.00046241283,0.0008465797,-0.0006599426,3.0517578e-05,-3.0517578e-05,-0.00021362305
2019-07-01T20:20:35.851Z,0.010877173,-0.012195166,0.9938558,0.23880005,-0.21678162,9.799332,3.0273438,-15.670776,-37.850952,0.23821032,-0.21436381,9.801413,-0.0022834241,0.00021074712,-0.0020370483,-3.0517578e-05,3.0517578e-05,-3.0517578e-05
2019-07-01T20:20:36.052Z,0.010880594,-0.012247521,0.9938557,0.23568726,-0.2131958,9.802673,2.897644,-15.101624,-37.12616,0.238388,-0.21537828,9.801387,0.000667572,-0.0016577542,-0.0013580322,-0.00021362305,0.00015258789,-3.0517578e-05
2019-07-01T20:20:36.256Z,0.010822633,-0.012199644,0.9938701,0.2368927,-0.21343994,9.800049,3.5217285,-15.193176,-38.905334,0.23712988,-0.21459818,9.801434,-0.0021576434,0.002117604,0.00085544586,3.0517578e-05,3.0517578e-05,-0.00010681152
2019-07-01T20:20:36.455Z,0.010821723,-0.012190119,0.9938702,0.23832703,-0.21606445,9.802444,2.3269653,-15.057373,-38.29956,0.23709182,-0.2144144,9.801438,0.00027692318,0.00025457144,-7.43866e-05,-9.1552734e-05,0.00015258789,-0.00021362305
2019-07-01T20:20:36.660Z,0.0108248005,-0.012224048,0.9938699,0.23857117,-0.21536255,9.801956,3.2440186,-16.011047,-39.060974,0.23722409,-0.21506953,9.801421,0.000623405,-0.0009890348,0.0007543564,-3.0517578e-05,3.0517578e-05,9.1552734e-05
2019-07-01T20:20:36.864Z,0.010845369,-0.01222204,0.99386454,0.23880005,-0.21487427,9.800278,3.0334473,-15.37323,-38.546753,0.2376309,-0.21497492,9.801414,0.0011680126,0.00033056736,-0.00046539307,-9.1552734e-05,0.00015258789,-3.0517578e-05
2019-07-01T20:20:37.067Z,0.010850434,-0.012234929,0.9938634,0.23880005,-0.21247864,9.801239,2.722168,-15.3289795,-37.69226,0.23775901,-0.21521328,9.801405,0.0008145571,9.2700124e-05,-0.00031089783,-0.00015258789,9.1552734e-05,-0.00010681152
2019-07-01T20:20:37.269Z,0.010882184,-0.012198967,0.9938545,0.23857117,-0.21487427,9.803162,2.3422241,-14.845276,-37.57782,0.23831834,-0.2144246,9.801408,0.0009789616,0.0021667778,-0.00051784515,-0.00015258789,-3.0517578e-05,-3.0517578e-05
2019-07-01T20:20:37.470Z,0.010876691,-0.012223366,0.9938564,0.2416687,-0.21583557,9.802673,1.8844604,-15.962219,-38.24005,0.23825957,-0.2149165,9.8014,5.5253506e-05,-0.0004197657,0.0017328262,-3.0517578e-05,-3.0517578e-05,-9.1552734e-05
2019-07-01T20:20:37.675Z,0.010916881,-0.012245405,0.99384624,0.23904419,-0.21487427,9.8022,3.302002,-14.772034,-38.661194,0.2391087,-0.21523908,9.801373,0.0018197298,-0.00033153594,0.0008420944,-0.00021362305,0.00015258789,-0.00015258789
2019-07-01T20:20:37.874Z,0.010905926,-0.012243337,0.99384904,0.23832703,-0.21583557,9.802444,2.7114868,-15.318298,-39.12506,0.23888545,-0.21522816,9.801377,0.00013673306,0.00037373602,-8.106232e-05,-9.1552734e-05,3.0517578e-05,9.1552734e-05
2019-07-01T20:20:38.081Z,0.010888238,-0.012265214,0.99385405,0.23808289,-0.21391296,9.800766,3.314209,-14.782715,-37.078857,0.23857768,-0.2157036,9.801374,-0.00027011335,-0.0008315444,-0.00021839142,0.00015258789,0.00021362305,-0.00022888184
2019-07-01T20:20:38.281Z,0.010890614,-0.0122248465,0.99385273,0.24023438,-0.21559143,9.8029175,3.0075073,-16.030884,-38.528442,0.23854086,-0.2149079,9.801393,1.8835068e-05,0.0014783144,-0.00062561035,-0.00015258789,-3.0517578e-05,-9.1552734e-05
2019-07-01T20:20:38.486Z,0.010933711,-0.012251701,0.99384195,0.23760986,-0.21391296,9.802673,2.59552,-14.456177,-38.189697,0.23945813,-0.21531671,9.801361,0.0017188042,-0.0002578497,0.00054454803,-9.1552734e-05,3.0517578e-05,-0.0002746582
2019-07-01T20:20:38.690Z,0.010886984,-0.012234548,0.99385387,0.23928833,-0.21942139,9.8029175,2.3910522,-15.571594,-37.275696,0.23848858,-0.21510738,9.80139,-0.0016163737,0.00049573183,0.00019836426,0.00015258789,-9.1552734e-05,-0.00021362305
2019-07-01T20:20:38.889Z,0.01090774,-0.012287518,0.9938493,0.24143982,-0.21511841,9.804108,3.0258179,-15.745544,-37.789917,0.23901397,-0.2160871,9.801354,0.0007146001,-0.0023433566,0.0009355545,-0.00015258789,9.1552734e-05,-9.1552734e-05
2019-07-01T20:20:39.094Z,0.010940522,-0.012296942,0.9938409,0.23928833,-0.21583557,9.802673,3.2943726,-15.144348,-37.52899,0.23968881,-0.21618293,9.801337,0.0017120838,0.0003824383,0.00046253204,-3.0517578e-05,-3.0517578e-05,-9.1552734e-05
2019-07-01T20:20:39.297Z,0.010934601,-0.012271005,0.993842,0.23928833,-0.21583557,9.800049,2.0751953,-15.52124,-37.10022,0.23951623,-0.21569173,9.801351,-0.00050261617,0.0010891259,-0.0006456375,-9.1552734e-05,3.0517578e-05,-0.00015258789
2019-07-01T20:20:39.501Z,0.010913923,-0.012301334,0.9938479,0.23951721,-0.21511841,9.798843,2.746582,-16.487122,-38.230896,0.23916642,-0.2163406,9.801347,-0.00013796985,-0.0009150505,-0.0012254715,9.1552734e-05,9.1552734e-05,3.0517578e-05
2019-07-01T20:20:39.700Z,0.010922947,-0.012260219,0.99384487,0.23928833,-0.21464539,9.801956,2.7755737,-16.056824,-37.088013,0.23926085,-0.21551234,9.801362,-0.0002104193,0.0011054873,-0.0017747879,3.0517578e-05,-3.0517578e-05,-0.00015258789
2019-07-01T20:20:39.906Z,0.010934992,-0.012245003,0.99384147,0.23951721,-0.21606445,9.8029175,3.2104492,-15.222168,-37.76703,0.23946974,-0.2151823,9.801364,0.0005389303,0.0005340725,0.000248909,-3.0517578e-05,-3.0517578e-05,0.0001373291
2019-07-01T20:20:40.110Z,0.010928247,-0.012256617,0.99384344,0.23808289,-0.21583557,9.801239,3.0258179,-15.6692505,-38.076782,0.23935921,-0.21542758,9.801361,-0.00032168627,-0.0001578629,0.00081062317,-0.00015258789,3.0517578e-05,-3.0517578e-05
2019-07-01T20:20:40.311Z,0.0109060835,-0.012282209,0.99384964,0.23928833,-0.21606445,9.8029175,2.6046753,-16.134644,-38.002014,0.23896977,-0.21598777,9.801358,-0.000655964,-0.0005530119,0.00054359436,-3.0517578e-05,3.0517578e-05,-0.00015258789
2019-07-01T20:20:40.511Z,0.010909588,-0.01227797,0.9938487,0.23808289,-0.21679688,9.800522,3.1143188,-15.518188,-37.898254,0.23903097,-0.21589544,9.801359,0.00024357438,-0.00040070713,3.1471252e-05,9.1552734e-05,-9.1552734e-05,0.0002593994
2019-07-01T20:20:40.711Z,0.010895231,-0.012281582,0.9938525,0.23808289,-0.2163086,9.800049,2.720642,-15.327454,-37.843323,0.2387516,-0.21600479,9.801364,-0.00067286193,0.00017297268,-0.0007686615,-9.1552734e-05,0.00015258789,-3.0517578e-05
2019-07-01T20:20:40.914Z,0.01091427,-0.012279364,0.9938475,0.23928833,-0.2163086,9.801727,3.149414,-14.71405,-37.886047,0.23912746,-0.21591009,9.801357,0.00040370226,-0.0011282712,-0.0009803772,-0.00021362305,0.00015258789,1.5258789e-05
2019-07-01T20:20:41.120Z,0.010893197,-0.012292887,0.9938532,0.24072266,-0.21583557,9.801727,2.9418945,-15.594482,-38.66272,0.23873456,-0.21623132,9.801359,-0.000406906,0.0003951937,0.0011110306,-9.1552734e-05,9.1552734e-05,-0.00015258789
2019-07-01T20:20:41.324Z,0.01091576,-0.012298644,0.99384737,0.23904419,-0.21774292,9.805313,1.9073486,-15.45105,-38.137817,0.23919748,-0.216283,9.801346,0.0012742579,-1.9460917e-05,0.0005760193,-3.0517578e-05,9.1552734e-05,-0.00021362305
2019-07-01T20:20:41.521Z,0.010909942,-0.0123032145,0.993849,0.23904419,-0.21487427,9.800522,3.211975,-16.74347,-39.057922,0.23909074,-0.21638806,9.801346,-7.356703e-05,-0.00038437545,0.0016536713,-3.0517578e-05,-9.1552734e-05,-0.00015258789
2019-07-01T20:20:41.725Z,0.01090253,-0.012278898,0.9938505,0.23664856,-0.2141571,9.800278,4.020691,-15.097046,-37.54883,0.23889183,-0.21593261,9.801361,-0.00032779574,0.00082065165,-0.0016050339,3.0517578e-05,0.00015258789,-0.00015258789
2019-07-01T20:20:41.927Z,0.010878272,-0.012255139,0.9938565,0.237854,-0.2163086,9.8029175,3.5720825,-14.402771,-36.9339,0.2383575,-0.21553347,9.801384,-0.0009911507,0.00090277195,-0.00059223175,-9.1552734e-05,-9.1552734e-05,-0.00022888184
2019-07-01T20:20:42.129Z,0.010858874,-0.012258494,0.9938616,0.23808289,-0.21536255,9.799805,0.92163086,-16.030884,-37.760925,0.23797682,-0.21565132,9.80139,-0.00086696446,0.00031466782,0.0010442734,3.0517578e-05,9.1552734e-05,-0.0002746582
2019-07-01T20:20:42.339Z,0.010863256,-0.012260139,0.9938605,0.23474121,-0.21655273,9.800522,2.2476196,-15.065002,-37.99591,0.23806784,-0.21567169,9.801388,0.0007292628,-0.00016118586,-0.00074386597,-0.00015258789,0.00015258789,-3.0517578e-05
2019-07-01T20:20:42.538Z,0.010791888,-0.012284205,0.9938795,0.237854,-0.21511841,9.799332,2.9022217,-14.953613,-37.397766,0.23669174,-0.21633421,9.801406,-0.0021834671,-0.0007018,-0.0011377335,-9.1552734e-05,0.00015258789,-3.0517578e-05
2019-07-01T20:20:42.744Z,0.010811689,-0.012272835,0.99387413,0.23808289,-0.21391296,9.800522,2.5680542,-15.193176,-37.509155,0.23706381,-0.21605869,9.801404,0.0012892783,0.0009165406,-0.0012388229,9.1552734e-05,0.00015258789,-0.0004119873
2019-07-01T20:20:42.942Z,0.010821759,-0.012215149,0.99387056,0.24047852,-0.21368408,9.799332,2.784729,-15.533447,-38.719177,0.23714475,-0.2149037,9.801427,0.0007302016,0.0014447719,0.0004348755,-3.0517578e-05,0.00015258789,-0.00015258789
2019-07-01T20:20:43.150Z,0.0108617805,-0.012201839,0.9938599,0.23904419,-0.21679688,9.802673,3.7582397,-15.473938,-38.0661,0.23791666,-0.21453573,9.801415,0.0023405105,0.00083111227,-0.00018405914,9.1552734e-05,0.00021362305,-0.00015258789
2019-07-01T20:20:43.352Z,0.010868641,-0.012254721,0.993859,0.23832703,-0.21511841,9.802444,2.6275635,-15.54718,-38.412476,0.23816414,-0.21555124,9.801388,0.0011244565,-0.0021919012,0.0017843246,0.00015258789,9.1552734e-05,-9.1552734e-05
2019-07-01T20:20:43.558Z,0.01086429,-0.012232681,0.99385977,0.23617554,-0.21391296,9.799561,3.0273438,-15.519714,-38.49945,0.23803121,-0.21513203,9.8014,6.0990453e-05,0.00049349666,-0.0007390976,-9.1552734e-05,0.00021362305,9.1552734e-05
2019-07-01T20:20:43.758Z,0.0108260475,-0.0122132,0.9938694,0.23641968,-0.21176147,9.800766,2.999878,-16.404724,-37.39624,0.23722635,-0.21485405,9.801425,-0.0007929206,0.00068448484,-0.00033569336,9.1552734e-05,0.00015258789,-9.1552734e-05
2019-07-01T20:20:43.975Z,0.010802111,-0.012143011,0.9938745,0.23880005,-0.21559143,9.799561,2.7694702,-16.05072,-37.91809,0.23660173,-0.21354608,9.80147,-0.00065875053,0.0024913102,0.000248909,9.1552734e-05,3.0517578e-05,-3.0517578e-05
2019-07-01T20:20:44.274Z,0.010842375,-0.012178074,0.9938646,0.23832703,-0.21751404,9.800522,3.3538818,-15.652466,-37.330627,0.23747934,-0.21412332,9.801435,0.0018350482,-0.0014916211,-0.0012722015,-3.0517578e-05,0.00015258789,-0.0002746582
2019-07-01T20:20:44.479Z,0.0108330855,-0.012236683,0.993868,0.23857117,-0.21774292,9.801712,2.9052734,-16.169739,-40.28778,0.23741601,-0.2152943,9.801413,0.00021797419,-0.0022416115,0.00010585785,-9.1552734e-05,3.0517578e-05,-0.00016784668
2019-07-01T20:20:44.590Z,0.0108488025,-0.012290169,0.9938647,0.23832703,-0.21678162,9.800766,3.1097412,-15.438843,-38.78784,0.23784162,-0.21629773,9.801378,0.0007405579,-0.0016993433,0.0010309219,-3.0517578e-05,3.0517578e-05,3.0517578e-05
2019-07-01T20:20:44.795Z,0.010862852,-0.012294603,0.99386114,0.23857117,-0.21296692,9.801727,1.6555786,-15.609741,-38.68866,0.2381317,-0.21634664,9.801372,0.001168564,-0.00044584274,-0.000113487244,9.1552734e-05,9.1552734e-05,9.1552734e-05
2019-07-01T20:20:45.000Z,0.010870394,-0.012240863,0.9938583,0.23713684,-0.21511841,9.80101,3.0029297,-16.1026,-38.693237,0.23817028,-0.21527559,9.801394,0.00017981231,0.00228782,-0.0008687973,-0.00015258789,-9.1552734e-05,9.1552734e-05
2019-07-01T20:20:45.205Z,0.010854673,-0.012241826,0.9938624,0.23880005,-0.21296692,9.801956,2.7114868,-15.16571,-39.849854,0.2378581,-0.21533674,9.8014,-0.00071018934,0.00045244396,0.0010128021,-0.00015258789,3.0517578e-05,-3.0517578e-05
2019-07-01T20:20:45.411Z,0.0108747445,-0.012213498,0.9938567,0.23951721,-0.21368408,9.799561,2.9647827,-15.234375,-38.287354,0.23820007,-0.2147288,9.801405,0.0005952865,0.0015372187,0.0013198853,9.1552734e-05,-3.0517578e-05,-3.0517578e-05
2019-07-01T20:20:45.580Z,0.010908453,-0.012203253,0.9938477,0.24263,-0.21368408,9.8022,3.1951904,-15.361023,-38.700867,0.23885222,-0.21443762,9.801396,0.0009227097,0.00074134767,-0.0015068054,3.0517578e-05,3.0517578e-05,0.00021362305
2019-07-01T20:20:45.799Z,0.010949794,-0.012198157,0.9938368,0.23857117,-0.21487427,9.7986145,2.8671265,-15.757751,-37.408447,0.23966756,-0.21422637,9.80138,0.0020069927,6.403029e-05,0.0005865097,-9.1552734e-05,3.0517578e-05,3.0517578e-05
2019-07-01T20:20:45.992Z,0.01093813,-0.01220242,0.9938399,0.23904419,-0.21534729,9.803146,2.3513794,-16.296387,-38.253784,0.23944344,-0.21434122,9.801383,-0.00013054907,-0.00031086802,-0.0015354156,9.1552734e-05,9.1552734e-05,-0.00015258789
2019-07-01T20:20:46.194Z,0.0109291375,-0.012203413,0.9938423,0.23808289,-0.21607971,9.801483,3.5064697,-15.785217,-37.742615,0.23926583,-0.21438493,9.801387,2.4408102e-05,-0.0007351786,0.0018377304,9.1552734e-05,9.1552734e-05,9.1552734e-05
2019-07-01T20:20:46.398Z,0.010901158,-0.012226661,0.99385,0.23928833,-0.21511841,9.80101,4.3289185,-15.2908325,-38.204956,0.23875535,-0.21491496,9.801388,-0.0008968562,-0.00092463195,-0.00020885468,-9.1552734e-05,9.1552734e-05,-3.0517578e-05
2019-07-01T20:20:46.599Z,0.01089825,-0.01224838,0.9938511,0.23568726,-0.21487427,9.802444,3.239441,-16.386414,-37.55188,0.2387426,-0.21534747,9.801378,0.00031335652,-0.00049872696,-0.0006170273,-9.1552734e-05,3.0517578e-05,9.1552734e-05
2019-07-01T20:20:46.810Z,0.010854137,-0.012235394,0.99386245,0.23857117,-0.21534729,9.8022,3.036499,-15.374756,-38.24463,0.23783398,-0.2152124,9.801403,-0.0014355332,0.00081655383,0.0015125275,-3.0517578e-05,0.00015258789,-3.0517578e-05
2019-07-01T20:20:47.006Z,0.010847844,-0.012239009,0.9938642,0.2368927,-0.21440125,9.801483,2.7893066,-15.690613,-37.31537,0.23771577,-0.21530004,9.801404,0.0003605336,-0.00028543174,3.6239624e-05,0.00021362305,0.00015258789,-9.1552734e-05
2019-07-01T20:20:47.211Z,0.010842725,-0.012215223,0.9938651,0.23976135,-0.21606445,9.800278,2.0431519,-16.021729,-38.485718,0.23756386,-0.21484876,9.801418,0.00052045286,-0.00027096272,-0.0013103485,-9.1552734e-05,3.0517578e-05,1.5258789e-05
2019-07-01T20:20:47.413Z,0.010866756,-0.012245471,0.99385935,0.23857117,-0.21559143,9.799332,3.3340454,-16.01715,-37.782288,0.23810717,-0.21537547,9.8013935,0.0011867881,-0.0009382218,-0.00039577484,3.0517578e-05,0.00015258789,1.5258789e-05
2019-07-01T20:20:47.675Z,0.010867009,-0.012268331,0.99385965,0.237854,-0.21368408,9.799332,2.1316528,-15.875244,-38.00659,0.23815994,-0.21582174,9.801382,0.00042945147,-0.0009916574,-0.0010709763,-3.0517578e-05,-0.0001373291,-0.00021362305
2019-07-01T20:20:47.869Z,0.010870468,-0.012214599,0.99385786,0.23664856,-0.21606445,9.801956,2.8823853,-15.620422,-36.17401,0.23811689,-0.21476184,9.801406,-0.00047767162,0.0017684698,-0.00086688995,9.1552734e-05,9.1552734e-05,-3.0517578e-05
2019-07-01T20:20:48.065Z,0.010851162,-0.012224239,0.99386305,0.237854,-0.21440125,9.800766,3.2073975,-15.220642,-38.14392,0.23775123,-0.21500231,9.80141,-0.00036267936,-0.00013671815,0.00054073334,-0.00015258789,3.0517578e-05,1.5258789e-05
2019-07-01T20:20:48.271Z,0.010857994,-0.01222896,0.9938613,0.23617554,-0.21440125,9.8022,3.591919,-15.708923,-37.50305,0.23789763,-0.21507624,9.801405,0.00044213235,0.00043459237,0.000831604,-9.1552734e-05,3.0517578e-05,3.0517578e-05
2019-07-01T20:20:48.474Z,0.010820149,-0.012218028,0.99387103,0.23664856,-0.21463013,9.801483,3.0563354,-15.087891,-37.50763,0.23711859,-0.21496433,9.801426,-0.0014267713,0.00055894256,0.00071907043,-3.0517578e-05,9.1552734e-05,-3.0517578e-05
2019-07-01T20:20:48.678Z,0.010815319,-0.012209784,0.99387217,0.23760986,-0.21511841,9.800522,2.8793335,-15.312195,-38.375854,0.23700488,-0.21481615,9.801433,-0.00010751188,0.00018180907,-9.536743e-07,-3.0517578e-05,-3.0517578e-05,9.1552734e-05
2019-07-01T20:20:48.881Z,0.010827127,-0.012214761,0.9938692,0.23928833,-0.2163086,9.801483,2.0385742,-14.350891,-37.994385,0.2372512,-0.21488169,9.801425,0.0006092042,-0.0002425313,-0.00016498566,9.1552734e-05,9.1552734e-05,-9.1552734e-05
2019-07-01T20:20:49.088Z,0.010839896,-0.012250978,0.99386644,0.2368927,-0.21487427,9.800278,2.658081,-14.891052,-38.20343,0.23758192,-0.21555544,9.801402,0.0009964108,-0.0012479275,-0.000111579895,-0.00015258789,-3.0517578e-05,-4.5776367e-05
2019-07-01T20:20:49.290Z,0.010827357,-0.01224027,0.99386954,0.24023438,-0.21463013,9.8022,3.1982422,-15.516663,-37.597656,0.23730898,-0.21537982,9.801412,-0.00089226663,0.0009674132,-0.0003824234,-9.1552734e-05,9.1552734e-05,3.0517578e-05
2019-07-01T20:20:49.491Z,0.010889331,-0.012245787,0.99385345,0.23928833,-0.21583557,9.800995,3.2867432,-15.213013,-38.07068,0.23855895,-0.21532081,9.801383,0.0026358962,0.00020314753,0.0010271072,-9.1552734e-05,-9.1552734e-05,9.1552734e-05
2019-07-01T20:20:49.695Z,0.01089837,-0.012258199,0.99385124,0.23425293,-0.2141571,9.8022,3.453064,-15.205383,-37.547302,0.23876551,-0.21553913,9.8013735,0.0005290657,-5.7935715e-05,-0.0005950928,3.0517578e-05,9.1552734e-05,0.00015258789
2019-07-01T20:20:49.891Z,0.010815408,-0.012233363,0.9938725,0.237854,-0.21391296,9.8029175,2.3223877,-15.283203,-37.591553,0.23705582,-0.21527694,9.801421,-0.0030332059,0.0006481111,0.0007200241,3.0517578e-05,9.1552734e-05,1.5258789e-05
2019-07-01T20:20:50.102Z,0.010816815,-0.012203531,0.9938717,0.23545837,-0.21487427,9.800995,2.5283813,-15.994263,-38.046265,0.23702174,-0.21468985,9.8014345,8.131564e-05,0.0010225326,0.0014343262,-3.0517578e-05,-3.0517578e-05,3.0517578e-05
2019-07-01T20:20:50.303Z,0.010796544,-0.012206108,0.993877,0.23713684,-0.21534729,9.801727,2.6489258,-15.112305,-38.02185,0.23662205,-0.21479474,9.801442,-0.0006992668,-7.170439e-05,-0.00080394745,-3.0517578e-05,0.00015258789,0.00015258789
2019-07-01T20:20:50.505Z,0.010801488,-0.0122225685,0.993876,0.23521423,-0.21487427,9.801956,3.2485962,-16.0141,-38.534546,0.23675513,-0.21510328,9.801432,0.00085029006,-0.00048410892,-0.00037670135,-9.1552734e-05,3.0517578e-05,-9.1552734e-05
2019-07-01T20:20:50.703Z,0.010767263,-0.01220788,0.9938847,0.23713684,-0.21247864,9.8022,2.4520874,-15.852356,-38.08899,0.23604064,-0.21490802,9.801454,-0.0017904788,0.000509277,-8.4877014e-05,3.0517578e-05,-3.0517578e-05,3.0517578e-05
2019-07-01T20:20:50.911Z,0.010793611,-0.012183899,0.9938774,0.23808289,-0.21440125,9.803146,2.6184082,-15.844727,-37.7182,0.23651715,-0.21436837,9.801454,0.0013251752,0.0011831671,0.0007352829,3.0517578e-05,0.00015258789,9.1552734e-05
2019-07-01T20:20:51.114Z,0.010802814,-0.01217127,0.9938748,0.23641968,-0.21534729,9.8029175,3.37677,-14.990234,-37.950134,0.2366747,-0.21409671,9.8014555,0.00091943145,0.00042685866,0.00032138824,3.0517578e-05,0.00015258789,0.00015258789
2019-07-01T20:20:51.316Z,0.010789886,-0.012188285,0.9938784,0.23521423,-0.21391296,9.801239,3.6758423,-15.705872,-37.280273,0.23645185,-0.21446411,9.801453,-6.0379505e-05,-0.0011017174,0.0010118484,-3.0517578e-05,3.0517578e-05,-3.0517578e-05
2019-07-01T20:20:51.517Z,0.010760787,-0.012177222,0.9938859,0.2368927,-0.21368408,9.799561,2.1362305,-15.95459,-37.04071,0.23584735,-0.21432598,9.801471,-0.00089009106,0.00065355,-0.0012378693,-3.0517578e-05,3.0517578e-05,0.00015258789
2019-07-01T20:20:51.717Z,0.010785233,-0.012172011,0.9938794,0.23474121,-0.21296692,9.8029175,3.9123535,-15.609741,-38.250732,0.23632498,-0.21415843,9.801463,0.00081267953,0.00024472177,-0.0011510849,-3.0517578e-05,3.0517578e-05,-0.00021362305
2019-07-01T20:20:51.919Z,0.010764975,-0.0121808415,0.9938848,0.23760986,-0.21534729,9.8033905,2.9037476,-14.804077,-37.973022,0.2359386,-0.21438551,9.801468,-0.00027288496,-0.00092834234,0.0013551712,3.0517578e-05,-0.00021362305,-3.0517578e-05
2019-07-01T20:20:52.127Z,0.01079287,-0.012198134,0.9938778,0.23857117,-0.21606445,9.798843,2.105713,-16.308594,-38.77411,0.236532,-0.2146487,9.801447,0.0012851954,-0.00066520274,-5.4359436e-05,-3.0517578e-05,0.00015258789,-0.00015258789
2019-07-01T20:20:52.331Z,0.010812508,-0.012211725,0.99387294,0.2400055,-0.21343994,9.8029175,3.2714844,-15.579224,-37.91809,0.23695277,-0.21486165,9.801433,0.0013701767,-0.00048194826,-0.0027580261,-3.0517578e-05,0.00015258789,3.0517578e-05
2019-07-01T20:20:52.535Z,0.010842553,-0.012196955,0.99386483,0.23521423,-0.21200562,9.801239,3.8513184,-15.254211,-37.72278,0.23752229,-0.21449201,9.801426,0.0015070289,0.0010654926,0.0008773804,-3.0517578e-05,3.0517578e-05,-9.1552734e-05
2019-07-01T20:20:52.734Z,0.010813886,-0.01216517,0.9938718,0.23736572,-0.2172699,9.802444,2.8686523,-15.684509,-37.467957,0.2368832,-0.21394765,9.801454,-0.0009537786,0.0012266785,-0.0010137558,9.1552734e-05,9.1552734e-05,-3.0517578e-05
2019-07-01T20:20:52.935Z,0.010830468,-0.012213343,0.9938683,0.23808289,-0.21368408,9.801956,3.2318115,-16.38031,-38.456726,0.23731498,-0.21484494,9.801423,0.0012421757,-0.0021681488,0.00091552734,3.0517578e-05,9.1552734e-05,0.00015258789
2019-07-01T20:20:53.134Z,0.010823814,-0.01218174,0.9938695,0.23928833,-0.21583557,9.802444,3.6514282,-16.140747,-37.820435,0.23711611,-0.21424495,9.801441,-6.0796738e-06,0.0010733753,0.0010843277,-3.0517578e-05,3.0517578e-05,-9.1552734e-05
2019-07-01T20:20:53.338Z,0.010838222,-0.012216233,0.99386626,0.23832703,-0.21583557,9.8029175,3.3309937,-15.936279,-38.67035,0.23747598,-0.2148806,9.801419,0.0008225441,-0.0016463548,7.8201294e-05,0.00015258789,-3.0517578e-05,-9.1552734e-05
2019-07-01T20:20:53.542Z,0.010869478,-0.012222173,0.9938582,0.2368927,-0.21511841,9.801483,2.6260376,-15.698242,-37.687683,0.23811294,-0.2149126,9.801403,0.0009074658,-0.0004132241,-0.00042629242,9.1552734e-05,-3.0517578e-05,1.5258789e-05
2019-07-01T20:20:53.740Z,0.010846641,-0.012229048,0.9938643,0.23640442,-0.21343994,9.8033905,3.2577515,-15.7196045,-38.926697,0.23767094,-0.21510851,9.80141,-0.0010309815,-0.00071926415,-0.0012426376,0.00021362305,3.0517578e-05,-9.1552734e-05
2019-07-01T20:20:53.951Z,0.010832362,-0.012175362,0.99386716,0.23880005,-0.21296692,9.799561,1.7288208,-15.901184,-37.994385,0.23727362,-0.21409725,9.801441,-0.00040782988,0.0013987422,0.0015554428,-9.1552734e-05,0.00015258789,-0.00015258789
2019-07-01T20:20:54.154Z,0.010856888,-0.012178405,0.9938608,0.23951721,-0.21559143,9.804108,2.9052734,-14.805603,-37.820435,0.23777002,-0.21409073,9.80143,0.0017497987,0.00017541647,-0.0024785995,-3.0517578e-05,3.0517578e-05,-3.0517578e-05
2019-07-01T20:20:54.358Z,0.010873063,-0.012194721,0.99385685,0.23713684,-0.21487427,9.799332,2.9388428,-15.667725,-38.752747,0.23812728,-0.2143662,9.801415,0.0006466657,-0.0007287115,0.0023355484,9.1552734e-05,3.0517578e-05,-3.0517578e-05
2019-07-01T20:20:54.546Z,0.01085432,-0.012207401,0.993862,0.23736572,-0.21894836,9.800995,3.1188965,-15.29541,-38.456726,0.2377792,-0.2146646,9.801416,-0.0006428808,-0.00068221986,-0.0021066666,-0.00015258789,3.0517578e-05,-3.0517578e-05
2019-07-01T20:20:54.751Z,0.01084078,-0.012256348,0.99386626,0.2400055,-0.21511841,9.800522,2.156067,-15.365601,-37.828064,0.23761076,-0.21565805,9.801398,-0.00023467839,-0.0013770908,-0.00092315674,-3.0517578e-05,0.00021362305,3.0517578e-05
2019-07-01T20:20:54.953Z,0.0108563285,-0.012275567,0.9938625,0.23736572,-0.21583557,9.8033905,2.9769897,-15.020752,-37.413025,0.23796159,-0.215992,9.801383,0.0015575439,-0.0003183335,0.00065231323,-0.00015258789,3.0517578e-05,-3.0517578e-05
2019-07-01T20:20:55.157Z,0.01086193,-0.012295328,0.9938614,0.2400055,-0.21534729,9.798843,3.2852173,-15.441895,-36.831665,0.23811477,-0.21636328,9.801371,0.00020481646,6.145239e-05,0.0007677078,-0.00021362305,9.1552734e-05,-3.0517578e-05
2019-07-01T20:20:55.368Z,0.0108755175,-0.012270533,0.99385744,0.237854,-0.21559143,9.799088,3.0197144,-15.815735,-37.88147,0.23833457,-0.21584187,9.801377,0.0009712875,0.0016689152,-0.0020418167,-9.1552734e-05,3.0517578e-05,-0.00010681152
2019-07-01T20:20:55.573Z,0.010880378,-0.0122899385,0.9938565,0.23736572,-0.21534729,9.801239,3.894043,-16.125488,-37.677002,0.23847224,-0.21620823,9.801367,-0.00011508167,-0.00037181377,-0.0010404587,-9.1552734e-05,-3.0517578e-05,3.0517578e-05
2019-07-01T20:20:55.777Z,0.010845391,-0.012268092,0.99386525,0.23832703,-0.21391296,9.806274,3.9733887,-15.814209,-39.42871,0.23772743,-0.21587528,9.801392,-0.0013148785,0.0009936243,0.0018615723,-0.00015258789,3.0517578e-05,3.0517578e-05
2019-07-01T20:20:55.978Z,0.010857842,-0.012248999,0.99386173,0.23976135,-0.21751404,9.8033905,3.6514282,-15.608215,-40.73181,0.23793639,-0.21546844,9.801394,0.0008355975,0.0010926127,0.0029907227,-0.00015258789,3.0517578e-05,-0.00015258789
2019-07-01T20:20:56.284Z,0.010894004,-0.012285769,0.99385285,0.23904419,-0.21702576,9.801727,3.7445068,-15.689087,-38.7146,0.23873582,-0.21608996,9.801362,0.0017108172,-0.00067804754,0.00024700165,-3.0517578e-05,-3.0517578e-05,-3.0517578e-05
2019-07-01T20:20:56.490Z,0.01089604,-0.0122919865,0.99385244,0.23760986,-0.21391296,9.800522,2.8839111,-15.090942,-38.783264,0.2387895,-0.21620604,9.801358,-0.0002425313,-8.0645084e-05,-0.0006246567,-9.1552734e-05,9.1552734e-05,7.6293945e-05
2019-07-01T20:20:56.695Z,0.01086827,-0.012279731,0.99385947,0.23951721,-0.21583557,9.801956,4.2022705,-16.241455,-38.693237,0.2382089,-0.21604124,9.801375,-0.0008520633,0.00093089044,-0.0012187958,-3.0517578e-05,-3.0517578e-05,-9.1552734e-05
2019-07-01T20:20:56.900Z,0.01090815,-0.012279414,0.99384904,0.24047852,-0.21607971,9.800049,2.494812,-14.9002075,-38.42621,0.23900525,-0.21592756,9.801359,0.0017082393,-0.00012862682,-2.2888184e-05,0.0002746582,9.1552734e-05,-4.5776367e-05
2019-07-01T20:20:56.991Z,0.010920968,-0.012266051,0.99384546,0.23736572,-0.21440125,9.800278,2.633667,-15.325928,-38.819885,0.23923348,-0.2156317,9.80136,0.0005362928,3.2663345e-05,-0.0014543533,-9.1552734e-05,-3.0517578e-05,3.0517578e-05
2019-07-01T20:20:57.196Z,0.010884101,-0.012266617,0.9938551,0.237854,-0.21702576,9.801483,2.0599365,-15.733337,-37.973022,0.23849791,-0.21574219,9.801375,-0.0013520569,0.00037148595,-1.04904175e-05,-0.00021362305,-3.0517578e-05,-3.0517578e-05
2019-07-01T20:20:57.405Z,0.010870534,-0.01227212,0.99385875,0.23617554,-0.21463013,9.801239,2.960205,-15.155029,-38.876343,0.2382383,-0.21588635,9.801379,-0.0008672178,0.000290066,0.00032520294,-9.1552734e-05,9.1552734e-05,0.00015258789
2019-07-01T20:20:57.596Z,0.0108422,-0.012269626,0.99386615,0.23904419,-0.21702576,9.803879,3.3554077,-15.50293,-37.979126,0.23766685,-0.21591388,9.801392,-0.00054237247,-0.00016847253,0.00021076202,3.0517578e-05,-3.0517578e-05,9.1552734e-05
2019-07-01T20:20:57.803Z,0.010855941,-0.012287728,0.99386287,0.23928833,-0.21536255,9.801712,2.2140503,-15.8706665,-37.70752,0.23797922,-0.21623081,9.801377,0.00057166815,-0.00030347705,0.0018939972,-3.0517578e-05,3.0517578e-05,9.1552734e-05
2019-07-01T20:20:58.008Z,0.010892221,-0.012279841,0.9938532,0.24047852,-0.21559143,9.802673,2.1453857,-15.657043,-37.586975,0.23868778,-0.21597885,9.801365,0.0015299767,0.0006313026,-0.00033473969,-9.1552734e-05,9.1552734e-05,3.0517578e-05
2019-07-01T20:20:58.211Z,0.010899899,-0.012279973,0.99385124,0.23857117,-0.21224976,9.8029175,2.9541016,-15.455627,-37.878418,0.23884153,-0.21596077,9.801363,0.00042890012,0.00038550794,0.0001039505,-3.0517578e-05,9.1552734e-05,-3.0517578e-05
2019-07-01T20:20:58.439Z,0.010844227,-0.01219876,0.9938644,0.23808289,-0.2163086,9.802429,2.4002075,-17.02118,-38.476562,0.23755951,-0.21452281,9.801425,-0.00190413,0.00063863397,0.00042152405,9.1552734e-05,-9.1552734e-05,3.0517578e-05
2019-07-01T20:20:58.615Z,0.010895483,-0.012254228,0.99385196,0.23880005,-0.21846008,9.8029175,2.770996,-16.055298,-37.539673,0.23869954,-0.21546927,9.801377,0.0017464161,-0.0020153522,-4.1007996e-05,-9.1552734e-05,0.00015258789,9.1552734e-05
2019-07-01T20:20:58.809Z,0.010846007,-0.012304375,0.9938657,0.23783875,-0.21534729,9.801712,3.1173706,-15.368652,-38.320923,0.2378154,-0.21658304,9.8013735,-0.00094918907,-0.0018528998,-0.0005092621,-9.1552734e-05,-9.1552734e-05,0.0002593994
2019-07-01T20:20:59.015Z,0.010877289,-0.012281599,0.99385715,0.2400055,-0.21511841,9.80101,2.8625488,-15.905762,-37.060547,0.23839307,-0.2160535,9.801372,0.00063078105,0.0014418066,-0.00049495697,-0.00015258789,-9.1552734e-05,1.5258789e-05
2019-07-01T20:20:59.219Z,0.010905863,-0.012284206,0.99384975,0.24023438,-0.21679688,9.801712,2.6504517,-15.115356,-37.87079,0.23896953,-0.21602741,9.801357,0.00078493357,0.00044220686,-0.0011177063,-0.00015258789,3.0517578e-05,0.00021362305
2019-07-01T20:20:59.419Z,0.0109248115,-0.012280993,0.99384475,0.23736572,-0.21296692,9.801956,2.2262573,-15.499878,-38.386536,0.23934151,-0.21591349,9.801352,0.0011215806,0.00080899894,0.0006904602,-3.0517578e-05,3.0517578e-05,9.1552734e-05
2019-07-01T20:20:59.630Z,0.010897193,-0.0122449715,0.99385136,0.23713684,-0.21583557,9.801712,2.5238037,-16.064453,-38.438416,0.23871437,-0.21528368,9.801381,-0.001122877,0.001616165,0.00030994415,-9.1552734e-05,-3.0517578e-05,0.0001373291
2019-07-01T20:20:59.839Z,0.010862465,-0.012264136,0.9938607,0.24024963,-0.21559143,9.801483,1.3427734,-15.489197,-38.12256,0.23806037,-0.21575198,9.801386,-0.0016534925,-0.0007891506,-0.00043010712,-0.00015258789,-3.0517578e-05,9.1552734e-05
2019-07-01T20:21:00.039Z,0.010902583,-0.012289082,0.99385065,0.23857117,-0.21583557,9.802444,2.5131226,-16.433716,-37.7594,0.23891418,-0.21613161,9.801357,0.0018043816,7.086992e-05,-0.00076007843,-0.00015258789,0.00015258789,9.1552734e-05
2019-07-01T20:21:00.236Z,0.01088597,-0.012287403,0.993855,0.23904419,-0.2163086,9.803879,2.4841309,-15.194702,-38.034058,0.23857866,-0.21614358,9.801365,-0.00051292777,0.000323534,0.0010919571,3.0517578e-05,-0.00019836426,0.00021362305
2019-07-01T20:21:00.442Z,0.010895459,-0.012276684,0.9938523,0.23760986,-0.21751404,9.8022,2.8778076,-15.312195,-38.450623,0.23874593,-0.21590841,9.801366,2.2381544e-05,0.000574559,0.0012102127,9.1552734e-05,0.00015258789,-0.00015258789
2019-07-01T20:21:00.639Z,0.010871879,-0.0122985905,0.9938589,0.23713684,-0.21583557,9.801239,3.7628174,-15.551758,-37.254333,0.2383204,-0.21640027,9.801365,-0.00073854625,-0.0015613586,-0.00031757355,-3.0517578e-05,-3.0517578e-05,0.00015258789
2019-07-01T20:21:00.850Z,0.010859902,-0.0122812595,0.9938617,0.23904419,-0.21559143,9.800995,2.6367188,-15.405273,-37.930298,0.23804487,-0.21609366,9.801378,-0.00045236945,0.00051799417,-0.0008544922,0.00015258789,3.0517578e-05,3.0517578e-05
2019-07-01T20:21:01.050Z,0.010859814,-0.012271156,0.99386156,0.23760986,-0.21559143,9.803864,3.3203125,-16.15448,-38.867188,0.23802204,-0.21589637,9.801384,0.00029842556,0.00031089783,-0.00088882446,-9.1552734e-05,3.0517578e-05,0.00015258789
2019-07-01T20:21:01.251Z,0.0108630285,-0.012259372,0.99386054,0.23736572,-0.2172699,9.801712,2.8762817,-15.386963,-38.012695,0.23806168,-0.2156573,9.801388,0.00023899972,0.00056275725,0.0016355515,-3.0517578e-05,-3.0517578e-05,0.00015258789
2019-07-01T20:21:01.452Z,0.010843566,-0.012306381,0.9938664,0.23713684,-0.2163086,9.804352,3.3432007,-15.643311,-38.763428,0.23777078,-0.21662882,9.801373,-0.0009083152,-0.0020478666,0.00029850006,9.1552734e-05,3.0517578e-05,0.00015258789
2019-07-01T20:21:01.655Z,0.010835307,-0.012293287,0.9938683,0.23808289,-0.21606445,9.801956,2.015686,-15.011597,-37.449646,0.23757845,-0.21639505,9.801384,-0.00024704635,0.00059075654,0.00036144257,-9.1552734e-05,-9.1552734e-05,9.1552734e-05
2019-07-01T20:21:01.856Z,0.010856884,-0.012293224,0.9938627,0.23976135,-0.21655273,9.803879,2.6000977,-16.207886,-38.243103,0.23800953,-0.21633574,9.801374,0.0003014654,0.00028587878,-0.0015134811,-3.0517578e-05,-9.1552734e-05,0.00015258789
2019-07-01T20:21:02.060Z,0.010886744,-0.012293741,0.9938549,0.23928833,-0.2131958,9.8033905,2.1530151,-15.362549,-38.204956,0.23860736,-0.21626541,9.801361,0.0011188686,0.00046168268,0.0015478134,-3.0517578e-05,-3.0517578e-05,-0.00015258789
2019-07-01T20:21:02.285Z,0.010898682,-0.012247985,0.993851,0.23760986,-0.21678162,9.801483,3.3737183,-15.063477,-37.965393,0.2387504,-0.21533857,9.801378,-0.00022640824,0.0019411892,0.001036644,-9.1552734e-05,-0.00019836426,9.1552734e-05
2019-07-01T20:21:02.469Z,0.010905329,-0.012275684,0.99384975,0.23928833,-0.21751404,9.803162,3.050232,-15.084839,-38.11035,0.23894109,-0.21586223,9.801362,-0.00017166138,-0.0008917153,-0.0013790131,3.0517578e-05,3.0517578e-05,0.00021362305
2019-07-01T20:21:02.668Z,0.010884859,-0.012306491,0.9938556,0.23857117,-0.21606445,9.801239,4.0878296,-15.609741,-36.672974,0.23859632,-0.21651979,9.801356,-0.00030632317,-0.0011895299,0.0005130768,-9.1552734e-05,-9.1552734e-05,0.00038146973
2019-07-01T20:21:02.875Z,0.01090155,-0.012312269,0.9938513,0.2368927,-0.21368408,9.801712,3.1204224,-15.446472,-37.582397,0.23894194,-0.21658775,9.801346,0.0005591363,4.965067e-05,-0.0017309189,-9.1552734e-05,-3.0517578e-05,0.0002593994
2019-07-01T20:21:03.074Z,0.010870232,-0.012260201,0.99385864,0.23951721,-0.21679688,9.802673,1.5518188,-16.125488,-38.713074,0.23820737,-0.2156541,9.801384,-0.0018042475,0.0024732947,0.00013446808,-0.00015258789,-3.0517578e-05,3.0517578e-05
2019-07-01T20:21:03.279Z,0.0108862035,-0.012291338,0.993855,0.23951721,-0.2141571,9.800522,3.086853,-16.02478,-38.604736,0.23859155,-0.21621989,9.801363,0.00067292154,-0.00031122565,0.0005750656,-0.00021362305,3.0517578e-05,-3.0517578e-05
2019-07-01T20:21:03.483Z,0.01090957,-0.01227783,0.9938487,0.24047852,-0.21655273,9.801956,2.1987915,-16.236877,-37.78076,0.23903032,-0.21589276,9.801359,0.000723958,0.0012690127,-0.0013713837,-9.1552734e-05,-3.0517578e-05,-0.00035095215
2019-07-01T20:21:03.681Z,0.010920483,-0.012275066,0.99384576,0.23976135,-0.21511841,9.800995,2.8747559,-15.461731,-37.876892,0.23924261,-0.21580927,9.801355,0.00075122714,0.00047250092,0.0003671646,-0.00021362305,-9.1552734e-05,-3.0517578e-05
2019-07-01T20:21:03.884Z,0.010949147,-0.012289347,0.9938385,0.23976135,-0.21440125,9.8029175,2.180481,-14.701843,-38.29956,0.23984529,-0.21601114,9.801337,0.0008664131,0.00042955577,-7.1525574e-05,-9.1552734e-05,3.0517578e-05,3.0517578e-05
2019-07-01T20:21:04.091Z,0.01093304,-0.012257062,0.9938422,0.23832703,-0.21534729,9.800766,2.9510498,-15.376282,-38.694763,0.23945592,-0.21542336,9.801359,-0.0011405051,0.0015208572,0.00012111664,-9.1552734e-05,-9.1552734e-05,3.0517578e-05
2019-07-01T20:21:04.292Z,0.010907375,-0.0122668,0.99384904,0.23664856,-0.21534729,9.799561,3.0563354,-14.860535,-38.594055,0.2389634,-0.215683,9.801365,-0.0011140257,-0.0006214231,-0.0005598068,9.1552734e-05,-3.0517578e-05,-9.1552734e-05
2019-07-01T20:21:04.500Z,0.01088184,-0.012248436,0.9938554,0.23712158,-0.21606445,9.802673,3.9031982,-15.753174,-38.430786,0.2384148,-0.21539278,9.801385,-0.0012621135,0.00026006997,-0.0016469955,-3.0517578e-05,3.0517578e-05,9.1552734e-05
2019-07-01T20:21:04.700Z,0.010872487,-0.012304836,0.9938588,0.23951721,-0.21751404,9.800522,2.9281616,-15.887451,-38.720703,0.23840486,-0.21619967,9.801368,-1.7091632e-05,-3.3318996e-05,-0.0007791519,-0.00015258789,-3.0517578e-05,9.1552734e-05
2019-07-01T20:21:04.921Z,0.010908185,-0.012283816,0.9938491,0.237854,-0.21655273,9.8033905,2.4139404,-15.136719,-36.88507,0.23901515,-0.21601355,9.801357,0.0014653057,0.0013816655,-3.9100647e-05,0.00015258789,9.1552734e-05,-9.1552734e-05
2019-07-01T20:21:05.115Z,0.010874176,-0.012260702,0.9938576,0.23713684,-0.21463013,9.8022,2.7389526,-14.962769,-37.61902,0.23828724,-0.21565327,9.801382,-0.00092482567,-0.00065232813,0.0004377365,0.00010681152,7.6293945e-05,1.5258789e-05
2019-07-01T20:21:05.368Z,0.010871212,-0.0122431815,0.9938581,0.24287415,-0.21702576,9.802673,2.357483,-16.148376,-38.372803,0.23819143,-0.21531868,9.801392,0.000119134784,0.0004592985,0.0010919571,4.5776367e-05,7.6293945e-05,-4.5776367e-05
2019-07-01T20:21:05.559Z,0.010927821,-0.012280765,0.9938439,0.23760986,-0.21487427,9.804108,1.876831,-16.030884,-38.783264,0.23940116,-0.2159009,9.80135,0.002248928,-0.0011080801,8.869171e-05,-1.5258789e-05,-9.1552734e-05,7.6293945e-05
2019-07-01T20:21:05.763Z,0.010894169,-0.012258918,0.9938524,0.23713684,-0.2163086,9.800766,2.670288,-14.750671,-37.345886,0.23868304,-0.2155645,9.801374,-0.0013476163,0.0007175952,0.0010156631,-0.0001373291,0.00019836426,0.0001373291
2019-07-01T20:21:05.967Z,0.010856505,-0.0122837415,0.9938626,0.237854,-0.21846008,9.8029175,2.0492554,-15.875244,-38.456726,0.23798217,-0.21615136,9.801379,-0.00063943863,-0.0008535236,-0.0005979538,4.5776367e-05,1.5258789e-05,-6.1035156e-05
2019-07-01T20:21:06.165Z,0.010868745,-0.012308884,0.9938598,0.23880005,-0.21583557,9.802673,2.8823853,-15.316772,-37.8479,0.23827925,-0.21661,9.801362,0.00025993586,-0.0008749664,0.0007133484,-1.5258789e-05,-4.5776367e-05,6.1035156e-05
2019-07-01T20:21:06.393Z,0.01087328,-0.01230088,0.9938585,0.2400055,-0.21702576,9.800522,2.7114868,-15.470886,-38.09967,0.23835321,-0.21644127,9.801364,0.0001898408,0.00015820563,-0.0003194809,4.5776367e-05,-0.00015258789,-0.00010681152
2019-07-01T20:21:06.570Z,0.010901351,-0.012316189,0.9938514,0.23760986,-0.21559143,9.800766,2.682495,-16.281128,-37.358093,0.23894615,-0.21666493,9.801344,0.00080281496,-0.00059373677,-0.0013303757,0.00022888184,1.5258789e-05,0.00024414062
2019-07-01T20:21:06.775Z,0.010894538,-0.012274594,0.99385256,0.23808289,-0.2141571,9.79837,3.0914307,-16.105652,-37.56256,0.23872317,-0.21587004,9.801368,-0.000637576,0.0007491708,-0.0012073517,4.5776367e-05,7.6293945e-05,1.5258789e-05
2019-07-01T20:21:06.978Z,0.0108711785,-0.012244318,0.99385816,0.23832703,-0.21296692,9.800049,2.947998,-15.525818,-38.345337,0.23819314,-0.215341,9.801392,-0.0008046776,0.00091920793,-0.0016126633,0.00010681152,-0.00015258789,-4.5776367e-05
2019-07-01T20:21:07.252Z,0.010889978,-0.012183291,0.9938522,0.23928833,-0.21464539,9.801727,4.551697,-15.483093,-39.385986,0.23844138,-0.21409711,9.801414,0.00014851987,0.001830548,0.0003671646,-1.5258789e-05,0.0001373291,-0.00016784668
2019-07-01T20:21:07.458Z,0.010889492,-0.012201261,0.9938527,0.23904419,-0.21583557,9.8033905,3.4683228,-16.131592,-40.4541,0.23846917,-0.21444976,9.801404,0.00034460425,-0.00043682754,0.0003976822,0.00016784668,7.6293945e-05,1.5258789e-05
2019-07-01T20:21:07.600Z,0.010894736,-0.012230432,0.9938518,0.23664856,-0.21391296,9.8022,3.2943726,-14.915466,-38.764954,0.23863488,-0.215006,9.801388,0.00065374374,-0.0015470088,0.0010538101,-0.0001373291,1.5258789e-05,-4.5776367e-05
2019-07-01T20:21:07.805Z,0.010863679,-0.012199672,0.99385935,0.23713684,-0.2131958,9.799805,3.1204224,-15.29541,-38.456726,0.2379501,-0.21448827,9.801416,-0.0013091564,0.0012993366,0.00071430206,-0.0001373291,-4.5776367e-05,-0.00030517578
2019-07-01T20:21:08.010Z,0.010857867,-0.012198207,0.99386084,0.23951721,-0.21607971,9.802673,3.9245605,-15.316772,-38.19275,0.23783089,-0.21447526,9.801419,-0.00021874905,0.00031612813,-0.00080394745,-1.5258789e-05,0.0001373291,-6.1035156e-05
2019-07-01T20:21:08.215Z,0.010870654,-0.012219697,0.99385786,0.23976135,-0.21606445,9.799561,3.1326294,-15.081787,-37.809753,0.23813127,-0.21486102,9.801404,0.001151815,-0.00048156083,0.00058078766,0.00016784668,0.0001373291,-6.1035156e-05
2019-07-01T20:21:08.420Z,0.010884704,-0.012231483,0.9938544,0.23474121,-0.21607971,9.800766,3.819275,-15.830994,-38.519287,0.23843664,-0.21505362,9.801393,0.0010915697,-0.0007918775,-0.0013799667,-7.6293945e-05,0.0001373291,-4.5776367e-05
2019-07-01T20:21:08.605Z,0.010813074,-0.012244546,0.9938733,0.23808289,-0.21583557,9.800278,3.1906128,-15.432739,-38.938904,0.2370325,-0.21550184,9.801416,-0.0025206506,-0.0010643303,-0.00028324127,4.5776367e-05,0.0001373291,-0.00022888184
2019-07-01T20:21:08.802Z,0.010821546,-0.01225227,0.9938712,0.2368927,-0.21702576,9.801239,2.7297974,-15.180969,-37.513733,0.23721793,-0.2156301,9.80141,0.00087980926,-0.00021897256,-2.9563904e-05,0.00010681152,-9.1552734e-05,-0.00018310547
2019-07-01T20:21:09.004Z,0.010832618,-0.012270568,0.99386865,0.23880005,-0.21678162,9.801956,2.3651123,-16.151428,-37.921143,0.23747732,-0.21595806,9.801395,0.00062026083,-0.0010810643,-2.3841858e-05,0.00010681152,0.00019836426,-0.00010681152
2019-07-01T20:21:09.209Z,0.010834043,-0.012265171,0.9938682,0.23760986,-0.21343994,9.8029175,2.0339966,-16.242981,-38.453674,0.23749453,-0.2158487,9.801397,0.00011664629,1.1920929e-05,0.0011014938,-1.5258789e-05,1.5258789e-05,-0.00030517578
2019-07-01T20:21:09.415Z,0.010829807,-0.012239214,0.9938689,0.23928833,-0.21678162,9.803162,2.7633667,-14.300537,-38.165283,0.23735575,-0.21535258,9.801412,0.00023718178,0.0009666681,0.0015239716,-7.6293945e-05,1.5258789e-05,-0.00016784668
2019-07-01T20:21:09.615Z,0.0108390255,-0.012231552,0.9938663,0.237854,-0.21583557,9.804352,2.3773193,-15.861511,-37.409973,0.23752399,-0.21517797,9.801412,-0.0008761734,0.0014945567,-0.0013933182,4.5776367e-05,0.00019836426,-0.00016784668
2019-07-01T20:21:09.808Z,0.01082495,-0.012244191,0.9938702,0.23760986,-0.21272278,9.801956,3.0319214,-15.525818,-37.971497,0.23726907,-0.21546295,9.801411,0.0003106296,-0.00057412684,0.0024118423,-1.5258789e-05,-4.5776367e-05,-0.00010681152
2019-07-01T20:21:10.013Z,0.010837057,-0.012212501,0.99386656,0.23857117,-0.21607971,9.800278,2.6504517,-14.883423,-39.18457,0.23744489,-0.21481076,9.801421,0.00014649332,0.0011433959,-0.00094509125,-0.0001373291,7.6293945e-05,1.5258789e-05
2019-07-01T20:21:10.232Z,0.010837019,-0.012235228,0.9938669,0.2368927,-0.21583557,9.801483,3.2302856,-14.860535,-37.164307,0.23749158,-0.21525525,9.801411,0.00035710633,-0.00057551265,-0.0011081696,4.5776367e-05,1.5258789e-05,0.0001373291
2019-07-01T20:21:10.424Z,0.010848469,-0.012239642,0.993864,0.23857117,-0.21343994,9.802429,3.4317017,-15.415955,-39.022827,0.2377296,-0.21531075,9.801404,0.00012220442,0.00019432604,-0.00025558472,-0.0001373291,0.0001373291,-6.1035156e-05
2019-07-01T20:21:10.633Z,0.010844122,-0.012211741,0.99386466,0.23545837,-0.21559143,9.8022,3.0960083,-14.215088,-37.028503,0.2375845,-0.2147769,9.801419,0.0002579987,0.00087434053,0.0007801056,4.5776367e-05,1.5258789e-05,-4.5776367e-05
2019-07-01T20:21:10.889Z,0.010801862,-0.012228353,0.993876,0.23808289,-0.21559143,9.8029175,2.206421,-15.937805,-38.475037,0.2367747,-0.21521538,9.80143,-0.001331836,-0.00060608983,0.00035762787,-7.6293945e-05,7.6293945e-05,-0.00018310547
2019-07-01T20:21:11.085Z,0.01081051,-0.0122284405,0.9938737,0.23760986,-0.2141571,9.803635,2.5268555,-15.991211,-38.34839,0.23694767,-0.21519384,9.801425,0.0008857697,9.410083e-05,0.0003976822,4.5776367e-05,7.6293945e-05,6.1035156e-05
2019-07-01T20:21:11.287Z,0.01084146,-0.012211606,0.9938654,0.2400055,-0.21440125,9.800278,3.6331177,-16.351318,-38.8443,0.23753104,-0.21478142,9.80142,0.0012410432,0.0004054606,0.0005874634,4.5776367e-05,7.6293945e-05,-0.00010681152
2019-07-01T20:21:11.491Z,0.010868282,-0.0121936975,0.9938581,0.23808289,-0.21440125,9.800766,2.9663086,-15.238953,-37.609863,0.2380296,-0.21435905,9.801417,0.0012491941,0.0009276867,-0.0015325546,0.00010681152,7.6293945e-05,1.5258789e-05
2019-07-01T20:21:11.691Z,0.010874023,-0.01221687,0.99385697,0.237854,-0.21894836,9.801712,2.357483,-16.14685,-38.44757,0.23819269,-0.21479666,9.801404,0.00060397387,-0.0012800097,-0.00054836273,0.00016784668,0.0001373291,6.1035156e-05
2019-07-01T20:21:11.896Z,0.010833961,-0.01226235,0.9938682,0.23808289,-0.21391296,9.8029175,3.3706665,-15.211487,-37.771606,0.23748703,-0.21579379,9.801399,-0.00085124373,-0.002410546,0.000746727,-1.5258789e-05,-4.5776367e-05,-0.00010681152
2019-07-01T20:21:12.102Z,0.01084965,-0.012232898,0.9938636,0.23808289,-0.21463013,9.801239,3.3813477,-14.840698,-38.37433,0.2377391,-0.21517567,9.801406,0.00032702088,0.001277864,0.00034713745,0.00010681152,-9.1552734e-05,-0.00010681152
2019-07-01T20:21:12.301Z,0.010874686,-0.012224428,0.9938569,0.23713684,-0.21559143,9.798843,2.1743774,-16.671753,-38.397217,0.23822169,-0.21494265,9.801399,0.00057412684,-0.0001719296,-0.0010519028,4.5776367e-05,7.6293945e-05,-0.00010681152
2019-07-01T20:21:12.501Z,0.010848407,-0.012225594,0.99386376,0.23808289,-0.21247864,9.800278,2.7175903,-15.322876,-38.371277,0.23769903,-0.21503624,9.801411,-0.000790298,-0.00032557547,-0.0016613007,4.5776367e-05,7.6293945e-05,-6.1035156e-05
2019-07-01T20:21:12.702Z,0.0108572785,-0.012200826,0.9938611,0.2400055,-0.21440125,9.800766,2.2994995,-15.8706665,-37.18109,0.2378246,-0.21452805,9.801418,0.0007531196,0.0010684133,-0.00047016144,-0.00019836426,1.5258789e-05,-0.00022888184
2019-07-01T20:21:12.905Z,0.010898551,-0.01218873,0.99385005,0.2368927,-0.2141571,9.799805,2.720642,-15.478516,-36.96747,0.23862402,-0.21418034,9.801407,0.0014032274,0.0014380366,8.583069e-06,-0.0001373291,7.6293945e-05,-0.00016784668
2019-07-01T20:21:13.117Z,0.010866554,-0.012177402,0.9938583,0.23760986,-0.21559143,9.800766,2.3925781,-15.570068,-37.425232,0.23796105,-0.21404509,9.801426,-0.00081168115,0.00033602118,-0.00047588348,0.00016784668,0.0001373291,-4.5776367e-05
2019-07-01T20:21:13.315Z,0.010844641,-0.012214284,0.9938646,0.23855591,-0.21391296,9.801727,2.935791,-15.742493,-38.69171,0.2376002,-0.21482526,9.801418,-0.00020705163,-0.001752302,-7.6293945e-06,-7.6293945e-05,0.0001373291,-0.00018310547
2019-07-01T20:21:13.512Z,0.01083596,-0.012210146,0.9938668,0.23664856,-0.21655273,9.801956,2.9129028,-14.506531,-38.516235,0.23741807,-0.21476768,9.801423,0.00019805133,0.000360772,0.0017528534,4.5776367e-05,0.0001373291,-0.00010681152
2019-07-01T20:21:13.719Z,0.010827983,-0.012227843,0.9938692,0.23664856,-0.21607971,9.803162,3.1143188,-15.441895,-38.259888,0.23729557,-0.21513514,9.801417,6.596744e-05,-0.0011696368,0.0008382797,-1.5258789e-05,7.6293945e-05,0.0001373291
2019-07-01T20:21:13.920Z,0.010805086,-0.0122488225,0.9938755,0.23953247,-0.21343994,9.8033905,2.5878906,-16.348267,-38.876343,0.23688179,-0.21560694,9.801418,-0.00048658252,-0.00067938864,0.0016775131,-1.5258789e-05,1.5258789e-05,1.5258789e-05
2019-07-01T20:21:14.127Z,0.0108515,-0.012214926,0.9938628,0.23760986,-0.21583557,9.800278,2.6046753,-16.212463,-37.64038,0.23773858,-0.21481933,9.8014145,0.0020019263,0.0016423613,-0.00031757355,-7.6293945e-05,0.0001373291,-0.00022888184
2019-07-01T20:21:14.329Z,0.010826598,-0.0122421915,0.9938698,0.23832703,-0.21607971,9.801239,2.7542114,-16.416931,-37.765503,0.23776785,-0.21526562,9.801403,-0.0004081279,-0.0011305809,-0.0014867783,-1.5258789e-05,7.6293945e-05,0.00024414062
2019-07-01T20:21:14.591Z,0.010868209,-0.012241094,0.9938589,0.23641968,-0.21679688,9.801483,3.3599854,-15.354919,-38.17749,0.23812708,-0.21528597,9.801394,0.00039850175,0.0001949966,0.0019521713,4.5776367e-05,1.5258789e-05,7.6293945e-05
2019-07-01T20:21:14.791Z,0.010841248,-0.012251522,0.9938661,0.23928833,-0.2131958,9.8022,2.1392822,-15.80658,-37.539673,0.23761003,-0.21556245,9.8014,-0.0009880215,-0.00049318373,-0.00029563904,-1.5258789e-05,0.0001373291,-0.00022888184
2019-07-01T20:21:14.989Z,0.010866353,-0.012236064,0.9938593,0.23641968,-0.21559143,9.799332,2.2903442,-16.0141,-37.51068,0.23807949,-0.21519262,9.801397,0.0019093156,0.00080646574,-0.0008459091,-1.5258789e-05,0.00019836426,-0.00010681152
2019-07-01T20:21:15.191Z,0.010819395,-0.012230261,0.99387145,0.237854,-0.21655273,9.799805,3.1066895,-15.586853,-38.516235,0.23712903,-0.21520555,9.801421,-0.0014205426,-0.0003913045,-0.0018424988,0.00016784668,1.5258789e-05,7.6293945e-05
2019-07-01T20:21:15.396Z,0.010831387,-0.012223514,0.9938682,0.23880005,-0.21534729,9.803879,3.465271,-14.608765,-39.237976,0.23735459,-0.21504137,9.801419,0.00073739886,-8.529425e-05,-0.00027751923,4.5776367e-05,7.6293945e-05,-0.00010681152
2019-07-01T20:21:15.599Z,0.01085083,-0.012252028,0.9938636,0.23976135,-0.21440125,9.798126,3.1661987,-16.018677,-38.83362,0.2378026,-0.21554655,9.801396,0.001229167,-0.0009949058,0.0017251968,-1.5258789e-05,0.00019836426,1.5258789e-05
2019-07-01T20:21:15.799Z,0.0108549725,-0.012226807,0.9938621,0.23712158,-0.21463013,9.798126,2.709961,-15.467834,-38.40027,0.23783273,-0.21504223,9.801406,0.000754714,0.0011145473,-0.0023651123,-1.5258789e-05,0.0001373291,-0.00010681152
2019-07-01T20:21:15.998Z,0.0108490065,-0.012217333,0.9938635,0.23976135,-0.2131958,9.799561,2.0385742,-16.09497,-38.650513,0.23769379,-0.21487309,9.8014145,-4.2662024e-05,-3.84748e-05,-0.0020599365,4.5776367e-05,-9.1552734e-05,0.0001373291
2019-07-01T20:21:16.204Z,0.0109042935,-0.012189897,0.9938486,0.23951721,-0.21440125,9.801727,2.496338,-16.648865,-38.55591,0.23874117,-0.21418765,9.801403,0.0012971908,0.0019084066,0.0007123947,-0.0001373291,-4.5776367e-05,6.1035156e-05
2019-07-01T20:21:16.409Z,0.0109098125,-0.012211527,0.9938475,0.23521423,-0.21440125,9.8033905,4.1412354,-16.036987,-37.36725,0.23889665,-0.21459569,9.801391,0.00016662478,-0.00053986907,0.0011196136,-7.6293945e-05,-4.5776367e-05,1.5258789e-05
2019-07-01T20:21:16.609Z,0.010850886,-0.012208462,0.99386287,0.23808289,-0.2163086,9.8033905,2.609253,-16.065979,-37.76245,0.2377128,-0.21469457,9.801417,-0.0020284653,-0.0001770705,0.0018529892,-1.5258789e-05,7.6293945e-05,-0.00010681152
2019-07-01T20:21:16.814Z,0.010852612,-0.012240841,0.9938629,0.23857117,-0.21583557,9.801727,3.8406372,-15.472412,-37.69226,0.23781486,-0.21532302,9.801401,0.00026138127,-0.0009795725,0.00028133392,-7.6293945e-05,7.6293945e-05,0.0001373291
2019-07-01T20:21:17.030Z,0.010859726,-0.012243233,0.99386114,0.23760986,-0.21487427,9.8022,2.9129028,-14.659119,-37.564087,0.23796202,-0.21535063,9.801397,0.0010730177,1.1622906e-05,0.0001821518,4.5776367e-05,7.6293945e-05,-4.5776367e-05
2019-07-01T20:21:17.217Z,0.01086185,-0.012231692,0.99386036,0.23976135,-0.21463013,9.803635,2.319336,-15.356445,-37.680054,0.2379804,-0.21511926,9.801402,0.0003322214,0.00050213933,0.0004348755,4.5776367e-05,0.0001373291,-0.00016784668
2019-07-01T20:21:17.415Z,0.010873051,-0.012241223,0.9938576,0.23832703,-0.21655273,9.802673,3.8848877,-16.194153,-38.36975,0.2382241,-0.21527545,9.801393,0.0010341704,-0.00053296983,0.001250267,-7.6293945e-05,7.6293945e-05,-0.00016784668
2019-07-01T20:21:17.621Z,0.010856019,-0.012256718,0.99386233,0.24023438,-0.2141571,9.803162,4.0985107,-15.087891,-37.776184,0.23791608,-0.21562427,9.801392,-0.00033466518,5.8621168e-05,-0.00011920929,-7.6293945e-05,-9.1552734e-05,-4.5776367e-05
2019-07-01T20:21:17.876Z,0.010901803,-0.0122380825,0.99385005,0.23832703,-0.21678162,9.801712,3.3477783,-15.722656,-37.87384,0.23879209,-0.21513654,9.801382,0.0011759698,0.0005401373,0.0007162094,0.00010681152,0.0001373291,1.5258789e-05
2019-07-01T20:21:18.072Z,0.010894351,-0.012247183,0.99385214,0.23664856,-0.21559143,9.800995,2.4017334,-15.353394,-37.231445,0.23866218,-0.2153346,9.801381,0.0010777563,0.00047965348,-0.0010213852,-1.5258789e-05,1.5258789e-05,1.5258789e-05
2019-07-01T20:21:18.283Z,0.010868543,-0.0122408755,0.99385875,0.23928833,-0.21487427,9.800049,2.380371,-15.637207,-38.27057,0.23813328,-0.2152808,9.801394,-0.0007803142,0.00041808188,-0.00068092346,0.00022888184,0.00019836426,-0.00010681152
2019-07-01T20:21:18.484Z,0.010869018,-0.012227645,0.99385846,0.23951721,-0.21440125,9.803146,2.7893066,-15.538025,-38.191223,0.23811518,-0.21502084,9.801401,0.0004582405,-0.0005726218,-0.0012598038,0.00016784668,-4.5776367e-05,1.5258789e-05
2019-07-01T20:21:18.749Z,0.010896942,-0.01220954,0.9938508,0.23736572,-0.21583557,9.800278,4.2022705,-15.859985,-40.956116,0.23863533,-0.21459158,9.801397,0.001118958,0.00019668043,0.0007419586,0.00010681152,0.0001373291,0.00036621094
2019-07-01T20:21:18.954Z,0.010866145,-0.012216185,0.993859,0.23928833,-0.21511841,9.803879,3.3859253,-16.362,-39.517212,0.23803385,-0.2148045,9.801408,-0.0011365712,-0.0005469173,-0.00094127655,-7.6293945e-05,1.5258789e-05,-0.00016784668
2019-07-01T20:21:19.095Z,0.010876535,-0.01222285,0.9938564,0.23664856,-0.21296692,9.800278,2.3834229,-15.487671,-38.768005,0.23825538,-0.21490683,9.8014,0.0010138154,-0.00019435585,0.0019216537,-1.5258789e-05,0.00019836426,0.0001373291
2019-07-01T20:21:19.298Z,0.010846065,-0.012178545,0.99386364,0.23880005,-0.21440125,9.801727,3.0151367,-15.661621,-39.282227,0.23755404,-0.2141226,9.801434,-0.0006682426,0.0016501844,-0.00095272064,-1.5258789e-05,0.00019836426,-0.00010681152
2019-07-01T20:21:19.498Z,0.0108473515,-0.01220454,0.9938637,0.23664856,-0.21559143,9.799332,3.4973145,-15.855408,-38.2843,0.23763402,-0.21462741,9.801421,0.0009279251,-0.00072680414,0.00015449524,4.5776367e-05,0.0001373291,-0.00010681152
2019-07-01T20:21:19.699Z,0.010830115,-0.012216469,0.9938684,0.23951721,-0.21440125,9.803162,3.1784058,-15.65094,-39.28528,0.23731446,-0.21490704,9.801422,-0.00040531158,-0.0006992817,-0.002128601,-7.6293945e-05,-4.5776367e-05,-4.5776367e-05
2019-07-01T20:21:19.904Z,0.010858974,-0.012203842,0.99386066,0.23640442,-0.2141571,9.8022,3.237915,-16.235352,-38.502502,0.23786479,-0.21458247,9.801416,0.0009378791,0.0006671548,0.0011358261,-1.5258789e-05,7.6293945e-05,-0.000289917
2019-07-01T20:21:20.108Z,0.010838787,-0.012193749,0.9938658,0.23951721,-0.21487427,9.804108,2.9953003,-16.25061,-38.64746,0.23744038,-0.21443948,9.801431,-0.00031362474,0.00053562224,0.0010709763,4.5776367e-05,0.0001373291,-0.00022888184
2019-07-01T20:21:20.311Z,0.010862698,-0.012208017,0.99385977,0.23832703,-0.21559143,9.799805,3.9154053,-15.460205,-38.598633,0.23794793,-0.21465409,9.801414,0.0013133436,-0.0006688088,0.0013513565,4.5776367e-05,7.6293945e-05,-0.000289917
2019-07-01T20:21:20.515Z,0.010863379,-0.01222522,0.9938599,0.23760986,-0.21655273,9.801239,2.015686,-14.862061,-38.098145,0.23799741,-0.21498859,9.801404,0.00032432377,-0.0005980879,-0.0018167496,0.00010681152,1.5258789e-05,-0.00022888184
2019-07-01T20:21:20.715Z,0.010849264,-0.012251039,0.993864,0.23640442,-0.21679688,9.801956,2.784729,-15.686035,-37.99286,0.23776925,-0.21553142,9.801397,-0.0004080087,-0.0019785613,-9.918213e-05,0.000289917,-4.5776367e-05,7.6293945e-05
2019-07-01T20:21:20.918Z,0.010830391,-0.012238478,0.9938687,0.23832703,-0.21559143,9.8033905,2.6931763,-15.910339,-38.035583,0.23736589,-0.21533662,9.801412,-0.0007285923,-0.0004887283,0.0005674362,-1.5258789e-05,7.6293945e-05,-0.00016784668
2019-07-01T20:21:21.125Z,0.010846625,-0.0122572705,0.9938648,0.23760986,-0.21487427,9.801483,3.2089233,-15.298462,-37.402344,0.23772952,-0.21566038,9.801396,0.0010446012,-0.0006247163,0.0011701584,-7.6293945e-05,0.00019836426,1.5258789e-05
2019-07-01T20:21:21.328Z,0.010833798,-0.012243426,0.9938679,0.2359314,-0.21487427,9.8022,1.9760132,-15.663147,-38.485718,0.2374443,-0.21542421,9.801408,-0.00031743944,0.00031486154,-0.0012989044,0.00010681152,-0.00021362305,-0.00016784668
2019-07-01T20:21:21.530Z,0.010822626,-0.012200484,0.9938701,0.23832703,-0.21343994,9.799088,2.0996094,-14.932251,-37.434387,0.23713149,-0.21461464,9.801434,-0.001214236,0.0016605109,0.00041103363,-1.5258789e-05,1.5258789e-05,-4.5776367e-05
2019-07-01T20:21:21.732Z,0.010842978,-0.012197376,0.9938647,0.23976135,-0.2163086,9.803635,2.381897,-15.562439,-38.48114,0.23753165,-0.21449909,9.801425,0.0010487735,0.0003336221,-0.001955986,-1.5258789e-05,1.5258789e-05,-0.00010681152
2019-07-01T20:21:21.935Z,0.010883128,-0.012221678,0.99385464,0.23617554,-0.2141571,9.799805,3.439331,-15.423584,-37.96692,0.23838466,-0.21486613,9.801397,0.0013701767,-0.00071941316,0.0012521744,-7.6293945e-05,-4.5776367e-05,-0.00016784668
2019-07-01T20:21:22.133Z,0.010837872,-0.01222074,0.99386644,0.23736572,-0.2131958,9.800766,2.571106,-15.04364,-38.00659,0.23747839,-0.21496968,9.801417,-0.00201872,-0.00014990568,-0.0005979538,4.5776367e-05,1.5258789e-05,-0.00010681152
2019-07-01T20:21:22.337Z,0.010860393,-0.012174776,0.9938598,0.23545837,-0.21463013,9.8033905,2.0858765,-14.996338,-38.731384,0.23783247,-0.21401034,9.80143,0.00050483644,0.001278311,-0.0007276535,0.00016784668,-4.5776367e-05,7.6293945e-05
2019-07-01T20:21:22.543Z,0.010814913,-0.012175775,0.9938717,0.23640442,-0.21511841,9.8022,2.5421143,-15.779114,-37.47406,0.23692581,-0.21415225,9.801448,-0.001474157,-0.00024291873,0.0014352798,-1.5258789e-05,-9.1552734e-05,0.0001373291
2019-07-01T20:21:22.744Z,0.010800422,-0.0122028515,0.9938759,0.237854,-0.21343994,9.8029175,3.5949707,-15.557861,-37.927246,0.23669274,-0.21472062,9.801441,-0.0007815808,-0.0013254881,0.0011110306,0.00010681152,1.5258789e-05,1.5258789e-05
2019-07-01T20:21:22.949Z,0.010824449,-0.012180749,0.9938693,0.23808289,-0.21511841,9.805786,3.7384033,-15.911865,-38.156128,0.23712677,-0.21422388,9.801442,0.0011727363,0.0005646497,0.000582695,-0.0001373291,0.00019836426,7.6293945e-05
2019-07-01T20:21:23.146Z,0.010812585,-0.01219829,0.9938727,0.23664856,-0.21798706,9.803162,2.760315,-16.117859,-38.685608,0.2369263,-0.21459875,9.801439,0.00039954484,4.7385693e-06,0.0010185242,-1.5258789e-05,7.6293945e-05,0.00018310547
2019-07-01T20:21:23.383Z,0.010805115,-0.012246914,0.99387544,0.23760986,-0.21536255,9.801239,2.4002075,-15.19928,-38.256836,0.23687837,-0.21556954,9.801418,0.00021164119,-0.0021307468,0.0005226135,-7.6293945e-05,7.6293945e-05,-0.00035095215
2019-07-01T20:21:23.558Z,0.010808805,-0.01224442,0.99387443,0.23857117,-0.2141571,9.801712,2.8198242,-14.880371,-38.05847,0.23694693,-0.21551086,9.801418,0.0003851503,0.00017890334,-0.0010976791,0.00022888184,7.6293945e-05,-0.00010681152
2019-07-01T20:21:23.761Z,0.010840969,-0.012226883,0.9938657,0.23881531,-0.21655273,9.801483,2.4337769,-16.215515,-38.615417,0.23755309,-0.21508144,9.801413,0.0012295544,0.0004670769,-0.0013656616,-7.6293945e-05,0.0001373291,-0.00010681152
2019-07-01T20:21:23.961Z,0.010834432,-0.012251612,0.9938679,0.23617554,-0.21583557,9.801239,2.2735596,-16.377258,-37.734985,0.23747407,-0.21558258,9.801405,0.00036367774,-0.0007112622,-0.00011920929,-7.6293945e-05,1.5258789e-05,0.0001373291
2019-07-01T20:21:24.220Z,0.010823984,-0.012281901,0.9938711,0.2400055,-0.21559143,9.800995,3.9291382,-15.168762,-38.464355,0.2373284,-0.21620288,9.8013935,0.00048661232,-0.0017486513,0.0011034012,-7.6293945e-05,0.00019836426,1.5258789e-05
2019-07-01T20:21:24.420Z,0.010864704,-0.012273998,0.9938603,0.23713684,-0.21607971,9.803162,3.312683,-14.628601,-37.953186,0.23812568,-0.21593873,9.801379,0.0023275763,0.0008432418,-0.0011806488,0.00010681152,0.00019836426,-0.00016784668
2019-07-01T20:21:24.618Z,0.010828395,-0.012259151,0.99386954,0.23808289,-0.2141571,9.800522,3.0319214,-15.67688,-37.097168,0.23736914,-0.2157462,9.801403,-0.00075137615,0.00018274784,0.00048732758,-1.5258789e-05,0.00019836426,-0.00010681152
2019-07-01T20:21:24.816Z,0.010848293,-0.012255871,0.9938643,0.24023438,-0.2163086,9.804352,3.390503,-14.697266,-37.968445,0.23775993,-0.21562853,9.801396,0.0015088767,0.000298962,-0.0009622574,-7.6293945e-05,7.6293945e-05,1.5258789e-05
2019-07-01T20:21:25.017Z,0.010872361,-0.012283532,0.99385846,0.23664856,-0.21606445,9.803635,2.734375,-15.110779,-37.27112,0.2382986,-0.21610454,9.801372,0.0011849254,-0.0006617904,0.0011205673,-1.5258789e-05,-9.1552734e-05,6.1035156e-05
2019-07-01T20:21:25.227Z,0.010839214,-0.01224575,0.9938665,0.23808289,-0.21487427,9.805069,2.871704,-15.458679,-38.253784,0.23755737,-0.21545507,9.801405,-0.0016658455,0.0010899901,0.00058460236,0.00010681152,1.5258789e-05,-0.00010681152
2019-07-01T20:21:25.429Z,0.010848003,-0.012261573,0.9938645,0.23712158,-0.21583557,9.803879,3.413391,-16.007996,-38.01117,0.23776601,-0.21574079,9.801393,0.0005082786,-0.00076408684,0.0010290146,-7.6293945e-05,7.6293945e-05,-4.5776367e-05
2019-07-01T20:21:25.631Z,0.010848611,-0.012214375,0.9938635,0.23857117,-0.21391296,9.8029175,2.090454,-15.156555,-37.17804,0.23767968,-0.21481632,9.801415,0.000108256936,0.0016664714,-0.00012111664,0.00010681152,0.0001373291,-4.5776367e-05
2019-07-01T20:21:25.832Z,0.010844524,-0.0122275585,0.99386483,0.23928833,-0.21606445,9.8022,2.3513794,-14.471436,-38.407898,0.23762552,-0.21508509,9.801411,0.00018040836,-0.0007069707,-0.00024700165,-1.5258789e-05,1.5258789e-05,1.5258789e-05
2019-07-01T20:21:26.035Z,0.010871812,-0.012252614,0.9938581,0.23736572,-0.21511841,9.800766,2.140808,-15.653992,-38.03711,0.23822312,-0.2155015,9.801388,0.001249209,-0.000766471,-0.00031757355,4.5776367e-05,0.0001373291,-0.00010681152
2019-07-01T20:21:26.237Z,0.010852626,-0.012223964,0.9938626,0.237854,-0.21368408,9.803635,3.022766,-15.742493,-38.168335,0.23777992,-0.21499297,9.801409,-0.00019055605,0.0010985583,-0.0019769669,4.5776367e-05,7.6293945e-05,-0.00022888184
2019-07-01T20:21:26.442Z,0.010859536,-0.012226577,0.9938609,0.23880005,-0.21511841,9.803879,1.902771,-15.59906,-37.864685,0.23792346,-0.21502548,9.801405,0.00036592782,-0.00028778613,0.0013961792,0.00010681152,1.5258789e-05,-0.00016784668
2019-07-01T20:21:26.643Z,0.010866997,-0.012192823,0.9938584,0.23928833,-0.21247864,9.803635,2.6947021,-15.911865,-37.809753,0.23800209,-0.21434541,9.801418,-0.00019094348,0.00069993734,0.00045108795,4.5776367e-05,-4.5776367e-05,0.0
2019-07-01T20:21:26.848Z,0.010880734,-0.012175758,0.9938545,0.23664856,-0.21511841,9.801956,2.7893066,-15.538025,-38.191223,0.23824094,-0.21397476,9.801421,0.0010085702,0.0008138269,-0.00034427643,-7.6293945e-05,0.0002593994,0.0001373291
2019-07-01T20:21:27.047Z,0.0108465515,-0.012199246,0.9938638,0.23664856,-0.2163086,9.802444,2.9418945,-15.594482,-38.66272,0.23760697,-0.21452607,9.801424,-0.0005194098,-0.0010346472,-0.0003976822,-1.5258789e-05,-4.5776367e-05,-4.5776367e-05
2019-07-01T20:21:27.249Z,0.0108210035,-0.012206348,0.9938706,0.23832703,-0.2163086,9.801956,2.3757935,-14.038086,-37.79297,0.2371113,-0.21473366,9.801432,-0.0009625107,-0.0003605187,-0.00058078766,-1.5258789e-05,0.00019836426,-0.0004272461
2019-07-01T20:21:27.454Z,0.0108353,-0.012251275,0.99386764,0.23976135,-0.21224976,9.803879,2.885437,-15.24353,-37.908936,0.2374907,-0.21557362,9.801404,0.0012768209,-0.001422599,0.00041484833,0.00016784668,0.0001373291,-0.00010681152
2019-07-01T20:21:27.659Z,0.010873802,-0.012191876,0.9938566,0.24023438,-0.21534729,9.800522,3.340149,-15.867615,-37.902832,0.23813608,-0.21430856,9.801415,0.0018316358,0.0018638968,0.00042057037,4.5776367e-05,-4.5776367e-05,1.5258789e-05
2019-07-01T20:21:27.861Z,0.010911489,-0.012192269,0.9938468,0.23857117,-0.21487427,9.798843,3.414917,-16.009521,-37.860107,0.23888992,-0.21421465,9.8014,0.00086277723,6.529689e-05,-0.0024223328,-7.6293945e-05,-4.5776367e-05,-4.5776367e-05
2019-07-01T20:21:28.068Z,0.010911666,-0.01221755,0.99384713,0.23928833,-0.21343994,9.800766,2.9067993,-14.807129,-37.594604,0.23894629,-0.21470848,9.801388,0.00035478175,-0.00066550076,-0.0017776489,-7.6293945e-05,-4.5776367e-05,1.5258789e-05
2019-07-01T20:21:28.267Z,0.010905901,-0.012204279,0.9938484,0.23808289,-0.2182312,9.800278,3.0532837,-15.011597,-38.0188,0.23880336,-0.21446455,9.801396,-0.0004643947,0.00054086745,8.869171e-05,0.00022888184,1.5258789e-05,-0.00016784668
2019-07-01T20:21:28.468Z,0.010887205,-0.012262908,0.9938543,0.237854,-0.21607971,9.801956,2.6901245,-15.905762,-38.48877,0.2385522,-0.21566129,9.801375,-0.00021462142,-0.003052473,5.2452087e-05,0.00010681152,7.6293945e-05,-4.5776367e-05
2019-07-01T20:21:28.672Z,0.010874546,-0.012253039,0.9938574,0.237854,-0.2163086,9.800995,3.4606934,-16.734314,-38.08441,0.23827864,-0.21550243,9.801386,-0.00090269744,-9.8243356e-05,4.4822693e-05,0.00016784668,-4.5776367e-05,-0.00010681152
2019-07-01T20:21:28.875Z,0.0108789,-0.012247818,0.9938562,0.23904419,-0.21606445,9.8029175,3.3325195,-15.785217,-39.170837,0.23888823,-0.21490858,9.801384,0.0015875548,0.0009980649,0.00021648407,-7.6293945e-05,1.5258789e-05,0.0001373291
2019-07-01T20:21:29.075Z,0.010901451,-0.012254688,0.9938504,0.23857117,-0.2131958,9.803635,3.3538818,-15.501404,-38.05542,0.23881972,-0.21546216,9.8013735,-0.00026880205,-0.00082816184,0.0014295578,0.00010681152,0.0001373291,-4.5776367e-05
2019-07-01T20:21:29.279Z,0.010890299,-0.01219451,0.9938523,0.2400055,-0.21487427,9.800522,2.7954102,-15.315247,-38.674927,0.23847122,-0.21431561,9.801408,7.246435e-05,0.0013886541,0.0006246567,4.5776367e-05,0.00019836426,-0.00035095215
2019-07-01T20:21:29.480Z,0.010909517,-0.012215495,0.99384767,0.23617554,-0.21846008,9.803162,2.546692,-15.47699,-38.772583,0.23889904,-0.21467409,9.801389,0.0013236403,-0.00066266954,-0.0013475418,-1.5258789e-05,1.5258789e-05,-0.00016784668
2019-07-01T20:21:29.683Z,0.010847633,-0.012279846,0.9938649,0.2368927,-0.21487427,9.802673,2.407837,-15.054321,-38.076782,0.23779672,-0.21609905,9.801384,-0.0018895268,-0.002583176,0.0010242462,-7.6293945e-05,7.6293945e-05,0.0001373291
2019-07-01T20:21:29.892Z,0.010841194,-0.012258922,0.9938662,0.23736572,-0.2141571,9.8029175,2.3452759,-14.923096,-36.763,0.2376244,-0.21570727,9.801397,-3.8832426e-05,0.00085505843,2.9563904e-05,4.5776367e-05,1.5258789e-05,0.0001373291
2019-07-01T20:21:30.231Z,0.010826842,-0.01222312,0.99386936,0.23641968,-0.21607971,9.800522,2.1072388,-16.31012,-38.623047,0.23726293,-0.21504587,9.80142,-0.0008844286,0.0011563897,0.0001821518,0.00016784668,1.5258789e-05,7.6293945e-05
2019-07-01T20:21:30.436Z,0.010828024,-0.012222097,0.99386907,0.2368927,-0.21343994,9.800995,3.578186,-15.467834,-40.3244,0.2372844,-0.2150227,9.80142,7.300079e-05,-0.00056120753,-0.0014705658,0.00010681152,0.0001373291,-4.5776367e-05
2019-07-01T20:21:30.547Z,0.010820349,-0.0121829,0.99387044,0.237854,-0.21463013,9.800995,2.720642,-15.174866,-38.568115,0.23704931,-0.21427695,9.801443,-0.0004081577,0.0010878444,-3.71933e-05,4.5776367e-05,-9.1552734e-05,0.00024414062
2019-07-01T20:21:30.753Z,0.010822848,-0.012207421,0.99387014,0.23832703,-0.21559143,9.800522,3.6605835,-15.692139,-39.239502,0.2371504,-0.21474966,9.80143,0.00046733022,-0.00109303,-0.0012998581,4.5776367e-05,0.0001373291,-0.00016784668
2019-07-01T20:21:30.957Z,0.010837651,-0.012208138,0.9938663,0.23857117,-0.21606445,9.800278,2.9586792,-15.231323,-38.66577,0.23744768,-0.21472386,9.801423,0.0011262,9.126961e-05,0.0004014969,4.5776367e-05,1.5258789e-05,1.5258789e-05
2019-07-01T20:21:31.162Z,0.010853727,-0.012231188,0.9938625,0.23976135,-0.21607971,9.800995,4.0512085,-15.879822,-39.74762,0.237817,-0.21513127,9.801405,0.0007724762,-0.0007208735,-0.0013189316,-1.5258789e-05,1.5258789e-05,0.0001373291
2019-07-01T20:21:31.368Z,0.010889143,-0.012269841,0.99385387,0.23857117,-0.21487427,9.800278,3.9230347,-15.315247,-38.342285,0.23860542,-0.21579164,9.801373,0.0016455501,-0.0014932603,7.534027e-05,-0.0001373291,1.5258789e-05,1.5258789e-05
2019-07-01T20:21:31.513Z,0.010886483,-0.012247125,0.99385417,0.23641968,-0.21463013,9.801239,3.413391,-15.855408,-38.885498,0.23850484,-0.21535465,9.801384,-0.0003978014,0.0011757463,-0.0005865097,4.5776367e-05,-4.5776367e-05,-0.00010681152
2019-07-01T20:21:31.713Z,0.010859901,-0.012231812,0.9938609,0.23760986,-0.21511841,9.801956,2.9632568,-15.312195,-37.623596,0.2379417,-0.21512686,9.801403,-0.0012832135,0.00024360418,0.001206398,-1.5258789e-05,7.6293945e-05,-0.00022888184
2019-07-01T20:21:31.915Z,0.010837422,-0.01222898,0.9938667,0.23832703,-0.21487427,9.8022,3.3874512,-14.845276,-37.69684,0.23748657,-0.215132,9.801414,-0.00035317242,0.00026084483,0.0011177063,-1.5258789e-05,1.5258789e-05,0.00036621094
2019-07-01T20:21:32.121Z,0.010856349,-0.012207979,0.99386144,0.2359314,-0.21391296,9.801956,2.4932861,-15.054321,-37.399292,0.23782097,-0.21467043,9.801415,0.0007454902,0.00076173246,0.00010204315,4.5776367e-05,1.5258789e-05,-0.00022888184
2019-07-01T20:21:32.323Z,0.010821029,-0.012203653,0.99387056,0.23855591,-0.21559143,9.799088,2.3010254,-15.795898,-37.46643,0.23710619,-0.2146809,9.801433,-0.0016433,3.142655e-05,-0.0007238388,4.5776367e-05,7.6293945e-05,-0.00022888184
2019-07-01T20:21:32.526Z,0.010838553,-0.012230796,0.99386644,0.23736572,-0.21606445,9.799332,2.1759033,-14.851379,-38.102722,0.23751296,-0.21516444,9.801412,0.0010585338,-0.0011582822,-0.00096416473,4.5776367e-05,7.6293945e-05,-0.00022888184
2019-07-01T20:21:32.729Z,0.01083593,-0.012230703,0.99386716,0.23664856,-0.21200562,9.7986145,2.6031494,-16.209412,-37.942505,0.23746035,-0.21516968,9.801413,0.00041110814,-0.00019343197,-0.0001707077,-1.5258789e-05,1.5258789e-05,-0.00016784668
2019-07-01T20:21:32.931Z,0.010835089,-0.012182511,0.99386656,0.2359314,-0.21702576,9.801956,3.1921387,-15.510559,-38.35144,0.23734301,-0.2142297,9.801436,-0.0008864552,0.0019466579,-0.001543045,-7.6293945e-05,-4.5776367e-05,-0.000289917
2019-07-01T20:21:33.133Z,0.0107970135,-0.012233655,0.99387735,0.2368927,-0.21559143,9.802444,3.6987305,-14.891052,-38.549805,0.23668882,-0.21533206,9.801428,-0.0014563054,-0.001954466,0.0015287399,0.00016784668,-0.00015258789,0.00018310547
2019-07-01T20:21:33.335Z,0.010815388,-0.012225455,0.9938724,0.23641968,-0.21679688,9.800522,2.8884888,-15.170288,-37.893677,0.23703894,-0.21512236,9.801425,0.0008035749,-0.00047248602,0.0011749268,-1.5258789e-05,0.0001373291,-0.00010681152
2019-07-01T20:21:33.540Z,0.010786752,-0.012247086,0.9938802,0.23713684,-0.21440125,9.800278,2.6031494,-16.209412,-37.942505,0.23651177,-0.21562223,9.801426,-0.0008070916,-0.0007022321,-0.0011291504,0.00022888184,1.5258789e-05,-0.00016784668
2019-07-01T20:21:33.742Z,0.010811074,-0.012223171,0.9938735,0.23808289,-0.21440125,9.800522,1.8966675,-15.8203125,-37.683105,0.23694797,-0.21508929,9.801428,0.0011574477,0.00019457936,-0.00044631958,4.5776367e-05,7.6293945e-05,0.00024414062
2019-07-01T20:21:33.944Z,0.010827872,-0.012194552,0.99386865,0.23832703,-0.21176147,9.802429,2.2384644,-15.437317,-37.091064,0.23722392,-0.21448454,9.801434,0.0008736253,0.0010313392,0.00065517426,4.5776367e-05,0.00019836426,-0.00022888184
2019-07-01T20:21:34.144Z,0.010832471,-0.012165845,0.993867,0.24023438,-0.21559143,9.799576,4.081726,-15.452576,-38.07373,0.23725595,-0.2139109,9.801446,0.0008326173,0.00093886256,0.00074481964,-7.6293945e-05,7.6293945e-05,7.6293945e-05
2019-07-01T20:21:34.349Z,0.010889343,-0.012207926,0.9938528,0.24023438,-0.21559143,9.800995,2.8656006,-15.602112,-38.435364,0.23848014,-0.21458052,9.801402,0.0024875104,-0.0010253787,-0.0009355545,4.5776367e-05,0.0001373291,-0.00010681152
2019-07-01T20:21:34.552Z,0.010893768,-0.012210296,0.99385166,0.23664856,-0.21774292,9.799088,2.4795532,-15.345764,-37.609863,0.23857346,-0.21461487,9.801397,0.0007226616,-0.0007394254,0.0006494522,0.00010681152,7.6293945e-05,7.6293945e-05
2019-07-01T20:21:34.754Z,0.010857007,-0.012260585,0.9938621,0.23999023,-0.21607971,9.801712,3.1860352,-15.655518,-38.380432,0.2379439,-0.21569724,9.801391,-0.0007776767,-0.0020723194,-0.0018091202,0.00016784668,1.5258789e-05,-0.00030517578
2019-07-01T20:21:34.960Z,0.0108824,-0.012247191,0.99385524,0.23832703,-0.21463013,9.799805,2.8686523,-15.455627,-38.78174,0.23842338,-0.21536694,9.801386,0.00063563883,-0.00048200786,0.0011796951,4.5776367e-05,7.6293945e-05,0.00030517578
2019-07-01T20:21:35.162Z,0.010886493,-0.012224822,0.9938538,0.23783875,-0.21487427,9.8022,2.4536133,-15.92865,-37.651062,0.23845848,-0.21491857,9.801395,0.00036241114,0.0007426739,-0.0004892349,0.00022888184,-4.5776367e-05,6.1035156e-05
2019-07-01T20:21:35.403Z,0.010868918,-0.012207843,0.99385816,0.237854,-0.21511841,9.8029175,3.0059814,-16.108704,-38.01422,0.23807184,-0.21463394,9.801411,2.515316e-05,0.0007082671,-6.389618e-05,-0.00019836426,-9.1552734e-05,-4.5776367e-05
2019-07-01T20:21:35.620Z,0.010875041,-0.012212969,0.9938566,0.23832703,-0.2141571,9.801956,2.5299072,-16.145325,-37.171936,0.23820487,-0.21471766,9.801405,0.00011740625,-0.00015233457,0.0015459061,0.00010681152,7.6293945e-05,-0.00016784668
2019-07-01T20:21:35.813Z,0.010866239,-0.0121989865,0.9938587,0.23832703,-0.21440125,9.79837,2.6031494,-16.134644,-38.15155,0.23799981,-0.21446797,9.801415,-0.00014548004,0.0003105849,-0.00040721893,4.5776367e-05,0.00019836426,-0.00022888184
2019-07-01T20:21:36.014Z,0.010860264,-0.012198796,0.99386024,0.237854,-0.21702576,9.800522,3.6468506,-16.21399,-37.91046,0.23788002,-0.21448031,9.801417,0.0004697442,-0.00017032027,-0.0018663406,0.00010681152,7.6293945e-05,7.6293945e-05
2019-07-01T20:21:36.225Z,0.010850378,-0.012237871,0.99386346,0.23570251,-0.21559143,9.801956,2.2872925,-16.163635,-37.16278,0.23776405,-0.21527098,9.801404,-0.00038604438,-0.0020100474,0.00082969666,-1.5258789e-05,7.6293945e-05,-0.00010681152
2019-07-01T20:21:36.430Z,0.01081663,-0.012227275,0.9938721,0.237854,-0.21366882,9.801956,3.1265259,-15.301514,-37.553406,0.23706754,-0.2151546,9.801423,-0.0006380379,0.00027142465,0.00022220612,4.5776367e-05,0.0001373291,-0.00016784668
2019-07-01T20:21:36.632Z,0.010808769,-0.012193565,0.9938736,0.23880005,-0.21678162,9.799561,3.111267,-15.515137,-38.349915,0.23684019,-0.21451664,9.801443,0.0003029853,0.0008420795,0.00030231476,-1.5258789e-05,7.6293945e-05,-0.00016784668
2019-07-01T20:21:36.836Z,0.010850808,-0.012251319,0.9938636,0.23736572,-0.21559143,9.8029175,2.06604,-15.435791,-38.67035,0.23780066,-0.21553275,9.801396,0.0017271787,-0.0019756556,-0.0004377365,-7.6293945e-05,1.5258789e-05,-0.00016784668
2019-07-01T20:21:37.049Z,0.01084241,-0.012251669,0.9938658,0.23880005,-0.21583557,9.800293,2.9571533,-15.382385,-37.864685,0.23763357,-0.21556218,9.8014,-0.00026516616,0.00021246076,0.00066661835,-1.5258789e-05,7.6293945e-05,0.0001373291
2019-07-01T20:21:37.241Z,0.010866339,-0.01224068,0.99385935,0.23641968,-0.2131958,9.8022,3.2577515,-15.794373,-38.490295,0.23808885,-0.2152829,9.801395,0.00096416473,0.0008736849,-0.00051021576,0.00010681152,-0.00015258789,-4.5776367e-05
2019-07-01T20:21:37.450Z,0.010834075,-0.012221625,0.99386746,0.23880005,-0.21559143,9.799332,3.9550781,-14.811707,-37.184143,0.23740435,-0.2149972,9.801418,-0.001705721,0.00012646616,0.0010938644,0.00010681152,7.6293945e-05,-0.00030517578
2019-07-01T20:21:37.650Z,0.010865823,-0.012221343,0.9938592,0.23760986,-0.2141571,9.799576,3.1158447,-15.44342,-38.03253,0.2380382,-0.21490623,9.801406,0.001736939,-0.000224635,-0.0015058517,-0.0001373291,0.0001373291,-0.00016784668
2019-07-01T20:21:37.854Z,0.0108508505,-0.012219918,0.99386305,0.23713684,-0.21440125,9.800049,2.7359009,-15.037537,-37.40692,0.23773603,-0.21491867,9.801413,-0.00057686865,0.0002683699,-0.0006866455,0.00016784668,1.5258789e-05,-0.00016784668
2019-07-01T20:21:38.052Z,0.010840045,-0.01219115,0.99386543,0.23640442,-0.21487427,9.801239,2.2399902,-15.437317,-36.940002,0.2374601,-0.2143853,9.801432,-6.045401e-05,0.00067059696,-0.0009431839,4.5776367e-05,1.5258789e-05,0.0001373291
2019-07-01T20:21:38.259Z,0.010807784,-0.012204539,0.9938741,0.23713684,-0.21487427,9.799561,2.9647827,-15.159607,-38.34839,0.23684338,-0.21473382,9.801437,-0.001135841,-0.0011201352,0.0011281967,0.00016784668,7.6293945e-05,-0.00010681152
2019-07-01T20:21:38.460Z,0.010825347,-0.012194784,0.9938693,0.2368927,-0.21368408,9.800049,2.0111084,-15.008545,-37.89978,0.23717396,-0.21449587,9.8014345,0.0004644394,-0.00016006827,-0.0006952286,4.5776367e-05,1.5258789e-05,-4.5776367e-05
2019-07-01T20:21:38.662Z,0.010818565,-0.012172872,0.99387074,0.23904419,-0.21583557,9.801483,2.4597168,-15.704346,-38.43689,0.23699275,-0.21408567,9.801448,-7.340312e-05,0.00086580217,0.00017547607,-7.6293945e-05,7.6293945e-05,-0.00010681152
2019-07-01T20:21:38.861Z,0.010835203,-0.012222332,0.99386716,0.23832703,-0.21463013,9.801483,2.6245117,-15.774536,-37.475586,0.23742837,-0.21500798,9.801417,0.0013961792,-0.0015669465,0.00011539459,-7.6293945e-05,0.0001373291,1.5258789e-05
2019-07-01T20:21:39.068Z,0.010849327,-0.01221401,0.99386334,0.2368927,-0.2141571,9.805786,1.9744873,-15.660095,-38.937378,0.23769324,-0.21480724,9.801415,0.00087830424,0.00089393556,0.0019903183,-1.5258789e-05,1.5258789e-05,-4.5776367e-05
2019-07-01T20:21:39.266Z,0.010833716,-0.012189511,0.99386704,0.23570251,-0.21487427,9.7986145,2.7404785,-14.962769,-37.469482,0.23733021,-0.21437027,9.8014345,-0.00067961216,0.000455454,-0.00011062622,4.5776367e-05,7.6293945e-05,-4.5776367e-05
2019-07-01T20:21:39.487Z,0.010799671,-0.012206233,0.9938762,0.23664856,-0.21606445,9.800766,1.399231,-16.067505,-38.090515,0.23668478,-0.21478876,9.80144,-0.0007561147,-0.00055603683,0.00040245056,-7.6293945e-05,1.5258789e-05,-0.00016784668
2019-07-01T20:21:39.676Z,0.010789177,-0.012219811,0.99387914,0.23617554,-0.21511841,9.800049,2.3864746,-15.414429,-38.679504,0.23650339,-0.21508244,9.801438,-0.0005645901,-0.0005157441,-0.0008382797,-1.5258789e-05,1.5258789e-05,-6.1035156e-05
2019-07-01T20:21:39.881Z,0.0107903285,-0.01222972,0.993879,0.23832703,-0.21440125,9.803162,2.8839111,-15.242004,-38.13629,0.23654704,-0.21527308,9.801433,0.00035782158,-0.00032940507,-0.0004081726,-1.5258789e-05,0.00019836426,-0.00010681152
2019-07-01T20:21:40.081Z,0.010809488,-0.012222468,0.9938739,0.23640442,-0.2141571,9.800995,2.545166,-15.628052,-37.973022,0.23691481,-0.21507981,9.801429,0.00023962557,0.0004337132,-0.0011396408,-1.5258789e-05,7.6293945e-05,7.6293945e-05
2019-07-01T20:21:40.375Z,0.010805218,-0.012211169,0.99387485,0.23928833,-0.21702576,9.8022,1.7272949,-15.975952,-37.70752,0.23680592,-0.21487036,9.801435,0.0005710572,0.00023001432,0.00051403046,-7.6293945e-05,7.6293945e-05,6.1035156e-05
2019-07-01T20:21:40.514Z,0.01083356,-0.012248829,0.99386805,0.23832703,-0.2141571,9.801483,1.965332,-15.95459,-38.468933,0.23745081,-0.21553048,9.801406,0.0015998036,-0.0010280609,0.00034236908,-7.6293945e-05,7.6293945e-05,-0.00010681152
2019-07-01T20:21:40.749Z,0.010832803,-0.012234166,0.993868,0.23880005,-0.21440125,9.800995,2.0233154,-16.537476,-38.061523,0.23740509,-0.21524583,9.801413,0.0002065748,0.00061407685,0.00038909912,4.5776367e-05,7.6293945e-05,-4.5776367e-05
2019-07-01T20:21:40.944Z,0.010872594,-0.012226096,0.9938575,0.24023438,-0.21511841,9.799088,2.4002075,-15.50293,-36.505127,0.2381834,-0.21498092,9.8014,0.001828149,0.0003453195,-0.00038528442,0.00022888184,0.0001373291,-0.00022888184
2019-07-01T20:21:41.145Z,0.010884147,-0.012215105,0.9938543,0.23736572,-0.21655273,9.803162,3.1585693,-14.64386,-37.1933,0.23839132,-0.2147349,9.801401,0.00091180205,-0.0001527071,-0.00074386597,-7.6293945e-05,-9.1552734e-05,-4.5776367e-05
2019-07-01T20:21:41.351Z,0.0108670825,-0.012268386,0.9938596,0.23976135,-0.21536255,9.80101,2.8915405,-15.097046,-37.80365,0.23816152,-0.21582264,9.801382,-0.0010254085,-0.0019195974,0.0012607574,-0.0001373291,-4.5776367e-05,-0.00016784668
2019-07-01T20:21:41.555Z,0.010902811,-0.01224999,0.99385,0.23640442,-0.21487427,9.797897,3.3493042,-15.725708,-37.571716,0.2388371,-0.21536665,9.801375,0.0013997108,0.0012073666,-0.00026607513,0.00010681152,7.6293945e-05,-0.00016784668
2019-07-01T20:21:41.758Z,0.010861291,-0.012225399,0.9938604,0.23928833,-0.21200562,9.800522,4.0405273,-15.872192,-40.649414,0.23795606,-0.21499772,9.801405,-0.00175789,0.00034715235,-0.0016145706,4.5776367e-05,1.5258789e-05,0.0001373291
2019-07-01T20:21:41.959Z,0.0108827725,-0.012191453,0.9938542,0.23736572,-0.21440125,9.797653,3.9596558,-16.183472,-39.201355,0.23831443,-0.2142761,9.801412,0.00076182187,0.0015244931,-0.0007610321,-1.5258789e-05,-4.5776367e-05,1.5258789e-05
2019-07-01T20:21:42.242Z,0.010864755,-0.012181386,0.9938588,0.23521423,-0.21368408,9.801483,3.7902832,-16.337585,-39.37683,0.23793341,-0.21412782,9.801424,-0.0009848028,0.00016456842,-0.0019416809,4.5776367e-05,1.5258789e-05,0.0001373291
2019-07-01T20:21:42.447Z,0.010820431,-0.012160684,0.99387,0.23736572,-0.21511841,9.799332,4.2266846,-15.808105,-38.076782,0.23700461,-0.21384236,9.801454,-0.001510948,0.00037057698,0.0017328262,4.5776367e-05,0.00019836426,-0.000289917
2019-07-01T20:21:42.652Z,0.0108295,-0.01216829,0.99386775,0.23976135,-0.21391296,9.801727,3.4042358,-16.073608,-38.92975,0.23720169,-0.21396668,9.801446,0.00091190636,-0.00069114566,0.00034427643,0.00010681152,-4.5776367e-05,-4.5776367e-05
2019-07-01T20:21:42.858Z,0.010877353,-0.012179376,0.9938555,0.23783875,-0.21583557,9.800522,1.6998291,-16.40625,-38.85193,0.23818095,-0.2140546,9.801421,0.0016078949,-0.00012721121,0.00023269653,-7.6293945e-05,1.5258789e-05,1.5258789e-05
2019-07-01T20:21:42.972Z,0.010852055,-0.012207156,0.9938625,0.23664856,-0.21487427,9.800766,3.918457,-15.310669,-38.87024,0.23773345,-0.2146659,9.801418,-0.00035010278,-0.0011856109,0.00079250336,-1.5258789e-05,1.5258789e-05,-4.5776367e-05
2019-07-01T20:21:43.167Z,0.010825414,-0.012208351,0.9938695,0.2359314,-0.21368408,9.802673,3.0212402,-15.666199,-38.528442,0.23720361,-0.21476096,9.801429,-0.0010068417,0.0001116246,-0.00027370453,-7.6293945e-05,-4.5776367e-05,-0.00010681152
2019-07-01T20:21:43.373Z,0.01082231,-0.0122021735,0.9938702,0.23832703,-0.21511841,9.801483,3.6849976,-15.258789,-38.471985,0.23712869,-0.21464851,9.801433,-0.00094875693,0.00024329126,0.0014219284,4.5776367e-05,-0.00015258789,7.6293945e-05
2019-07-01T20:21:43.572Z,0.010854168,-0.012219375,0.99386215,0.23713684,-0.21463013,9.801712,1.9729614,-15.809631,-38.43994,0.23780116,-0.21489911,9.801411,0.0012412667,-0.00021770597,0.00047302246,-1.5258789e-05,0.0001373291,0.00018310547
2019-07-01T20:21:43.779Z,0.010827359,-0.012208298,0.993869,0.2400055,-0.21487427,9.8022,4.3411255,-15.072632,-37.85858,0.23724236,-0.21475469,9.801428,-0.00035116076,0.00012594461,-7.6293945e-06,-1.5258789e-05,0.00019836426,-4.5776367e-05
2019-07-01T20:21:43.983Z,0.010863461,-0.012211741,0.99385965,0.23808289,-0.21368408,9.804596,2.632141,-15.553284,-37.65869,0.23797092,-0.21472482,9.801411,0.0017768443,-0.00013718009,0.0009469986,4.5776367e-05,-0.00015258789,0.00018310547
2019-07-01T20:21:44.188Z,0.010864685,-0.0121942125,0.993859,0.23832703,-0.21534729,9.800522,2.116394,-16.088867,-38.72986,0.23795879,-0.2143788,9.801418,-0.0001412481,0.0007275939,0.0019044876,4.5776367e-05,7.6293945e-05,-0.00018310547
2019-07-01T20:21:44.396Z,0.010877923,-0.012201827,0.99385566,0.24072266,-0.21487427,9.802444,2.7740479,-15.827942,-38.40027,0.23823921,-0.21449204,9.80141,0.0005492717,-0.0006159693,-0.0020799637,0.00010681152,7.6293945e-05,-0.00010681152
2019-07-01T20:21:44.599Z,0.010893056,-0.012211096,0.9938519,0.2368927,-0.21463013,9.800049,1.7227173,-15.9713745,-38.31024,0.23856093,-0.21463247,9.801398,0.0011838675,-0.00069995224,0.00036621094,-1.5258789e-05,7.6293945e-05,-6.1035156e-05
2019-07-01T20:21:44.794Z,0.010878202,-0.012202639,0.9938556,0.23713684,-0.21296692,9.8022,2.06604,-15.588379,-37.94403,0.23824647,-0.21450716,9.801409,-0.0006286502,0.00034292042,-0.001994133,0.00016784668,7.6293945e-05,1.5258789e-05
2019-07-01T20:21:45.073Z,0.010853166,-0.012222124,0.9938625,0.23976135,-0.21751404,9.800522,2.4551392,-15.625,-39.328003,0.23778687,-0.21495557,9.80141,5.6162477e-05,-0.0018451959,-0.00046634674,-7.6293945e-05,7.6293945e-05,-4.5776367e-05
2019-07-01T20:21:45.218Z,0.010867238,-0.012244345,0.9938592,0.23976135,-0.21679688,9.800522,2.3620605,-16.000366,-38.56964,0.23811446,-0.21535215,9.8013935,0.0011814982,-0.0004903227,-0.00031280518,-7.6293945e-05,0.00019836426,-0.00010681152
2019-07-01T20:21:45.458Z,0.010883537,-0.012272445,0.99385536,0.23808289,-0.21368408,9.8022,2.3727417,-15.858459,-38.012695,0.2384988,-0.21585764,9.801373,0.0012761056,-0.00095151365,-0.0005378723,4.5776367e-05,7.6293945e-05,7.6293945e-05
2019-07-01T20:21:45.660Z,0.010892808,-0.0122575415,0.99385273,0.23928833,-0.21606445,9.8029175,2.7114868,-15.470886,-38.09967,0.23865299,-0.21554127,9.801376,0.0006337762,0.00019538403,0.0012331009,0.00016784668,7.6293945e-05,-0.00010681152
2019-07-01T20:21:45.859Z,0.01088439,-0.012237533,0.9938546,0.237854,-0.2131958,9.800766,2.7664185,-15.896606,-38.941956,0.238443,-0.21517275,9.80139,-0.00012351573,0.000305295,0.0005016327,0.00010681152,0.0001373291,-0.00016784668
2019-07-01T20:21:46.064Z,0.01087043,-0.012194908,0.9938575,0.24023438,-0.21368408,9.800766,3.1829834,-15.881348,-37.44507,0.23807502,-0.21437693,9.801415,-0.00022430718,0.0014129728,-0.0003118515,-7.6293945e-05,1.5258789e-05,0.0001373291
2019-07-01T20:21:46.269Z,0.010910204,-0.012194024,0.99384713,0.2359314,-0.21200562,9.801956,3.1234741,-15.374756,-37.493896,0.23886791,-0.21425244,9.801399,0.0018613935,0.0005624145,-0.00084877014,-1.5258789e-05,7.6293945e-05,-0.00010681152
2019-07-01T20:21:46.464Z,0.010848444,-0.012152045,0.99386257,0.2400055,-0.21534729,9.801956,2.1469116,-15.658569,-37.35962,0.2375463,-0.21359807,9.801446,-0.0023330748,0.0011203438,0.0007123947,0.00016784668,1.5258789e-05,-4.5776367e-05
2019-07-01T20:21:46.679Z,0.010897891,-0.012173149,0.99385,0.23951721,-0.21583557,9.800995,3.5858154,-15.779114,-37.669373,0.23857826,-0.21387747,9.8014145,0.001892671,-0.0009900033,0.00047397614,0.00010681152,7.6293945e-05,-0.00016784668
2019-07-01T20:21:46.880Z,0.01090189,-0.012203956,0.99384946,0.23904419,-0.21534729,9.801483,3.842163,-15.397644,-37.902832,0.23872255,-0.21446906,9.801398,0.0007942468,-0.0018391758,-0.0006494522,-1.5258789e-05,7.6293945e-05,7.6293945e-05
2019-07-01T20:21:47.080Z,0.010908913,-0.012217167,0.99384785,0.23808289,-0.2131958,9.801483,3.6712646,-15.626526,-38.093567,0.23889045,-0.21470842,9.801389,0.00039865077,-0.0004106909,-0.00011730194,-1.5258789e-05,0.0001373291,-0.00010681152
2019-07-01T20:21:47.284Z,0.0108662415,-0.012185905,0.99385846,0.23713684,-0.21343994,9.801483,3.0960083,-15.881348,-38.27362,0.23797254,-0.21421218,9.801421,-0.0010831803,0.001492396,0.0003976822,-7.6293945e-05,0.00019836426,-0.00022888184
2019-07-01T20:21:47.483Z,0.010848496,-0.012179167,0.993863,0.23641968,-0.21463013,9.800766,2.670288,-16.270447,-38.789368,0.23760393,-0.21412823,9.801433,5.3197145e-06,0.00021579862,-0.00021839142,-1.5258789e-05,-4.5776367e-05,-0.00016784668
2019-07-01T20:21:47.683Z,0.010838444,-0.012195737,0.9938659,0.23832703,-0.21655273,9.800049,2.696228,-15.760803,-38.534546,0.23743767,-0.21447927,9.801429,-0.00053806603,-0.0006453842,-0.00062179565,4.5776367e-05,0.00019836426,-0.00022888184
2019-07-01T20:21:47.889Z,0.010826557,-0.01221824,0.99386936,0.23808289,-0.2163086,9.805069,3.225708,-15.008545,-36.891174,0.2372471,-0.21495125,9.801424,0.0001282841,-0.0013660938,-0.00025844574,0.00016784668,7.6293945e-05,-0.000289917
2019-07-01T20:21:48.092Z,0.010840538,-0.012238423,0.993866,0.23857117,-0.21534729,9.801727,2.6351929,-15.403748,-38.005066,0.23756853,-0.21530823,9.801407,0.0009771436,-0.0012213886,0.0028543472,4.5776367e-05,7.6293945e-05,-0.000289917
2019-07-01T20:21:48.292Z,0.010849547,-0.012232971,0.9938636,0.23760986,-0.21559143,9.801483,2.859497,-15.751648,-38.313293,0.23773718,-0.2151774,9.801406,0.00081816316,-0.00015555322,-0.0008201599,4.5776367e-05,0.0001373291,-0.00016784668
2019-07-01T20:21:48.499Z,0.010842392,-0.0122358,0.99386555,0.2368927,-0.21391296,9.801727,2.8076172,-15.17334,-37.815857,0.23760012,-0.21525195,9.801408,0.0002426058,-0.00032925606,-0.0003900528,0.00010681152,7.6293945e-05,-0.00010681152
2019-07-01T20:21:48.702Z,0.010834339,-0.012192732,0.9938669,0.23976135,-0.2131958,9.799561,4.3914795,-15.800476,-37.478638,0.23734935,-0.21443154,9.801432,-0.00023157895,0.0014680624,-0.0005788803,-1.5258789e-05,0.0001373291,-0.00035095215
2019-07-01T20:21:48.902Z,0.01086471,-0.01217281,0.99385864,0.23760986,-0.21583557,9.801712,2.5177002,-16.134644,-38.754272,0.23791462,-0.21396026,9.801429,0.0016092062,0.0009873956,-0.00087833405,-7.6293945e-05,7.6293945e-05,1.5258789e-05
2019-07-01T20:21:49.105Z,0.010842387,-0.0122147435,0.9938652,0.23664856,-0.2131958,9.804108,3.4698486,-14.767456,-37.760925,0.23755608,-0.21484028,9.801418,-0.00041742623,-0.0017141104,0.00036907196,0.00010681152,0.0001373291,-0.00035095215
2019-07-01T20:21:49.310Z,0.010833244,-0.012181254,0.99386704,0.24023438,-0.21272278,9.8022,2.583313,-14.828491,-37.58545,0.23730354,-0.2142101,9.801438,-0.00018684566,0.00078833103,0.0018377304,-1.5258789e-05,-4.5776367e-05,1.5258789e-05