rotationVector_x,rotationVector_y,rotationVector_z,accelerometer_x,accelerometer_y,accelerometer_z,magneticField_x,magneticField_y,magneticField_z,gravity_x,gravity_y,gravity_z,linearAcceleration_x,linearAcceleration_y,linearAcceleration_z,gyroscope_x,gyroscope_y,gyroscope_z
-0.05400769,-0.16532154,-0.97334224,0.3517456,3.7950134,10.332214,0.021362305,-33.48236,-28.804016,1.5158564,2.9976795,9.213387,-0.7317512,0.22075129,-0.14311028,-0.5517273,-0.099609375,-0.48207092
-0.06528123,-0.12797861,-0.9769214,1.758728,1.9932251,9.662216,-0.0076293945,-32.395935,-28.205872,1.6475868,2.2497704,9.401829,-0.8586755,1.5477114,1.930809,-0.4335785,-0.10168457,0.035629272
-0.039461564,-0.14431068,-0.9734995,1.1724854,2.7110748,10.430313,0.033569336,-33.57086,-26.63269,1.2430149,2.6215336,9.36765,0.38655007,-0.20324492,-0.22389793,0.22657776,0.26519775,0.13606262
-0.02194949,-0.19074881,-0.9572783,2.7637177,4.067795,10.997406,-2.5939941,-37.121582,-23.849487,1.2210374,3.4882994,9.083569,0.23776305,0.42124033,0.006512642,0.5200958,0.1558075,0.416687
0.013137312,-0.24917385,-0.9436283,0.39720154,4.78804,5.453247,-1.4465332,-37.216187,-20.672607,0.8197985,4.667668,8.585522,0.6833497,-0.16132545,-1.1688948,0.6671295,0.24351501,-0.013916016
0.03188331,-0.20723912,-0.95480466,0.27278137,4.5726776,7.487137,1.3900757,-34.30481,-23.970032,0.25923976,4.012682,8.944359,0.16131246,0.62051344,-0.44352722,-0.40975952,0.25195312,-0.15899658
0.03909823,-0.094708644,-0.9669995,-1.7850494,2.3401794,8.891724,-0.5569458,-30.166626,-26.760864,-0.30823374,1.9751289,9.600742,-0.27310914,1.1747243,2.6978092,-1.1316833,0.33717346,0.111190796
0.019960836,-0.15743479,-0.95092046,2.2468567,1.138977,8.087738,-4.0374756,-35.021973,-22.924805,0.44797316,3.0402658,9.312706,1.0069287,-1.5286818,1.6048975,0.625473,-0.24951172,0.51612854
0.013694194,-0.18892598,-0.96035373,3.287735,2.8378906,9.379868,0.5722046,-32.296753,-24.673462,0.5000077,3.6134934,9.102914,1.1222925,-1.2914987,-3.4654837,0.28529358,-0.19203186,-0.5361328
-0.046118304,-0.15699331,-0.98548335,-0.8111725,3.419342,6.8482513,3.6712646,-28.701782,-29.203796,1.030774,2.993516,9.2815275,0.6641128,0.7944958,0.79734135,-0.47151184,-0.8136444,-1.4715118
0.1212574,0.15685648,0.9759518,0.33259583,3.5198364,8.877365,8.296204,-32.36847,-24.476624,2.0422952,3.2179914,9.035704,-1.5962977,-0.55316615,4.222144,-0.06565857,-1.1026459,-1.4149323
0.091461785,0.28862545,0.95171493,0.119644165,4.7856445,10.076172,8.261108,-33.399963,-23.10028,1.4203364,5.4784803,8.008701,0.8965229,-0.8420949,1.8378243,0.3531494,0.34083557,0.7052002
0.08731456,0.2682293,0.9592349,0.9643097,6.6472626,-3.706482,5.8639526,-34.951782,-22.561646,1.5519551,5.0759463,8.246004,1.3830175,-0.32122898,0.55301666,-0.16265869,0.21743774,0.38388062
0.04704961,0.23777182,0.97009933,1.3902283,5.6805573,1.7491608,6.3186646,-33.602905,-23.136902,0.83655506,4.5356545,8.6543865,0.5924314,0.67676115,0.7742262,-0.3296814,0.44247437,-0.010543823
-0.0618551,-0.19173922,-0.97949475,-0.38046265,6.6711884,0.8279114,6.0531616,-32.53784,-21.928406,1.1887242,3.6833909,9.010546,0.22524428,1.1253171,0.9195242,-0.48924255,-0.1131134,0.18663025
-0.08775364,-0.1747101,-0.9804259,1.2586212,4.1826477,7.2550354,6.0180664,-35.235596,-21.720886,1.7671278,3.3195467,9.056945,-1.1057318,0.45090508,-4.042798,-0.21159363,-0.23461914,0.27264404
0.13876252,0.17399228,0.95930976,2.9144592,-0.122039795,28.484161,-0.37231445,-31.620789,-25.78125,2.017843,3.7466393,8.835236,-0.49639153,-2.215399,-0.6647978,0.22958374,-0.2644806,-0.29179382
0.12872995,0.14422289,0.96382976,2.2564392,5.25943,13.806595,3.3966064,-29.9057,-26.568604,1.9145223,3.1895964,9.073669,-0.9022294,1.3573258,0.4117098,-0.3668213,-0.0005187988,-0.06388855
0.1878264,0.119903706,0.95106876,7.0037994,3.8428802,9.580856,2.1194458,-27.72522,-27.430725,3.000281,3.025132,8.832739,1.1862237,1.2080398,3.1804829,-0.15045166,-0.6814575,-0.20419312
0.27218986,0.111494444,0.87930024,-1.385437,1.8855438,1.6773682,2.8045654,-28.627014,-27.339172,3.875051,3.9225602,8.10974,1.3395894,-2.8463578,-1.2896543,-0.07249451,-1.1387634,-1.6512909
0.24005069,0.07696217,0.85352075,1.8687897,4.965103,10.638489,0.6820679,-23.200989,-30.981445,3.33018,3.4354045,8.560274,1.3403656,-1.4121048,4.9356194,-0.60328674,-0.0900116,-0.88165283
0.25803086,0.19314635,0.7712281,-1.8568268,1.935791,10.4231415,15.144348,-26.435852,-25.58899,1.8235903,5.6996293,7.769114,-3.112654,-0.83317995,-3.6334147,0.89328,0.10392761,-1.3983307
0.25685012,0.21311903,0.8035307,-2.1320038,6.262024,7.6163483,13.209534,-28.311157,-25.81482,1.9876387,5.8417854,7.6218915,-3.264145,-1.2529392,-0.19085264,0.2406311,0.20985413,0.54216003
0.1551942,0.1613491,0.88495046,6.8769684,3.625122,11.222336,13.180542,-25.402832,-25.221252,1.4014373,4.043447,8.823656,0.09456277,1.3510041,2.9033136,-0.8883209,0.9700928,1.0093536
0.1566269,0.17864752,0.8831855,-0.095718384,4.3334045,5.924637,13.482666,-27.71759,-25.102234,1.2961683,4.3368587,8.69954,3.9061275,-0.96645355,-0.53589344,0.20146179,0.1955719,0.03727722
0.15067184,0.13640957,0.8851306,-0.6077728,4.1826477,11.32045,14.1571045,-24.739075,-27.316284,1.4957469,3.6051798,8.996433,-3.6774726,1.3084617,-0.65610504,-0.4784851,-0.24993896,-0.0574646
0.16084523,0.14188056,0.9010415,0.96191406,3.7112732,9.82254,11.068726,-27.201843,-27.767944,1.793448,3.6966684,8.904413,-1.3531843,0.39402628,0.89805794,0.12976074,-0.04499817,0.4230957
0.15460546,0.14282186,0.92185485,0.57188416,4.072586,11.282166,9.857178,-27.432251,-27.160645,1.8838594,3.5690136,8.937762,-1.6604121,0.6721084,-0.059978485,0.018081665,0.11395264,0.5293274
0.17268305,0.16713056,0.94525164,2.9407806,3.0053864,5.77388,4.676819,-30.340576,-25.274658,2.4777193,3.8463006,8.673942,0.17497683,-0.9352026,1.5640402,0.45059204,0.08004761,1.0075226
0.17051348,0.14393118,0.9593027,4.8502502,2.9551392,8.638092,2.1392822,-29.870605,-23.262024,2.7197053,3.2868242,8.830084,-0.20294333,-0.41128588,-0.7004118,-0.1640625,0.081207275,0.52456665
0.15072702,0.15079214,0.9591321,4.043869,5.0321045,7.2646027,2.4673462,-29.399109,-24.916077,2.2852366,3.3866277,8.915091,1.2517681,0.43249965,-0.74958706,0.011123657,0.24560547,-0.11579895
0.15286283,0.13911681,0.9349212,2.9359894,4.7019043,11.516663,7.054138,-27.487183,-25.54779,2.0159893,3.415776,8.96876,0.8511981,0.6240778,0.789196,-0.2255249,-0.20974731,-1.0041962
0.14261773,0.059334606,0.8863695,2.9072723,0.45703125,8.889343,12.774658,-21.02356,-29.447937,1.971439,2.2523503,9.338669,0.5957682,0.04895711,1.5679436,-0.94433594,-0.42990112,-1.4542694
0.16149782,0.13078453,0.856538,0.28234863,2.3282166,6.448654,15.396118,-22.17865,-27.449036,1.5013417,3.6934314,8.959627,0.78012526,-2.096085,-0.57470894,0.72798157,0.11627197,-0.60865784
0.1566977,0.01941767,0.7332139,1.1294098,-1.5768738,10.93042,15.768433,-7.3165894,-32.36847,2.0015345,2.311998,9.317667,-0.91555107,-1.3449256,-1.0966959,-1.122406,-1.0325928,-2.1173706
0.08814829,-0.10137156,0.46826452,2.1511536,-1.9214325,10.310669,5.052185,10.939026,-33.950806,2.5459278,0.5788408,9.4527025,-1.6909974,-2.8553853,1.8168364,-1.6697388,-0.87638855,-3.3149261
0.0944407,-0.15084016,0.7556047,2.4502563,-0.3254242,11.779861,-3.5446167,23.15979,-29.371643,3.2645898,-1.0677717,9.185462,-1.8576112,0.26551414,1.4703035,-1.5916138,-0.4118805,-2.1648407
0.14080538,-0.15093032,0.6601594,4.2998962,-0.38046265,10.248459,-9.335327,22.984314,-28.03955,3.9610426,0.040258456,8.971004,-2.5536165,-0.20699814,0.18778133,0.06097412,-0.33717346,-1.4049835
0.120736,-0.15550312,0.6795946,3.550949,-0.5383911,8.630905,-7.4157715,22.976685,-29.325867,3.7646172,-0.3992815,9.04647,0.29572654,0.07688296,0.9664707,-0.1278534,0.09965515,0.29078674
0.12894292,-0.14562255,0.7042201,4.2424774,-0.38523865,8.846268,-5.592346,22.521973,-30.323792,3.7311957,-0.2845039,9.064635,-0.22948241,-0.18098924,0.5254946,0.19696045,-0.0057678223,0.30844116
0.12935713,-0.12081774,0.7188126,3.3810577,-0.5647125,8.255234,-5.2230835,21.742249,-30.12085,3.4168034,0.0023655272,9.192162,0.69372725,-0.5735099,0.07726002,0.22395325,0.19000244,0.11810303
0.10931169,-0.11123144,0.7302051,3.7998047,-1.179657,9.126221,-4.3884277,20.635986,-30.60608,3.0167239,-0.16688228,9.329626,0.37194753,-0.5721898,-0.13311672,-0.035598755,0.23014832,0.11613464
0.110051714,-0.10173206,0.7313668,3.0915222,-0.4355011,8.630905,-2.090454,21.812439,-30.989075,2.9061391,-0.023233695,9.366119,0.23999476,-0.58429605,-0.13570881,0.08583069,0.06770325,-0.029541016
0.10392653,-0.10774732,0.7284992,2.703888,-0.6149597,9.865616,-3.2745361,20.573425,-31.721497,2.8976374,-0.17691189,9.367112,0.093792915,-0.3424969,0.12938118,-0.08758545,0.0063171387,-0.04524231
0.10483931,-0.10532808,0.7255042,2.5914307,-0.6125641,9.310471,-2.5375366,20.76416,-31.184387,2.8800135,-0.11701214,9.373485,-0.11594272,-0.45992324,0.16768074,0.023834229,0.0062561035,-0.07095337
0.09811906,-0.096769586,0.7293874,2.7565308,-0.5623169,9.298508,-1.435852,22.23053,-32.21588,2.675447,-0.09483535,9.434161,-0.019652843,-0.58426243,0.11122131,0.03225708,0.109176636,0.012298584
0.082925916,-0.079420194,0.73845744,2.6536407,-0.4402771,9.815353,0.38757324,21.543884,-31.750488,2.236076,-0.069590986,9.548062,0.15507245,-0.3547048,-0.003540039,0.04576111,0.23899841,0.08615112
0.08995743,-0.07221855,0.7441702,5.4891357,2.5507507,15.73999,-0.92926025,16.093445,-35.60028,2.2449403,0.10679281,9.54564,0.45603323,0.9551908,1.6900473,0.094451904,-0.003326416,0.1171875
0.2569128,0.10640335,0.6813895,0.65802,1.4021912,5.1972046,-6.67572,-8.030701,-38.38806,2.020531,4.8335457,8.290035,2.433838,-4.4516363,4.9756575,2.549408,-0.16178894,-1.1421814
0.49231118,0.10740256,0.40637746,1.2705841,6.55394,5.5298157,-20.555115,-28.703308,-20.283508,2.318326,8.215747,4.8267236,-1.0592179,-3.7190256,1.1294513,1.8397675,-2.6446686,-2.2202454
0.51031256,-0.07096939,-0.2535259,-3.625122,8.745773,0.8039856,-14.889526,-34.80072,-12.620544,-1.3979349,8.547187,4.60019,-2.4307833,-0.7043166,-0.25130606,-0.28611755,-5.606964,-4.7020874
0.35996458,-0.03992525,0.03672828,16.716263,-5.52742,15.409775,-19.630432,-27.842712,-20.14618,0.9886428,6.5469213,7.2340026,-0.8236192,0.24805784,-1.8480172,-1.6179352,1.3595734,2.9148407
0.43293506,-0.017012479,-0.013067777,8.3485565,1.8448639,7.360321,-19.216919,-31.698608,-17.47284,0.18973187,7.65645,6.124798,0.02798976,-1.1604729,-0.24235868,0.2720337,-0.7138977,-1.8187256
0.4036812,-0.051741123,0.2583348,2.6799622,5.2666016,5.7188416,-27.18811,-20.167542,-21.592712,2.9344935,6.674722,6.557988,1.067347,1.2725062,-0.051628113,-0.16400146,0.911499,2.6527863
0.28997654,-0.03971506,0.504803,4.347763,7.137787,7.056427,-27.89917,-4.133606,-27.363586,3.5035965,4.2255354,8.126502,1.3753817,2.4919863,-0.85541964,-0.6263733,1.4885254,2.4721375
0.21047367,0.053534936,0.47890815,2.5698853,2.8737793,8.365311,-7.046509,12.561035,-36.74774,1.0838692,4.0141063,8.881586,1.8795114,-2.0450754,2.2689743,0.72883606,2.7273102,2.7639008
0.18996759,0.021651486,0.4307039,0.7513428,2.4382935,12.236893,3.8146973,9.289551,-38.916016,1.230205,3.4691663,9.089657,0.8994466,1.2084455,1.8535347,-0.3753662,-0.2683258,-0.5349884
0.4402822,-0.14064118,0.2281755,1.799408,3.768692,0.37088013,-14.254761,-0.19226074,-33.1604,4.334137,6.770406,5.6166925,-2.5659878,-2.2398677,1.5311928,1.7640839,-3.0276337,-1.3134766
0.28463906,-0.002232583,0.38014454,2.6990967,4.094116,6.175873,-7.3379517,0.66986084,-38.101196,2.1607728,4.896349,8.217495,0.4128306,-2.3028965,1.4704309,-0.9235687,2.226654,0.72114563
0.14437175,0.023528703,0.40087026,1.7276154,2.526825,13.0169525,-2.4398804,7.545471,-36.750793,0.71775687,2.7458448,9.386989,0.68005884,1.2448864,-0.90802956,-1.258255,0.8878021,0.022247314
0.16020237,-0.044699203,0.4033951,2.4263153,2.423935,8.985046,-0.982666,11.358643,-36.714172,2.0563452,2.4735496,9.264091,-0.5099927,0.4119513,2.0182705,-0.120391846,-0.70840454,0.17240906
0.1776516,-0.019016461,0.4223174,1.5266266,3.5748749,11.203201,-5.5892944,12.501526,-35.461426,1.8029454,2.9388933,9.18056,1.4992452,-0.42256784,1.4064121,0.29737854,0.1954956,0.058166504
0.11972523,0.07162036,0.51301783,-0.5766754,0.27038574,8.683548,-1.2451172,10.829163,-36.357117,0.014930981,2.7094905,9.424906,0.25465038,-1.2518134,1.7916622,-0.0044555664,1.2121124,0.73153687
0.124481514,0.10852707,0.551378,1.0528412,1.8472595,9.650253,8.036804,8.102417,-37.594604,-0.39444727,3.17017,9.271721,-0.5956291,-1.0512185,-0.9996939,0.25779724,0.3336792,0.4278717
0.08779351,0.058481943,0.5471922,3.144165,0.9188385,10.58107,9.373474,8.985901,-36.564636,-0.010190273,2.0574098,9.588396,0.607706,0.3976494,-0.53498745,-0.6134186,-0.20466614,-0.075546265
0.036141768,-0.017888457,0.46945205,-0.24406433,1.2035828,11.026123,8.665466,16.207886,-34.005737,0.6422396,0.46053192,9.7747555,0.919872,-0.1752016,2.5561543,-0.8571625,-0.43545532,-0.95928955
0.112362064,-0.018453611,0.34645882,3.7088776,0.48095703,12.878174,-0.04425049,19.343567,-33.540344,1.100532,1.9266169,9.552349,0.64223444,-0.56053185,2.41263,0.6638336,-0.37773132,-1.4339294
0.2687788,-0.0002786811,0.123252526,4.2305145,0.04547119,6.8410797,-7.91626,10.891724,-35.542297,0.6549643,5.035237,8.389744,4.0481386,-4.6081614,3.675188,1.6470337,-0.7013092,-2.6534119
0.39677724,-0.13724115,-0.23105823,-3.4719849,10.198212,5.15654,-19.038391,-10.13031,-33.477783,0.5644106,7.4522552,6.3494663,0.44771105,-2.0068884,4.235422,1.5395813,-2.499466,-2.8986816
0.38604248,-0.26333004,-0.38574862,2.732605,-8.355743,16.323837,-23.205566,-31.323242,-15.420532,1.187874,8.015514,5.5236645,-3.0195389,-2.7275653,-3.305417,0.3271942,-1.9218292,-0.95092773
0.41804722,-0.35337546,-0.41367003,-7.257431,17.407791,-7.848465,-25.645447,-32.0755,-14.794922,1.6503211,8.831974,3.9297662,-1.1652461,-3.7234669,2.4514315,0.9613342,-0.67077637,-0.1005249
0.45928445,-0.1870663,-0.11395738,1.8089752,-6.386444,24.373291,-21.836853,-34.576416,-7.2296143,2.1319423,8.172796,4.9830337,-2.8093328,-4.922606,-1.460681,2.6131897,1.9716644,2.4098358
0.13720177,-0.13993968,0.30757302,-2.3904266,2.6895294,3.3475647,-27.449036,-26.545715,-19.181824,3.3833084,1.6614456,9.053353,0.5218899,-5.515498,8.416523,-2.446228,2.4156494,3.968048
0.044827417,-0.04467343,0.5932106,4.4482574,-0.2679901,9.951752,-4.7851562,16.127014,-35.20813,1.2247529,0.1858508,9.728094,6.6425123,-0.9656137,2.1198387,-0.09919739,1.5000763,2.9852753
0.060285546,-0.07361684,0.70355135,4.2592316,-0.34934998,10.944778,5.267334,16.067505,-35.40497,1.8487165,-0.1831373,9.629076,2.818781,0.13634984,0.6945038,-0.017028809,-0.25012207,1.5191803
0.1827549,0.05198066,0.98136705,1.2107697,1.8376923,7.2095795,1.1230469,13.464355,-36.219788,3.4884903,1.102996,9.098584,0.4737947,-0.677722,1.6030798,0.63183594,-0.917984,-0.23651123
-0.18501337,-0.08974089,-0.97595984,3.0675964,1.0241241,12.150757,-3.9215088,8.68988,-37.21161,3.668644,1.455651,8.977334,-1.9096782,0.79927266,0.40325165,0.20166016,-0.1481018,0.06715393
-0.16908482,-0.15106508,-0.942357,4.76651,0.67237854,7.1593323,-1.1627197,5.747986,-38.45215,3.8542414,1.9760333,8.798324,-0.23098373,-1.0217638,1.2496748,1.0312195,0.2032013,1.6285858
-0.056853987,-0.08065126,-0.9256877,4.060623,-1.4763641,12.457031,6.4804077,-3.4439087,-38.145447,1.6099036,1.0570637,9.615675,2.8239942,-1.0742415,-0.7738037,0.23892212,1.7129669,2.2802734
-0.018118793,-0.08747289,-0.8474932,-0.72024536,1.2658081,7.549362,13.208008,-10.237122,-34.820557,1.1988529,1.2680446,9.65014,0.5453918,-1.9359667,0.53550434,0.506546,0.5660553,2.7627258
-0.06877682,-0.04590609,-0.7105426,1.8376923,-1.8137665,10.9088745,5.1345825,-14.413452,-35.41565,1.5876389,-0.30285957,9.672542,-1.8930523,0.10279277,0.48684692,-0.50572205,-0.103881836,2.2450256
-0.1230246,-0.086786814,-0.6281157,4.146759,-0.93559265,9.111862,-3.590393,-13.313293,-36.04126,2.8150597,-0.7728965,9.362075,0.64887357,-1.2440917,1.6938486,0.098968506,-0.74131775,1.4672546
-0.14796707,-0.12805073,-0.59684736,5.1421814,-0.9403839,8.047058,-12.857056,-14.474487,-31.44226,3.6863887,-0.75924015,9.055633,1.6299667,0.18644351,-1.4774265,0.015655518,-0.42678833,0.0625
-0.22310461,-0.07376759,-0.59761167,3.3882294,-3.122635,12.425934,-9.667969,-6.9381714,-36.080933,3.7241454,-2.4897687,8.723656,0.40429068,0.5629327,1.873703,-1.1550751,0.03215027,-0.31396484
-0.19643404,-0.1103537,-0.65218896,3.378662,-2.297104,7.5469666,-10.983276,-8.06427,-33.461,4.0792923,-1.3769975,8.810995,-0.9265833,-0.51138747,0.7843685,0.40696716,-0.1038208,-0.56741333
-0.17907949,-0.050281003,-0.6862954,0.32781982,-0.76091003,7.101898,-7.321167,-8.454895,-36.257935,3.103919,-1.7928461,9.128076,-0.52625966,-0.6562526,-0.48726273,-0.21537781,0.5382538,0.0015411377
-0.21849892,-0.020248504,-0.61163497,3.0915222,-2.120041,8.458633,-8.265686,-4.1381836,-37.228394,2.923018,-3.014489,8.862234,-0.2823856,0.69271255,0.5907793,-0.47384644,-0.108947754,0.72769165
-0.22162619,-0.034302954,-0.5246727,4.3788605,-5.6398773,15.230316,-12.478638,-5.0842285,-35.66284,2.833179,-3.2167563,8.820202,0.85347795,0.015037775,2.1196747,0.104156494,-0.21481323,0.7498627
-0.17522313,-0.11406448,-0.5663696,5.0823517,-4.2185516,6.20459,-15.884399,-11.444092,-34.327698,3.7299023,-1.4726342,8.949277,0.3663299,-3.0629325,0.118927956,1.1898651,-0.5988617,0.30545044
-0.21759671,-0.1427285,-0.67809886,4.967499,-3.053238,3.7112732,-17.308044,-15.136719,-31.018066,4.8181596,-1.0352489,8.478442,-0.43055725,-2.416435,-3.3111992,0.1010437,-0.54756165,-0.46632385
-0.35036188,0.05131926,-0.8467077,6.2811584,-9.178864,9.848862,-14.854431,-5.2124023,-30.230713,5.418656,-3.5811098,7.347395,1.4903784,-2.2298663,-1.4485455,-2.3815918,0.0231781,-1.3118744
-0.34462434,0.23801377,-0.90352374,0.6795654,-6.7118683,6.2668,-4.73938,11.851501,-33.587646,5.68366,-4.830991,6.3661532,-0.5592408,-4.5131817,1.9419737,-3.2261047,1.5626831,-2.9221344
-0.29444677,0.29164878,-0.9099058,2.4358978,-4.54158,8.736191,2.0248413,25.518799,-27.154541,5.153485,-5.3070984,6.437911,-4.1241035,-0.79194117,1.4088454,-1.7017517,1.4901276,-1.5181122
-0.37829652,0.24774443,-0.88370126,4.977066,-4.3334045,4.388443,-3.692627,24.977112,-24.919128,5.9698935,-5.190086,5.796014,-2.6934395,1.2319789,1.7950392,-0.124176025,-0.5664978,-0.25245667
-0.47773263,0.22985874,-0.8204724,8.882156,-6.6759796,3.2614136,-11.149597,25.193787,-22.906494,6.7233453,-5.7033324,4.294067,2.5906143,-2.1700506,1.6831403,0.24099731,-1.3936768,0.5870056
0.20363434,-0.33107513,0.69616944,8.506485,-7.9489594,4.924423,-9.645081,25.094604,-25.404358,6.37684,-4.7979536,5.699643,1.6465502,-1.2612896,-3.0569854,0.11973572,1.1143646,-0.66955566
0.117053784,-0.34971493,0.5313053,4.3262177,-5.2737885,5.517853,-12.240601,21.292114,-27.357483,6.4511905,-1.8932402,7.1391997,-3.4206352,-1.3207866,-0.21666431,-1.5563049,0.57063293,-1.9000244
0.09051838,-0.35149145,0.44501883,4.3262177,-2.1320038,12.392426,-15.3289795,24.143982,-26.875305,6.433896,-1.6144835,7.222797,-1.4089847,0.35946155,1.6274786,-0.5742035,0.16319275,-0.8379059
0.02495022,-0.34478036,0.38121828,4.256836,-0.9523468,6.317047,-17.16919,26.208496,-26.683044,5.984696,-2.158319,7.462939,0.07325649,0.19039035,0.5104985,-0.7850189,0.41804504,-0.46376038
-0.04916592,-0.36728436,0.28617454,5.924637,-0.32781982,7.1162567,-19.08722,31.530762,-24.386597,6.0893564,-2.9135864,7.1134486,0.049637794,1.6959422,-0.7958274,-1.095459,0.17706299,-0.63790894
-0.15344548,-0.33999082,0.14568058,6.0849457,-4.1898346,6.8410797,-21.272278,35.102844,-14.961243,5.6718826,-3.7291718,7.077669,0.70085526,0.5101497,2.338048,-1.3938599,0.71687317,-0.9039459
-0.1953187,-0.34257308,-0.007964131,3.6562347,-2.3401794,2.967102,-27.674866,34.776306,-9.103394,6.204784,-3.4667637,6.75667,-0.42211676,-0.7187302,-0.430593,-0.89424133,0.29885864,-1.3185425
-0.35876638,-0.3903091,-0.043732,18.96791,-5.3240356,13.660629,-33.177185,31.463623,-4.7943115,6.790021,-5.6236525,4.2942433,2.911512,-0.40096855,0.6191735,-1.8288116,-0.632782,0.12432861
-0.19739339,-0.39846933,-0.37131798,6.295517,-2.7900238,3.3044891,-38.37433,24.841309,5.3985596,7.8077874,-0.25371125,5.928278,3.1742215,-5.027535,3.0126853,0.10232544,1.1301422,-3.61615
0.0076191034,-0.36424845,-0.66602755,4.5750732,2.6823578,8.183456,-42.871094,-8.575439,-1.0726929,4.550584,4.8554444,7.2032785,0.7963929,-4.345098,-0.5416689,0.20800781,1.0419159,-3.941742
0.22159237,-0.35221872,-0.7438927,-4.5726776,3.9864502,3.3690948,-22.389221,-34.223938,-5.5496216,0.37945846,7.4117026,6.410388,-1.069016,-3.259131,-2.78658,1.032196,1.0966492,-2.1791382
0.0889379,-0.4173761,-0.53365445,7.618744,-4.74736,5.654236,-15.499878,-38.963318,-3.0960083,5.0461035,5.6421866,6.2348175,-4.8625283,-6.4708834,-1.7831316,0.15345764,-0.01524353,3.44104
-0.15494953,-0.41827768,-0.28550476,9.812973,-6.427124,0.5647125,-38.664246,-15.136719,-2.581787,7.8265157,-0.23565516,5.9042783,3.262312,-3.3930526,-2.655098,-0.90927124,-0.44126892,3.5028076
-0.5565268,-0.3166488,-0.1647766,12.43071,-19.21437,7.968094,-42.170715,7.885742,6.404114,6.457978,-7.1657662,1.7654222,4.869422,-5.49834,-0.3511536,-3.5317993,-0.72605896,2.7249908
-0.75895816,-0.09138474,-0.24520035,4.742569,-7.664215,1.763504,-34.39026,17.779541,19.500732,4.718656,-8.436023,-1.6547482,4.699022,-2.7490377,8.080207,-3.3181763,1.4631805,1.3462524
-0.7539817,0.09258246,-0.4227561,4.9986115,-6.6472626,0.64367676,-39.071655,13.299561,12.135315,5.354385,-8.075681,-1.5113994,-1.3234882,1.512764,3.679844,-1.4645996,2.467636,0.21534729
-0.6969318,0.24521534,-0.48341894,10.31546,-10.9040985,0.6891327,-38.05847,15.153503,-2.4032593,4.3497043,-8.74311,-0.8991607,3.3326,1.0523081,1.1643898,-0.5861206,1.5380096,0.94111633
-0.66624177,0.23417956,-0.52370596,7.5350037,-9.714859,0.9667053,-33.90045,20.935059,-7.286072,4.6549745,-8.631394,0.025140917,5.040241,-0.6749706,0.6258495,0.31497192,0.41279602,-0.02998352
-0.6884412,0.021665545,-0.54483914,3.6275177,-7.2550354,-2.4717865,-32.84149,14.0060425,-7.608032,7.1535196,-6.689233,0.50169456,-1.6927657,-1.7055459,-0.45760933,1.1640167,-1.062149,-1.6464539
-0.6607285,0.21276027,-0.6605623,3.151352,-7.556534,-1.146164,-36.24115,6.877136,-1.1444092,7.366576,-6.463507,0.35639146,-3.129414,-0.1443224,-1.0953311,0.03691101,-0.10101318,-0.21525574
-0.5811826,0.43200448,-0.5979549,11.32283,-5.8911285,-0.06700134,-31.266785,14.373779,-4.0481567,3.904849,-8.982956,-0.47858563,2.5086012,-0.5912876,1.7962502,-1.0644226,0.6422882,2.3025665
-0.5458637,0.49281788,-0.6211331,3.0915222,-6.2309113,0.18664551,-27.45514,23.869324,-1.9683838,4.032038,-8.903457,-0.8009411,3.0933719,0.7476568,0.8809837,-0.55355835,0.8872528,0.08895874
-0.5369815,0.5170378,-0.5998609,5.5202484,-8.640488,-1.2131653,-25.305176,25.32959,-2.5924683,3.3700802,-9.144422,-1.0920144,1.2747793,1.4751053,0.75533915,-0.14801025,-0.10461426,0.40715027
-0.6035384,0.46035066,-0.5409711,5.477173,-9.099899,1.931015,-25.038147,24.864197,3.2684326,3.1336253,-9.171599,-1.494167,2.881787,-1.739191,0.87888765,0.16262817,-1.2336273,0.0113220215
-0.73141205,0.25427026,-0.46020782,3.8476562,-9.578476,1.8448639,-28.230286,23.175049,5.5480957,4.436121,-8.524894,-1.9538177,-0.102595806,-0.5808258,3.3373616,0.5584717,-2.196106,-1.1900787
-0.75577295,0.106481455,-0.45481536,2.9910278,-8.243271,0.6412811,-29.551697,17.95044,10.050964,5.783377,-7.7525945,-1.6187068,-2.2340503,-1.2163057,2.9819922,0.6419678,-0.85964966,-1.111023
-0.72071695,0.045026045,-0.46497202,6.3218384,-11.251053,-2.096115,-35.472107,12.200928,5.194092,6.120354,-7.650783,-0.42090672,-1.7530022,-1.5184307,-0.3799756,0.9413605,-0.16160583,-0.32110596
-0.7184468,0.0720651,-0.4389755,5.9030914,-7.199997,0.3397827,-35.864258,12.007141,7.8155518,5.429841,-8.155472,-0.41892433,0.39780903,0.35585022,0.59768254,-0.0005340576,-0.016403198,0.45817566
-0.70548487,-0.02515608,-0.31101865,7.10907,-6.776474,0.8422699,-31.599426,17.762756,16.740417,4.6174946,-8.651478,0.032524116,2.3271403,1.1873474,1.1031027,1.0336609,-1.3836517,0.52145386
-0.6574815,-0.20436399,-0.19385535,8.480164,-8.271988,6.900894,-25.93689,22.904968,22.540283,5.300955,-8.234753,0.5090332,2.0751848,1.1821823,2.3621132,1.21344,-1.790863,-0.29606628
-0.45193145,-0.39013493,-0.14225312,4.864609,-12.507278,12.028717,-23.184204,27.333069,20.458984,7.3020673,-5.9095626,2.8155425,-0.71922445,-4.6052794,9.064505,2.7007904,-1.5526123,-1.2810974
-0.07043195,-0.3958214,-0.11365991,5.950943,-8.145172,4.118042,-32.385254,26.890564,-1.4541626,7.210342,-0.37267745,6.6364493,-2.256651,-12.182084,2.5339632,4.25795,0.76538086,-1.4130402
0.038494892,-0.32501426,-0.22120358,11.066803,3.0269165,-1.0049896,-39.512634,11.878967,-25.738525,5.6891384,2.1036909,7.7057495,0.35242367,1.495872,-5.3583474,-1.1863556,-0.63002014,-0.79582214
-0.00696471,-0.074036784,-0.33673635,5.6039886,0.4355011,8.0686035,-45.39337,6.845093,-18.972778,1.4090289,0.3607552,9.698189,1.0774621,0.4276397,1.3541613,-1.4687653,2.313324,-0.9908142
-0.033957712,-0.03249656,-0.36075822,2.4502563,-2.8091736,9.08316,-40.83252,9.388733,-26.042175,0.83396214,-0.3904486,9.763322,1.081032,-2.3918936,1.244051,-0.3450775,0.3255005,-0.18855286
-0.020993622,-0.001724457,-0.36553207,1.2514496,0.3900299,4.5798645,-23.524475,17.112732,-37.184143,0.18198307,-0.37079903,9.797948,-0.017437533,0.25431693,0.5448046,-0.0009765625,0.34057617,-0.050979614
-0.020695759,-0.0017428541,-0.36513314,0.14117432,-0.25602722,9.8033905,-19.60144,18.313599,-36.042786,0.18002702,-0.36531064,9.79819,-0.032171994,0.12335035,0.15844917,-0.0007324219,3.0517578e-05,0.00032043457
-0.020404322,-0.001785347,-0.36479414,0.12921143,-0.24885559,9.793823,-18.005371,18.132019,-36.6745,0.17858478,-0.35975385,9.798422,-0.03232482,0.11194903,0.14873219,-0.00048828125,-0.00016784668,-3.0517578e-05
-0.020133233,-0.0018293828,-0.36439025,0.15074158,-0.24406433,9.793823,-18.29071,19.14215,-37.66632,0.17729557,-0.35456866,9.798634,-0.030937448,0.11043674,0.13771343,-0.00036621094,-0.0004119873,0.0005645752
-0.019941583,0.00043981208,-0.4685985,0.13639832,-0.23210144,9.791428,-18.501282,19.630432,-36.50055,0.17565987,-0.34947416,9.798847,-0.028009817,0.10733041,0.13062477,-0.00036621094,-4.5776367e-05,0.0015411377
-0.018064778,5.2734253e-05,-0.46786693,0.14356995,-0.2368927,9.793823,-19.664001,18.901062,-37.205505,0.16485597,-0.3135572,9.800249,-0.020919025,0.069643885,0.085671425,-0.00036621094,-0.000289917,0.0009460449
-0.016820433,-0.00027294966,-0.46734685,0.13877869,-0.23928833,9.800995,-19.836426,18.443298,-36.006165,0.15891166,-0.289105,9.801099,-0.013551965,0.046675146,0.054574013,0.00012207031,-0.00076293945,0.00044250488
-0.015931277,-0.00056736404,-0.46694335,0.1531372,-0.22253418,9.784256,-18.991089,19.374084,-35.928345,0.15574206,-0.27106774,9.801666,-0.006356582,0.036147594,0.033366203,-0.00036621094,-3.0517578e-05,0.0005645752
-0.015392873,-0.0006877465,-0.46672994,0.1483612,-0.23449707,9.784256,-19.244385,18.989563,-35.542297,0.15283598,-0.26066858,9.801994,-0.006733328,0.021545142,0.022580147,-0.00024414062,-0.000289917,0.0005645752
-0.0150595475,-0.000783999,-0.46658644,0.1483612,-0.25125122,9.791428,-19.458008,19.628906,-35.253906,0.15141287,-0.2540327,9.80219,-0.0039687306,0.014120668,0.011723518,-0.00048828125,-0.000289917,0.00044250488
-0.014797836,-0.0007988603,-0.46650591,0.14117432,-0.24406433,9.78186,-18.345642,19.111633,-34.27124,0.149253,-0.24937218,9.802342,-0.0047620386,0.009823665,0.008465767,-0.00012207031,-4.5776367e-05,0.0007019043
-0.014635932,-0.0008494776,-0.46643424,0.14596558,-0.23449707,9.765106,-18.199158,17.236328,-35.64148,0.14862972,-0.2461135,9.802435,-0.002023086,0.0075769573,0.004702568,-0.00036621094,-0.00016784668,0.00044250488
-0.014565,-0.00087361794,-0.46640182,0.1531372,-0.2368927,9.779465,-18.746948,17.488098,-35.18982,0.14839062,-0.24466799,9.802474,-0.001069054,0.004011765,0.0023450851,-0.00036621094,-0.000289917,0.00019836426
-0.014482212,-0.0008805035,-0.4663752,0.15074158,-0.22970581,9.772293,-19.119263,18.2724,-36.07025,0.14774545,-0.24317369,9.802521,-0.0016287416,0.004440218,-0.00017261505,-0.00036621094,-4.5776367e-05,0.0008239746
-0.014431675,-0.0009260475,-0.4663371,0.1483612,-0.23449707,9.772293,-19.902039,18.499756,-34.407043,0.14806286,-0.24188702,9.802548,-3.1292439e-06,0.0035980493,-0.0025053024,-0.00024414062,-0.00016784668,0.0005645752
-0.014384495,-0.0009120422,-0.46633145,0.15074158,-0.2368927,9.772293,-18.87207,18.359375,-35.687256,0.14738683,-0.24119782,9.802576,-0.0021937191,0.0031235218,-0.0024461746,-0.00036621094,-0.00016784668,0.0007019043
-0.014358851,-0.0009474748,-0.4663056,0.1483612,-0.23928833,9.769897,-19.068909,17.468262,-35.255432,0.14775994,-0.24043329,9.802588,-0.00037539005,0.0032688826,-0.0030460358,-0.00061035156,-0.00016784668,0.00032043457
-0.014333681,-0.000999251,-0.46627128,0.14356995,-0.23210144,9.765106,-19.68689,18.086243,-35.707092,0.14841868,-0.23952897,9.802601,0.00042289495,0.003295362,-0.002655983,-0.00036621094,-0.000289917,0.00032043457
-0.014287549,-0.001012424,-0.46625155,0.14596558,-0.22253418,9.769897,-17.755127,18.139648,-35.47516,0.14822002,-0.2386117,9.802627,-0.0010399669,0.0033140182,-0.002234459,-0.00024414062,-0.00016784668,0.00044250488
-0.014290122,-0.0010130324,-0.46625194,0.13639832,-0.24406433,9.777069,-19.529724,18.09845,-35.939026,0.14825422,-0.23865071,9.802626,-0.0008136183,0.00093108416,-0.0021181107,-0.00012207031,-0.000289917,0.00032043457
-0.014304416,-0.0009922865,-0.46626687,0.14117432,-0.2416687,9.777069,-18.229675,18.405151,-36.231995,0.14802904,-0.23908585,9.802618,-0.0013061017,0.0006224215,-0.002026558,-0.00036621094,-0.00016784668,0.0007019043
-0.014299921,-0.0010531945,-0.46623343,0.14356995,-0.2368927,9.757935,-18.63556,18.304443,-36.009216,0.14903559,-0.23845649,9.802618,0.0008433908,0.0025716126,-0.005170822,-0.00024414062,-0.000289917,0.00032043457
-0.014294487,-0.0010018959,-0.46625903,0.1483612,-0.2368927,9.757935,-19.023132,18.565369,-35.562134,0.14810283,-0.23882706,9.802623,-0.0020358115,0.0017005354,-0.0027866364,-0.00061035156,-4.5776367e-05,0.00032043457
-0.014301911,-0.0009891087,-0.46626785,0.15074158,-0.23449707,9.769897,-17.477417,17.138672,-35.765076,0.14795126,-0.23907128,9.802619,-0.00091536343,0.0007404238,-0.0010519028,-0.00036621094,-0.00016784668,0.0005645752
-0.014212646,-0.0018818598,-0.41051006,0.14596558,-0.23928833,9.762711,-19.082642,18.84613,-34.521484,0.14808449,-0.23900303,9.802619,-0.00032304227,0.001376912,-0.001004219,-0.00024414062,-0.00016784668,0.0007019043
-0.014191373,-0.0018608288,-0.41052198,0.14596558,-0.2368927,9.762711,-18.580627,17.726135,-36.128235,0.14754027,-0.23879014,9.802632,-0.0016878694,0.0009199232,-2.193451e-05,-0.00012207031,-0.00016784668,0.0005645752
-0.014164577,-0.0018490078,-0.4105218,0.1483612,-0.2416687,9.755539,-17.96875,18.934631,-36.512756,0.14711308,-0.23840629,9.802648,-0.00076036155,0.0004905611,-0.003853798,9.1552734e-05,4.5776367e-05,-0.0005187988
-0.0141209625,-0.0018279942,-0.41052333,0.14356995,-0.23210144,9.76033,-18.710327,18.370056,-35.54077,0.14638658,-0.23779553,9.802674,-0.001004979,0.0008545965,0.0009355545,-3.0517578e-05,4.5776367e-05,0.00021362305
-0.014115322,-0.0018135478,-0.41053566,0.1531372,-0.23449707,9.757935,-18.572998,17.869568,-35.949707,0.14608605,-0.23780903,9.802678,-0.00045198202,-0.0003530532,-0.0012922287,9.1552734e-05,4.5776367e-05,-0.0002746582
-0.014125754,-0.0018467137,-0.41050613,0.1483612,-0.2368927,9.765106,-20.075989,18.348694,-35.188293,0.14675541,-0.23773322,9.80267,0.001278609,-0.000659734,-0.00022697449,0.00033569336,4.5776367e-05,-4.5776367e-05
-0.014073401,-0.0018562599,-0.4104719,0.14356995,-0.22970581,9.755539,-19.610596,17.94281,-35.136414,0.14649574,-0.23672587,9.802698,-0.00036391616,0.001668796,-0.00079631805,9.1552734e-05,4.5776367e-05,7.6293945e-05
-0.014020869,-0.0018527355,-0.41045114,0.14356995,-0.23210144,9.762711,-18.722534,18.074036,-35.221863,0.14600447,-0.23581839,9.802728,-0.00082822144,0.0012408644,-0.0010147095,0.00021362305,4.5776367e-05,-4.5776367e-05
-0.014025879,-0.0018497882,-0.41045654,0.14356995,-0.23928833,9.762711,-18.251038,17.96875,-36.47003,0.14599349,-0.23593083,9.802725,0.0008600652,-0.0008121431,0.000118255615,0.00021362305,4.5776367e-05,7.6293945e-05
-0.014021319,-0.0018605945,-0.41044322,0.14596558,-0.23928833,9.762711,-18.841553,17.266846,-35.68268,0.14614657,-0.23576441,9.802726,0.00046776235,0.00069378316,-0.0005598068,-0.00015258789,0.00016784668,-4.5776367e-05
-0.013979021,-0.0018715597,-0.4104122,0.14117432,-0.22970581,9.76033,-18.566895,18.092346,-36.280823,0.14599419,-0.23492488,9.802749,-0.00010538101,0.0008316487,0.0010538101,0.00021362305,4.5776367e-05,-0.00016784668
-0.013982225,-0.0018561204,-0.4104297,0.14356995,-0.23210144,9.757935,-20.040894,17.48352,-36.19232,0.14574839,-0.23510367,9.802749,-9.5918775e-05,-0.00091202557,-0.0012168884,0.00021362305,4.5776367e-05,-4.5776367e-05
-0.013989143,-0.0018536787,-0.41043544,0.14596558,-0.22970581,9.745972,-18.006897,18.058777,-36.538696,0.14576188,-0.23524606,9.802744,-8.673966e-05,-0.0003337264,-0.0030498505,9.1552734e-05,-7.6293945e-05,-3.0517578e-05
-0.013967982,-0.001876747,-0.41040167,0.14356995,-0.23210144,9.76033,-18.170166,17.971802,-36.323547,0.1459954,-0.23468743,9.802754,0.0011172146,0.0005412251,-0.00028133392,9.1552734e-05,0.00016784668,-4.5776367e-05
-0.0139934085,-0.0018878452,-0.41040197,0.14596558,-0.23449707,9.753143,-18.5318,18.669128,-35.10742,0.1463986,-0.23505266,9.80274,0.0007276386,-0.0017386377,-0.0016298294,0.00021362305,4.5776367e-05,-4.5776367e-05
-0.014043049,-0.0018573824,-0.41045663,0.1483612,-0.2416687,9.748352,-18.405151,18.026733,-35.69641,0.14626752,-0.23617662,9.802714,-0.00032554567,-0.0027972609,-0.0009384155,9.1552734e-05,4.5776367e-05,7.6293945e-05
-0.014005566,-0.0018517767,-0.41044503,0.14596558,-0.2368927,9.755539,-17.764282,18.15033,-36.90796,0.14586256,-0.2355535,9.802736,-0.0003990978,-0.0002988875,0.00047969818,0.00033569336,0.00016784668,-4.5776367e-05
-0.014016544,-0.0018400898,-0.41046223,0.14117432,-0.23210144,9.765106,-18.302917,18.696594,-36.849976,0.14574638,-0.2358411,9.802731,-0.00029073656,-0.0011910349,0.00095653534,0.00021362305,-7.6293945e-05,-0.00016784668
-0.01404819,-0.0018526578,-0.41046393,0.14596558,-0.2416687,9.750748,-19.30542,18.055725,-37.84485,0.14622632,-0.23630543,9.802712,0.0006713867,-0.002416253,-0.00080776215,0.00033569336,-0.00019836426,0.00021362305
-0.014081056,-0.0018501703,-0.41048178,0.14117432,-0.24406433,9.769897,-18.28003,17.538452,-37.387085,0.14645104,-0.23691018,9.802694,0.0006671399,-0.0022720546,0.0012016296,0.00033569336,4.5776367e-05,0.00033569336
-0.01410909,-0.0018201881,-0.4105259,0.14596558,-0.2416687,9.757935,-18.299866,18.843079,-37.046814,0.14615208,-0.23764573,9.802682,2.540648e-05,-0.0022680312,-0.0009584427,0.00021362305,0.00016784668,7.6293945e-05
-0.014089606,-0.001858213,-0.4104774,0.14356995,-0.23449707,9.762711,-18.315125,18.47992,-36.968994,0.14666256,-0.23699899,9.80269,0.001419887,0.00020876527,0.00062179565,0.00021362305,0.00016784668,-0.0004119873
-0.014065441,-0.0018349697,-0.41049027,0.14356995,-0.2368927,9.750748,-17.404175,17.378235,-37.683105,0.14605573,-0.23675205,9.802705,-0.0010752529,-5.915761e-05,-0.0018186569,0.00021362305,4.5776367e-05,-0.00016784668
-0.014017935,-0.0018295672,-0.4104738,0.15074158,-0.23449707,9.748352,-17.152405,18.978882,-35.177612,0.1455724,-0.23594883,9.802731,-0.00058732927,0.00032049417,-0.0009098053,9.1552734e-05,4.5776367e-05,-0.0004119873
-0.013969947,-0.0018792666,-0.41039997,0.1483612,-0.23210144,9.755539,-17.170715,18.769836,-36.428833,0.14605583,-0.23470256,9.802753,0.0010961443,0.0019278079,-0.0017309189,9.1552734e-05,4.5776367e-05,-0.00016784668
-0.013954294,-0.0019178297,-0.41035274,0.14596558,-0.2368927,9.745972,-17.633057,19.250488,-36.688232,0.14660735,-0.23411988,9.802759,0.0015147179,-9.612739e-05,-0.0008401871,0.00033569336,0.00016784668,0.00021362305
-0.013907016,-0.001933134,-0.4103149,0.14117432,-0.23449707,9.750748,-18.544006,18.681335,-36.691284,0.1464909,-0.23315747,9.802784,0.00019477308,0.0011000931,0.00022506714,0.00021362305,4.5776367e-05,0.00033569336
-0.013908993,-0.0019373351,-0.41031146,0.1483612,-0.22732544,9.753143,-19.28711,18.341064,-36.95526,0.14658105,-0.23315954,9.802782,0.0005803555,-0.0010529459,-0.00033855438,0.00033569336,0.00016784668,0.00021362305
-0.013937758,-0.0019593565,-0.41030198,0.1483612,-0.23449707,9.748352,-17.915344,18.507385,-37.358093,0.14720394,-0.23349817,9.802765,0.0014058053,-0.0014505088,-0.0015153885,0.00021362305,4.5776367e-05,-4.5776367e-05
-0.013942495,-0.0019027495,-0.41036287,0.13877869,-0.22732544,9.750748,-18.553162,18.38379,-36.22284,0.14624532,-0.23402867,9.802767,-0.0017036796,-0.0018768162,0.0005788803,0.00021362305,4.5776367e-05,-4.5776367e-05
-0.013981646,-0.0019258711,-0.4103571,0.13877869,-0.22732544,9.753143,-18.395996,18.322754,-36.167908,0.14697242,-0.2345435,9.802744,0.0011576861,-0.0020801425,6.389618e-05,0.00021362305,4.5776367e-05,-3.0517578e-05
-0.01400163,-0.0018979688,-0.4103953,0.14117432,-0.23928833,9.753143,-19.262695,17.105103,-37.208557,0.1466441,-0.23511924,9.802734,-0.00044722855,-0.0024541467,0.0011501312,0.00045776367,4.5776367e-05,7.6293945e-05
-0.013953375,-0.0018629741,-0.41040918,0.14356995,-0.23210144,9.757935,-18.21289,17.404175,-38.475037,0.14563346,-0.23453596,9.802764,-0.0018260926,0.00032907724,0.00059604645,9.1552734e-05,4.5776367e-05,-4.5776367e-05
-0.013935091,-0.0018289618,-0.41043594,0.14596558,-0.23449707,9.750748,-18.125916,17.558289,-38.6734,0.14488491,-0.2344786,9.802775,-0.0013211668,-0.00092493,-0.0005683899,0.00021362305,4.5776367e-05,-0.00016784668
-0.013945725,-0.001808351,-0.41046223,0.15074158,-0.24645996,9.74118,-17.82837,18.28003,-35.517883,0.1446087,-0.23483047,9.802772,-0.00080902874,-0.0019979775,0.00089359283,9.1552734e-05,4.5776367e-05,7.6293945e-05
-0.01407662,-0.0022811587,-0.41003263,0.18424988,-0.2416687,9.717255,-18.32428,18.260193,-37.013245,0.15400751,-0.23343664,9.802662,0.003993228,0.0015729517,-0.0052518845,-0.0002746582,0.0053100586,0.00021362305
-0.01401839,-0.0021281962,-0.41016433,0.1531372,-0.24885559,9.745972,-18.003845,18.055725,-36.08551,0.15083703,-0.2336038,9.802707,-0.0051006526,0.00036853552,0.005431175,0.00021362305,-0.005935669,0.0008087158
-0.014178746,-0.0023925572,-0.40996438,0.1603241,-0.21296692,9.769897,-18.966675,18.440247,-37.705994,0.15680373,-0.23437867,9.802595,-0.0019662976,-0.003374368,0.0027227402,0.0015563965,-0.013748169,-0.00090026855
-0.013961251,-0.002020632,-0.41366494,0.13639832,-0.23928833,9.84407,-18.598938,18.955994,-35.124207,0.14934942,-0.23287538,9.802747,-0.0036689788,-0.0024318546,0.0036268234,-3.0517578e-05,-0.025604248,-0.06149292
-0.014058026,-0.0019986695,-0.41326132,0.13877869,-0.22013855,9.767502,-18.229675,18.177795,-35.069275,0.14963831,-0.23484738,9.802695,0.015285134,-0.0011013299,-0.012303352,-0.00076293945,0.014709473,0.0026550293
-0.014093175,-0.0019674676,-0.41347653,0.1531372,-0.27278137,9.657425,-18.965149,18.362427,-37.117004,0.1494217,-0.23569255,9.802679,-0.0036282688,-0.004108146,-0.0027837753,0.0016784668,0.0029754639,-0.00065612793
-0.014410753,-0.00330731,-0.39167932,0.2033844,-0.2033844,9.705292,-17.948914,19.221497,-35.70099,0.17038196,-0.23461905,9.802362,-0.039128304,0.0013653487,0.008016586,-0.011505127,-0.10379028,-0.005050659
-0.013793166,-0.0020494643,-0.3911419,0.17468262,-0.19142151,9.681366,-19.602966,18.315125,-36.193848,0.14280547,-0.2332253,9.802836,0.02729769,-0.0009558946,0.0018644333,0.0010681152,0.007507324,-0.001373291
-0.014013371,-0.002565649,-0.39108112,0.1531372,-0.23210144,9.750748,-18.591309,19.023132,-34.428406,0.1537956,-0.23324865,9.80267,0.003919676,0.0016910732,-0.0013694763,-0.0019836426,-0.0041046143,9.1552734e-05
-0.014575326,-0.0038816014,-0.39101738,0.16749573,-0.23928833,9.738785,-18.484497,17.941284,-35.10742,0.18184054,-0.23330632,9.802188,-0.0011608452,-0.0031613559,-0.010024071,0.00033569336,-0.0025177002,0.0014190674
-0.013970345,-0.0023337782,-0.39093092,0.12921143,-0.24645996,9.839294,-17.558289,18.878174,-35.10437,0.14924234,-0.23427531,9.802715,0.008481845,-0.004278764,0.005660057,0.0011901855,0.008117676,-3.0517578e-05
-0.013905979,-0.0021679432,-0.3909234,0.1531372,-0.23210144,9.748352,-19.387817,19.187927,-34.136963,0.14575358,-0.23438656,9.802765,0.0009519011,-0.00033906102,-0.000102996826,0.00015258789,-0.000869751,-4.5776367e-05
-0.013863089,-0.0021605361,-0.3909138,0.14117432,-0.22970581,9.753143,-18.511963,18.878174,-33.78296,0.14528862,-0.23367088,9.802789,-0.00050505996,0.00037834048,-0.00039482117,0.0002746582,4.5776367e-05,1.5258789e-05
-0.013862675,-0.0021519794,-0.3909278,0.14356995,-0.23928833,9.753143,-18.49823,19.171143,-33.72345,0.14513455,-0.23372683,9.802791,0.00059597194,-0.0009784997,0.0018014908,0.00015258789,0.000289917,-4.5776367e-05
-0.01389591,-0.0020869046,-0.39102438,0.14596558,-0.23928833,9.762711,-18.301392,18.315125,-34.510803,0.14423937,-0.23481043,9.802776,-0.00067166984,-0.0027730763,0.000875473,0.00021362305,0.000289917,-0.00016784668
-0.0139082605,-0.0020966833,-0.3910188,0.14596558,-0.23449707,9.757935,-17.701721,17.640686,-36.408997,0.14450917,-0.23495919,9.80277,0.00097092986,-0.0006836951,0.001534462,9.1552734e-05,4.5776367e-05,9.1552734e-05
-0.013939073,-0.0021060456,-0.3910233,0.14596558,-0.22492981,9.765106,-17.710876,17.492676,-36.364746,0.1449156,-0.23544271,9.8027525,0.00030386448,-0.0018509775,0.002453804,0.00021362305,-0.00024414062,-0.00016784668
-0.013903779,-0.002121256,-0.3909865,0.13400269,-0.2368927,9.769897,-17.131042,17.59491,-35.23407,0.14491008,-0.23469493,9.80277,0.00050620735,-0.00014767051,0.0043268204,0.0005187988,0.00022888184,-0.00022888184
-0.013871791,-0.0021169528,-0.39097524,0.13639832,-0.23449707,9.772293,-17.82837,18.508911,-36.679077,0.14458427,-0.23415245,9.802788,-0.00016145408,-0.00036913157,0.0062294006,0.00021362305,0.00010681152,-0.00016784668
-0.013839786,-0.0020947058,-0.39098588,0.14596558,-0.22970581,9.769897,-17.068481,17.388916,-36.03363,0.14394,-0.23374383,9.802807,-0.0007814169,3.220141e-05,0.0076551437,0.00015258789,0.00010681152,-0.0002746582
-0.013839672,-0.0020885856,-0.3909933,0.14596558,-0.2416687,9.779465,-17.90924,18.200684,-35.1532,0.14383055,-0.23378757,9.802808,4.9322844e-06,-0.00082078576,0.0054130554,0.00015258789,4.5776367e-05,-0.00022888184
-0.013851481,-0.002064284,-0.39102903,0.13877869,-0.2368927,9.774673,-17.758179,18.069458,-35.716248,0.14349157,-0.23418148,9.802804,-0.000652045,-0.0015389621,0.006635666,0.00015258789,-7.6293945e-05,-0.00022888184
-0.013950074,-0.002085013,-0.39105466,0.1483612,-0.21774292,9.779465,-17.29889,17.36145,-34.51996,0.14462836,-0.23579761,9.802748,0.0024855584,-0.002988249,0.004262924,-3.0517578e-05,0.00010681152,-0.00022888184
-0.013907703,-0.0021090617,-0.39100343,0.15074158,-0.23928833,9.78186,-17.512512,17.929077,-34.394836,0.1447244,-0.23485662,9.80277,0.0004287213,0.0011561513,0.0052366257,9.1552734e-05,0.00010681152,-4.5776367e-05
-0.013879951,-0.0020563558,-0.3910534,0.1483612,-0.22732544,9.76033,-18.725586,17.700195,-34.014893,0.143573,-0.23475222,9.802788,-0.0013404638,-0.0010196865,0.006662369,0.0002746582,0.00016784668,-0.000289917
-0.013881379,-0.0021932388,-0.39088708,0.13160706,-0.24406433,9.786652,-17.086792,18.467712,-34.454346,0.14601237,-0.23375446,9.802777,0.004832864,0.0011206567,0.0018815994,0.00021362305,-1.5258789e-05,-0.00010681152
-0.013814741,-0.0022880426,-0.38559508,0.14596558,-0.22970581,9.78186,-18.063354,18.487549,-35.769653,0.14587896,-0.23266658,9.802804,0.00015130639,0.00078976154,0.003165245,0.00033569336,0.00010681152,-0.00047302246
-0.013859559,-0.0022461277,-0.38566795,0.13877869,-0.22013855,9.784256,-16.340637,19.18335,-35.62317,0.14547792,-0.2337829,9.802784,6.951392e-05,-0.0031020343,0.0011329651,0.0002746582,0.00022888184,-0.00035095215
-0.013814341,-0.002177739,-0.38572755,0.14356995,-0.23449707,9.789032,-17.280579,17.951965,-35.458374,0.14391358,-0.23347296,9.802814,-0.002462864,-0.00075535476,0.002664566,0.0002746582,0.00022888184,-0.00022888184
-0.013920186,-0.0021405106,-0.3858253,0.13400269,-0.20817566,9.7986145,-16.313171,18.093872,-36.221313,0.14406568,-0.23565406,9.80276,0.0007223189,-0.0064346343,0.0025520325,0.0009460449,0.00010681152,-0.00035095215
-0.013589279,-0.0022646706,-0.38551044,0.13639832,-0.24645996,9.7986145,-16.746521,17.411804,-36.268616,0.1437301,-0.22877784,9.802928,-0.00019030273,0.008771688,0.0059633255,0.0007019043,4.5776367e-05,-0.00016784668
-0.012827221,-0.00092421286,-0.38673732,0.1268158,-0.2033844,9.757935,-17.87262,17.254639,-35.19745,0.11401176,-0.22497545,9.803406,-0.00183703,-0.007990152,-0.0037326813,0.001876831,0.0051879883,-0.00035095215
-0.014559922,0.00094315293,-0.3898437,-2.0817566,-0.6508484,9.942184,-18.795776,16.394043,-35.41107,0.0942943,-0.27015272,9.802475,-0.017582126,-0.09541914,0.051481247,-0.0046691895,-0.0021972656,-0.16119385
-0.015064855,-0.0012733097,-0.3831347,0.33499146,2.1104736,9.7986145,-17.584229,14.727783,-35.80017,0.13627042,-0.26331994,9.802167,0.04225771,0.05273509,-0.05738163,-0.007659912,-0.0072631836,0.36305237
-0.012657671,-0.003251481,-0.32133445,0.098098755,-1.5912323,9.870392,-13.700867,18.847656,-35.49652,0.14015847,-0.21457787,9.8033,-0.010674149,0.95761406,0.015836716,0.014877319,-0.0010375977,0.4555359
-0.014680674,-0.0025801845,-0.34518075,0.15553284,-0.21534729,9.779465,-13.21106,20.773315,-35.2005,0.14687964,-0.25273654,9.802293,0.0050922483,-0.8335876,0.001824379,-0.0007019043,-0.003616333,-0.19221497
-0.014574358,-0.002461311,-0.34516603,0.15074158,-0.2368927,9.796219,-11.988831,21.221924,-35.612488,0.14396809,-0.25158736,9.802365,-0.0037280768,0.015681833,0.010558128,0.00015258789,0.0005493164,-0.000289917
-0.014504526,-0.0024540275,-0.34515867,0.13160706,-0.2368927,9.7986145,-13.833618,21.313477,-35.14099,0.14335936,-0.25035277,9.802405,0.0016483217,0.0151792765,0.009778023,0.00021362305,0.000289917,-0.000289917
-0.014441095,-0.0024252825,-0.34515315,0.14117432,-0.22970581,9.789032,-13.461304,20.613098,-35.44922,0.14239946,-0.249381,9.8024435,-0.0026653707,0.014710844,0.010418892,9.1552734e-05,0.00036621094,-0.000289917
-0.014387574,-0.002435317,-0.34515637,0.13639832,-0.23210144,9.8033905,-12.7960205,21.090698,-35.227966,0.14222275,-0.24832775,9.802474,0.00038953125,0.009594753,0.0073747635,0.00021362305,0.00010681152,-0.00016784668
-0.014128148,-0.0024831442,-0.3449799,0.13877869,-0.2368927,9.808182,-12.4557495,21.859741,-37.35199,0.14130127,-0.24325669,9.802615,-0.0013706535,0.009621635,0.005867958,0.00015258789,0.00016784668,-0.00022888184
-0.014011921,-0.0025196404,-0.34488228,0.13400269,-0.23928833,9.7986145,-12.90741,20.585632,-36.61194,0.14116167,-0.24088548,9.802675,0.0006466955,0.003744021,0.0062913895,0.00021362305,0.00016784668,-0.0004119873
-0.0138425175,-0.0025609788,-0.34475467,0.14356995,-0.27757263,9.800995,-13.381958,20.921326,-37.052917,0.14074454,-0.23750727,9.802763,-0.0003862232,0.0054152757,0.0022687912,0.0002746582,0.00010681152,0.0001373291
-0.013774554,-0.0025941145,-0.34468305,0.14596558,-0.22492981,9.800995,-13.226318,20.559692,-36.07483,0.14087701,-0.2360431,9.802796,-0.00057046115,0.0011451691,0.0023260117,0.0002746582,-1.5258789e-05,-0.00022888184
-0.013723975,-0.002617019,-0.3446319,0.13400269,-0.26081848,9.7986145,-13.639832,20.388794,-36.317444,0.14094397,-0.234965,9.802822,0.00031419098,0.0012894571,0.0013799667,0.00021362305,4.5776367e-05,-4.5776367e-05
-0.013799941,-0.002572886,-0.34472075,0.15553284,-0.1603241,9.786652,-14.746094,20.748901,-35.897827,0.14066732,-0.23664823,9.802785,0.00033918023,-0.004919991,0.0009031296,0.00045776367,0.00016784668,-0.000289917
-0.013688791,-0.002565188,-0.3446801,0.1531372,-0.24645996,9.789032,-14.5095825,20.539856,-35.34546,0.13976404,-0.23466061,9.802846,-0.0011374503,0.0029032528,-5.054474e-05,0.00015258789,0.00024414062,-0.000289917
-0.01368678,-0.0026263034,-0.34460366,0.13639832,-0.24406433,9.800995,-13.180542,21.580505,-35.7193,0.14085644,-0.23422185,9.80284,0.0025559813,0.00054204464,-0.0013103485,0.00015258789,0.00016784668,-0.00022888184
-0.013709452,-0.0026164765,-0.344626,0.1531372,-0.22253418,9.796219,-13.746643,21.469116,-35.639954,0.14083436,-0.23470224,9.80283,-5.64754e-05,-0.0020739734,0.0013456345,0.0002746582,-7.6293945e-05,-0.00035095215
-0.013663597,-0.0025810043,-0.3446492,0.124420166,-0.24885559,9.7986145,-12.379456,21.792603,-37.139893,0.1398772,-0.23409459,9.802858,-0.002000779,0.0016757399,0.0026540756,0.00033569336,4.5776367e-05,-0.0007171631
-0.013689471,-0.002546714,-0.34470323,0.6388855,-0.13639832,9.841675,-12.11853,22.091675,-36.41205,0.13943434,-0.2347946,9.802848,0.005156845,-0.0019548833,-0.0024147034,0.0010070801,0.009887695,0.0029449463
-0.06510929,-0.025528213,-0.32775903,1.935791,-3.8811646,13.536194,-15.377808,22.970581,-36.325073,0.89028805,-1.0390514,9.710723,-0.07104725,-0.46807408,0.7093477,-0.75413513,-0.65216064,0.44381714
-0.1406992,-0.2845064,-0.1522467,2.5292206,-1.4691925,8.133209,-30.513,25.949097,-23.6969,5.6430736,-1.733387,7.8308034,-4.344977,-3.4971352,3.0535088,1.4519501,-3.4351044,1.7606049
0.045519494,-0.399006,0.15514557,9.310471,-0.0023956299,-0.4402771,-43.23578,31.074524,-23.112488,7.201951,-0.4083293,6.64346,-0.85244036,1.3739831,-0.21591568,2.61969,-0.40690613,2.261032
-0.0027481148,-0.109740734,0.38759875,3.7950134,-1.6654053,8.645264,-4.6417236,29.685974,-48.762512,1.9491127,-0.88359165,9.570299,0.64590895,-0.66867137,-1.9729395,1.0741272,3.068451,1.6887665
-0.014958073,-0.025398206,0.4332174,2.2061768,0.275177,7.1162567,17.185974,20.083618,-43.30597,0.32163444,-0.4800804,9.78961,2.3987365,0.047073036,-1.243083,0.017700195,0.08416748,0.33006287
0.05317577,-0.15834427,0.46037462,6.726227,0.39959717,8.152344,5.5526733,17.276001,-43.930054,3.1878703,-0.5204469,9.259428,0.63332915,-0.0025392175,-0.85065746,-0.09654236,-1.1616364,0.34204102
-0.010739052,-0.11110993,0.4198485,2.3042908,1.0384827,9.92543,8.570862,19.491577,-40.734863,1.8744099,-1.104661,9.562254,2.1762733,2.166494,-1.2497053,-0.6936035,0.9979706,-0.4704132
-0.03841648,-0.08533529,0.37898958,3.357132,-1.9956207,12.485748,14.498901,22.052002,-38.113403,1.2553507,-1.3280083,9.634878,1.0752065,1.5381087,1.9094925,0.050491333,0.1040802,-0.4714508
0.015939407,-0.12840103,0.3113525,4.8550415,-2.445465,5.860016,7.3883057,17.945862,-39.413452,2.4682415,-0.48978153,9.478307,1.2451584,-2.060413,1.4056911,0.35977173,-0.48606873,-0.87187195
0.023711732,-0.15823306,0.20017315,6.2117615,-1.5457611,7.4081726,-0.10681152,16.072083,-40.69519,3.0929346,-0.17169607,9.304551,0.51899934,-1.2516438,-2.0704622,-0.32865906,-0.45950317,-1.4283142
0.0073365113,-0.2579371,-0.004821729,4.6947174,-0.7034912,9.92543,-15.084839,13.456726,-38.42621,4.8869147,0.16341148,8.500691,-0.15623379,-0.30779237,-0.15540981,-0.81967163,-0.89334106,-1.8377838
-0.07928586,-0.2466681,-0.061601974,3.5605164,-1.6342926,8.597412,-16.127014,15.95459,-31.152344,4.759045,-1.2008672,8.489982,0.43499327,-0.6176082,2.5467968,-0.17385864,-0.017059326,-0.21763611
-0.025994305,-0.27395996,-0.08135773,2.725418,1.0480499,-0.06460571,-19.54956,14.390564,-28.01056,5.188745,-0.05123484,8.32134,-2.2397962,-1.0650744,-1.825491,0.75341797,-1.6547852,0.27349854
-0.14136131,-0.35478753,-0.0039814063,7.274185,-9.537796,5.5130615,-22.363281,19.805908,-17.126465,6.4420643,-2.5346687,6.945909,-1.9466681,0.23594284,-4.920301,-3.7230225,-2.1312714,1.864212
-0.28785652,-0.5934013,0.38149723,13.866409,-10.325027,8.240875,-12.47406,30.200195,5.8029175,5.384054,-8.09669,1.2751288,5.230539,-2.6989331,6.1856604,-1.7871704,-0.29866028,1.8458862
-0.32081395,-0.5751946,0.36393696,8.750549,-10.061813,2.868988,-9.439087,32.400513,11.109924,5.140219,-8.24992,1.2989813,5.5547676,1.0071545,4.8784394,1.0454102,-0.3450775,-0.5010681
-0.2254868,-0.52105176,0.3384795,4.130005,-9.320038,3.7830505,-15.432739,36.050415,5.9814453,6.1717544,-6.7777576,3.4845138,0.60784245,-2.8055978,-0.5539899,2.507843,0.17903137,-1.6562347
0.032155678,-0.5056401,0.36158887,6.0681915,-6.6879425,1.8448639,-24.543762,30.05371,-3.7002563,7.98984,-3.092371,4.7718005,-4.1244106,-4.336062,-3.0959892,-0.86598206,0.6237488,0.6894989
-0.09482515,-0.56110954,0.35924718,7.795822,-4.7282104,5.9844513,-21.79718,34.024048,6.1325073,7.4720387,-5.3292465,3.455163,-0.5197468,-2.4767785,-1.4901171,-1.3070374,-0.11294556,0.9301758
-0.18482487,-0.5915209,0.3571918,5.967697,-4.043869,2.8330994,-15.99884,37.075806,10.293579,6.812716,-6.677284,2.27402,0.7262664,0.5318713,2.962028,0.21279907,0.08924866,1.0144806
-0.23579703,-0.5776977,0.41154355,9.911072,-6.209381,2.531601,-10.353088,37.602234,9.262085,5.6236224,-7.735254,2.170508,1.5540481,2.9981742,1.106539,0.4492035,-1.3890686,0.15560913
-0.18525304,-0.5959912,0.41900304,7.479965,-8.788834,3.3762665,-13.923645,36.8515,9.634399,6.1864653,-7.29404,2.1667945,2.3920646,0.71426964,0.45416045,-0.018722534,-0.7849121,-0.15470886
-0.10860882,-0.6176921,0.42637518,6.8243256,-8.185852,2.691925,-21.794128,33.413696,9.785461,6.98849,-6.5540123,2.0919654,0.5375991,-1.5852218,1.3098814,0.53656006,-0.78552246,-0.36058044
0.07348295,-0.5954087,0.47760126,4.106079,-5.371887,0.22970581,-31.518555,30.375671,7.902527,8.183949,-4.652316,2.7476025,-2.0811234,-2.7646046,-0.3959582,1.4529877,-0.621994,-0.90296936
0.08370238,-0.58742565,0.5070592,7.405792,-9.942184,0.31106567,-30.065918,31.83899,10.180664,8.035036,-4.815709,2.9012978,-3.3001523,-0.9857745,-2.450439,0.7527466,-0.06536865,-0.34701538
-0.08220711,-0.7006056,0.5043664,9.726822,-6.4701996,2.100891,-17.193604,37.045288,22.416687,6.029955,-7.733553,0.04695022,1.7776432,-2.3745651,0.74125046,-0.92671204,-0.69236755,1.2800293
-0.13989177,-0.7124858,0.49031276,5.326416,-6.551544,1.6630096,-18.525696,37.52899,24.156189,5.3911963,-8.174391,-0.5335934,2.8084183,1.2181787,2.152129,-1.0788116,-0.22743225,1.3587799
-0.115241125,-0.6846263,0.52448314,7.247864,-6.8817596,-0.8829498,-17.654419,43.1427,21.78955,5.4327226,-8.156665,0.35316405,0.2139349,1.6565294,0.66452765,0.22019958,0.3877716,-0.19845581
-0.06175464,-0.6792128,0.5532569,7.1928253,-9.406189,1.2873383,-18.525696,45.350647,21.142578,5.7015038,-7.949583,0.68364763,1.7075081,0.23747921,-1.204582,0.75219727,-0.644104,0.00062561035
0.015804926,-0.70532376,0.54747003,6.611374,-8.126022,-0.39242554,-18.226624,48.046875,23.79303,6.3955793,-7.434042,0.044494305,0.63068485,-1.4483995,1.3583434,-0.119018555,-0.28900146,-0.24169922
0.20201117,-0.7051245,0.54191244,3.5892334,-6.6017914,0.22492981,-20.94574,47.31598,19.677734,7.8210807,-5.869015,-0.745483,-1.9246454,-2.1959558,0.95621127,0.5963135,-0.3683014,-0.60572815
0.2552799,-0.6769798,0.5885147,7.10907,-8.116455,-1.1222382,-18.760681,45.637512,10.411072,7.7373366,-6.007672,-0.4603133,-3.4462576,-0.5109701,0.19594795,0.1933899,-0.2278595,1.1477203
0.1699325,-0.7265554,0.607434,8.264816,-5.5681,0.64367676,-8.522034,48.150635,9.069824,5.9079123,-7.747751,-1.1132476,1.7855186,-1.3531785,-0.13986099,-0.09819031,0.0015869141,0.52812195
0.17698866,-0.70722395,0.61918974,5.864807,-7.0492554,0.107681274,-6.6864014,46.54541,6.326294,6.1961637,-7.5760455,-0.6176372,1.3479953,0.39161444,-0.05267805,0.3386383,0.006958008,-0.67303467
-0.3473963,-0.620487,0.20246409,4.99382,-6.9344025,-1.409378,-11.254883,44.32068,0.17242432,6.8143015,-7.0514708,-0.111566156,-1.3113618,0.0025138855,-0.5964996,0.8487854,-0.49761963,-0.0063323975
-0.2926467,-0.6448125,0.30143115,8.039886,-7.5972137,-0.9643097,-9.938049,44.16046,-5.4275513,6.345216,-7.4771543,-0.027954219,-0.87560606,0.6082077,-1.4966215,0.50686646,-1.0321808,0.6711731
-0.26229858,-0.673638,0.381256,7.1808624,-10.901703,-0.59580994,-5.7785034,44.24286,-8.752441,5.652078,-8.001758,-0.4430394,1.758892,0.35153103,-0.20432901,0.75671387,-0.9955292,0.12896729
-0.15632196,-0.69921184,0.47548485,4.656433,-8.683548,-0.79681396,-11.280823,41.08734,-15.664673,5.5426893,-8.085827,-0.26151803,1.4887862,-0.3278036,0.4418774,1.0168915,-1.7136078,-1.066803
0.10139444,-0.7215906,0.55029124,4.311859,-8.666809,0.1651001,-23.506165,35.836792,-16.685486,6.864203,-6.977396,-0.60749894,-1.794549,-1.6586757,0.55300856,0.59532166,-0.51997375,-0.36741638
0.19500132,-0.7102517,0.62138647,6.1782684,-9.382263,-0.23928833,-27.554321,32.01294,-18.959045,6.098766,-7.6342106,-0.83323073,0.5540986,-0.38138628,-0.20855743,1.0063782,-1.2829437,0.4355011
0.26943296,-0.7007305,0.6420551,6.9750824,-5.871994,-1.3351898,-30.662537,30.479431,-17.028809,5.5286255,-8.002989,-1.2477463,1.8422456,1.7366743,0.39321375,1.0206757,-1.4736023,0.41644287
0.4064051,-0.61882204,0.65674835,7.2550354,-7.6115723,0.18902588,-33.909607,27.01416,-11.558533,6.9758873,-6.827676,-0.9435144,-0.0068535805,-0.79243135,1.0289478,0.6462097,-1.050766,-0.7468262
0.5230859,-0.48641106,0.69219726,6.0921326,-8.334198,-0.4019928,-39.909363,16.619873,-10.487366,8.086011,-5.5449686,-0.20034161,-2.300909,-2.967112,-0.67729676,1.2393036,-0.5240631,-1.3330841
0.5123594,-0.49165612,0.6992391,6.0753784,-8.310272,-0.74417114,-43.4494,9.011841,-9.09729,7.8234434,-5.912462,-0.0831187,-2.0639653,-1.0889697,-0.33709002,0.34487915,-0.09817505,-0.13626099
0.43918347,-0.59314793,0.6739422,6.357727,-7.113861,-1.0265198,-43.08319,11.727905,-8.258057,6.1902437,-7.5552907,-0.876844,0.67587423,0.11604023,0.2190603,-0.28102112,0.06750488,1.0192566
0.3896741,-0.64293385,0.6553216,7.2933197,-6.932007,-2.0147552,-37.719727,21.992493,-7.7453613,5.9303017,-7.7049413,-1.2789795,1.7001438,-0.2726283,1.6884573,-1.019989,0.5753021,0.75279236
0.4096895,-0.64313334,0.6361587,7.412964,-5.4556427,-2.177475,-39.901733,23.066711,-4.8706055,6.595511,-7.079308,-1.5978161,0.56268644,0.35492563,-0.57822776,-0.19226074,-0.049728394,-0.35966492
0.41426885,-0.6591477,0.6111572,6.891327,-6.273987,-1.2059784,-38.40027,19.018555,-5.9814453,6.8119216,-6.740781,-2.0808601,0.21044588,1.0104389,0.2596135,-0.22567749,-0.08314514,-0.27230835
0.41213277,-0.63931787,0.6271067,7.590027,-7.001404,-2.4311066,-38.72528,17.248535,-6.4056396,7.173133,-6.50701,-1.5412278,0.020262718,0.24825048,0.3410113,-0.113708496,0.23493958,-0.18934631
0.40912467,-0.6133173,0.6505505,6.518051,-6.924835,-1.3423767,-40.083313,15.937805,-8.351135,7.4134407,-6.3625455,-0.85398436,0.01884079,-0.14263773,-1.0893207,0.35379028,0.21525574,-0.18751526
0.40136322,-0.6206232,0.65336686,7.7814636,-6.960724,0.84706116,-38.754272,15.458679,-10.771179,7.137777,-6.663266,-0.9074209,-0.4532671,-0.04639244,-0.017016828,0.188797,0.059677124,0.053649902
0.36826,-0.63947356,0.6517715,6.8769684,-6.8841553,-0.44984436,-38.153076,17.96875,-9.45282,6.903463,-6.910093,-0.8736132,0.3548994,-0.16542482,1.38468,-0.4233551,0.16877747,0.36732483
0.3357788,-0.64073616,0.6628889,7.4943237,-7.4560394,-1.2849426,-36.12976,20.298767,-10.800171,6.7923007,-7.0587797,-0.45679876,0.03199005,0.029855728,0.13932249,0.0023651123,0.31025696,0.04309082
0.40762228,-0.5929784,0.68366885,10.415955,-3.4217377,2.4263153,-34.275818,20.655823,-12.463379,6.88153,-6.9780607,-0.3487118,0.5475297,-0.06966066,-0.37636843,-0.26812744,0.43058777,0.052001953
0.34482527,-0.54864335,0.7183094,8.523239,-2.7302094,5.75235,-33.1604,23.098755,-17.070007,7.5828104,-6.016986,1.5707512,3.1256008,1.7038851,0.7083528,-0.3459015,1.1421967,-0.115493774
0.11272114,-0.21881256,0.7483632,4.9746857,-2.8426666,3.1968079,-22.930908,13.250732,-32.0282,4.2978463,-1.8499879,8.618379,4.0350647,-1.026235,-3.698533,0.4817047,3.5070648,-1.9657593
0.11688591,-0.04766618,0.6350904,6.4582214,-3.1345978,9.011368,10.652161,-2.520752,-41.903687,2.1683936,1.1532817,9.494124,2.3786895,-2.6191902,-3.0402737,1.9631348,3.315918,-3.141983
0.13516106,-0.120587274,0.6638342,2.5100708,1.1294098,-4.051056,11.837769,6.9229126,-46.221924,3.4759524,0.35352337,9.163142,1.5865998,-3.2530546,1.9095078,-1.3141785,-0.8518677,0.17582703
0.017151577,-0.028220173,0.6869491,0.07417297,-0.14356995,10.011566,16.059875,7.1762085,-42.94586,0.6328982,-0.13600945,9.78526,0.1665628,-0.6598594,-3.1466093,0.4737091,1.593811,0.039474487
0.017488038,-0.03042544,0.68638617,0.033493042,-0.20100403,9.934998,22.094727,6.83136,-40.618896,0.66889757,-0.16044593,9.7824955,-0.6028795,0.04858084,0.38574696,-0.026168823,0.13346863,0.047729492
0.01663094,-0.029196333,0.6858349,0.16270447,-0.047851562,9.891922,21.68274,6.587219,-40.805054,0.6400067,-0.15560183,9.784507,-0.52353257,0.06413613,0.2571087,0.00039672852,-0.0002593994,-0.00065612793
0.015761163,-0.02814565,0.6854631,0.07896423,-0.1603241,9.777069,21.594238,6.587219,-41.62903,0.61343783,-0.15353785,9.78624,-0.48194742,0.032843098,0.22197437,0.00039672852,6.1035156e-05,-0.0005340576
0.014976007,-0.027013222,0.6849832,0.100494385,-0.055038452,9.789032,21.299744,6.9976807,-40.551758,0.58685625,-0.14911032,9.787939,-0.47358072,0.05571492,0.23196697,0.0002746582,0.00010681152,-0.0004119873
0.00968965,-0.020710295,0.6828562,0.13877869,-0.13877869,9.76033,22.190857,6.8237305,-38.661194,0.4263772,-0.13860367,9.796395,-0.3087114,0.019030944,0.14108658,0.0005187988,0.00012207031,-0.00033569336
0.006550562,-0.016170397,0.6801465,0.08135986,-0.071777344,9.839294,22.460938,7.725525,-40.07721,0.3198168,-0.121554196,9.80068,-0.20749912,0.029883064,0.10634518,-0.00015258789,-7.6293945e-05,-0.0004119873
0.004085069,-0.013445035,0.67942023,0.13400269,-0.13400269,9.784256,21.366882,6.4819336,-39.378357,0.24789162,-0.12038569,9.802777,-0.1411513,0.0025562868,0.06611347,0.000579834,-0.00019836426,-0.00039672852
0.0028312034,-0.0114214495,0.6778922,0.088531494,-0.08135986,9.829712,20.135498,7.6324463,-38.56201,0.20230693,-0.11103848,9.803934,-0.08966108,0.015540138,0.04885769,-9.1552734e-05,-1.5258789e-05,-0.00035095215
0.0016686581,-0.010233921,0.6776999,0.105285645,-0.12921143,9.7986145,22.225952,7.7056885,-39.237976,0.16976288,-0.1119649,9.804542,-0.06394453,-0.0020491555,0.02746296,0.000579834,4.5776367e-05,-0.0005187988
0.001138081,-0.009277767,0.6768549,0.124420166,-0.090927124,9.82254,21.957397,7.1029663,-39.35089,0.149047,-0.10673577,9.804937,-0.04034449,0.008419268,0.022286415,-9.1552734e-05,0.00016784668,-0.00010681152
0.0005993013,-0.008849352,0.67698437,0.090927124,-0.107681274,9.808182,22.865295,7.524109,-38.697815,0.13569157,-0.1088503,9.805107,-0.02612567,-0.0035434738,0.010555267,0.00033569336,0.00010681152,-0.00035095215
0.0004219666,-0.008332964,0.67633784,0.114852905,-0.112457275,9.791428,21.702576,6.8740845,-39.99176,0.12597601,-0.10444281,9.8052845,-0.018651143,0.005746439,0.009575844,3.0517578e-05,0.00022888184,-0.00045776367
0.00018478406,-0.008182585,0.67646456,0.105285645,-0.098098755,9.820145,22.415161,6.552124,-39.556885,0.12063942,-0.10589512,9.805336,-0.010456242,-0.0030696243,0.0033512115,0.00064086914,4.5776367e-05,-0.000289917
0.000100567355,-0.007908729,0.6761035,0.105285645,-0.122039795,9.812973,23.625183,6.555176,-38.850403,0.1156177,-0.10342141,9.805423,-0.0097948015,0.0026254207,0.0065279007,9.1552734e-05,4.5776367e-05,-0.000289917
-0.0010350145,-0.0077995704,0.5767378,0.112457275,-0.093322754,9.829712,22.543335,7.6538086,-39.48822,0.11325641,-0.104809575,9.805435,-0.0045556426,-0.002925545,0.00084114075,0.00064086914,-1.5258789e-05,-0.0004119873
-0.0010432177,-0.0076951594,0.5765871,0.102890015,-0.13400269,9.791428,21.276855,6.4849854,-40.429688,0.111510046,-0.10373939,9.805467,-0.0025978386,9.4302e-05,0.0029411316,-3.0517578e-05,0.00022888184,-0.0005950928
-0.0010752463,-0.0076856157,0.57660735,0.112457275,-0.08375549,9.815353,22.677612,7.08313,-39.68506,0.11099235,-0.10414746,9.8054695,-0.0006435737,-0.0011785254,-0.00043201447,0.0005187988,0.00016784668,-0.00035095215
-0.0011087109,-0.00766189,0.57660747,0.102890015,-0.14117432,9.805786,22.987366,6.7337036,-39.241028,0.11023372,-0.10441539,9.805475,-0.0015746802,-0.0025787726,0.0019426346,9.1552734e-05,-1.5258789e-05,-0.00047302246
-0.0011630589,-0.0076336293,0.57662344,0.098098755,-0.08375549,9.808182,22.354126,7.0617676,-39.752197,0.10916422,-0.10496878,9.805481,-0.0021846667,-0.0008047372,0.0028829575,0.00033569336,-1.5258789e-05,-0.00047302246
-0.0012082985,-0.007577173,0.57658637,0.110076904,-0.12921143,9.779465,21.57898,6.1447144,-41.1911,0.10775279,-0.105050296,9.805495,-0.002202496,-0.0019338056,-0.00095558167,0.00015258789,0.00016784668,-0.000579834
-0.0011378083,-0.007561461,0.5764855,0.110076904,-0.0765686,9.817749,22.833252,7.0220947,-40.081787,0.10831101,-0.10372971,9.805503,0.0015326589,0.0020194352,0.0017595291,0.00045776367,4.5776367e-05,-0.000289917
-0.001169092,-0.007607809,0.57659054,0.112457275,-0.12921143,9.786652,22.51892,5.3985596,-40.3244,0.108686514,-0.10476906,9.805489,0.0013954937,-0.0036343038,0.0010023117,3.0517578e-05,0.00022888184,-0.00022888184
-0.0011220627,-0.007574357,0.5764881,0.107681274,-0.08135986,9.817749,23.21167,6.536865,-40.196228,0.10869537,-0.10362354,9.8055,-4.864484e-05,0.001690872,0.00018787384,0.00039672852,-1.5258789e-05,-0.000289917
-0.0011864109,-0.007571789,0.57655424,0.107681274,-0.13400269,9.793823,21.398926,7.2128296,-39.305115,0.107918166,-0.10463445,9.805498,-0.0011816397,-0.0033070147,-0.0022821426,0.00015258789,0.00010681152,-0.0004119873
-0.0011164651,-0.0075131995,0.57638836,0.102890015,-0.086135864,9.827316,23.059082,6.5185547,-39.137268,0.10779123,-0.1028292,9.805519,-0.0005640313,0.0025456324,-0.00040531158,0.00039672852,4.5776367e-05,-0.000289917
-0.0012468275,-0.007572357,0.57662094,0.110076904,-0.122039795,9.810577,22.946167,7.6797485,-39.4989,0.107235424,-0.10561776,9.805494,-0.001203008,-0.006151505,-0.0020217896,0.00015258789,-0.0001373291,-0.000289917
-0.0011342794,-0.007538907,0.5764471,0.114852905,-0.086135864,9.82254,20.729065,6.8130493,-40.567017,0.10799438,-0.10341309,9.8055105,0.0011384264,0.00456544,0.0023260117,-0.00010681152,-0.00010681152,0.0001373291
-0.0011400447,-0.0075517106,0.576473,0.112457275,-0.088531494,9.817749,22.955322,7.824707,-39.471436,0.10813108,-0.10365366,9.805507,0.0007518381,0.0024311244,0.0020360947,1.5258789e-05,1.5258789e-05,9.1552734e-05
-0.0011900227,-0.0076179006,0.57662874,0.119644165,-0.112457275,9.796219,22.7005,7.6690674,-39.86969,0.108606584,-0.10522366,9.805485,0.000999935,-0.0029479787,-0.0011949539,1.5258789e-05,1.5258789e-05,0.0001373291
-0.0011406564,-0.007556012,0.57648027,0.105285645,-0.093322754,9.793823,22.291565,7.3425293,-39.08844,0.10819216,-0.10371305,9.805505,-0.0009881854,0.002246827,0.0012769699,7.6293945e-05,-4.5776367e-05,-4.5776367e-05
-0.0011874533,-0.0075837253,0.57657367,0.102890015,-0.117248535,9.791428,21.720886,7.1609497,-39.1037,0.10809514,-0.10478869,9.805494,-0.0003918782,-0.0019526035,-0.0020160675,7.6293945e-05,-4.5776367e-05,0.0001373291
-0.0011424422,-0.00752055,0.57642794,0.112457275,-0.090927124,9.817749,22.137451,7.4005127,-38.46588,0.107610345,-0.10333383,9.805515,-0.0011251718,0.002586335,0.002327919,1.5258789e-05,-4.5776367e-05,-0.00016784668
-0.0012299794,-0.007564012,0.5765898,0.112457275,-0.105285645,9.7986145,21.77124,6.5841675,-39.82544,0.10729628,-0.10524934,9.805498,-0.0010373071,-0.003405042,-0.0005197525,1.5258789e-05,-0.00010681152,0.0001373291
-0.0011382458,-0.0074995155,0.57639116,0.100494385,-0.098098755,9.810577,21.313477,6.9854736,-38.81836,0.10732535,-0.10302395,9.805522,0.00012592226,0.0032331496,-0.00035095215,0.0001373291,1.5258789e-05,0.0002593994
-0.001166696,-0.0074966936,0.5764178,0.117248535,-0.102890015,9.793823,21.96045,7.0999146,-38.974,0.1069551,-0.10345148,9.80552,-0.0009299442,-0.00089447945,-0.0015153885,0.00019836426,-0.00010681152,0.00032043457
-0.0011077597,-0.007513732,0.5763797,0.107681274,-0.098098755,9.800995,22.050476,7.4798584,-39.88037,0.107899256,-0.10269455,9.805518,0.0017095208,0.0005025193,0.00042057037,7.6293945e-05,7.6293945e-05,-0.00010681152
-0.001148803,-0.0075228964,0.5764384,0.107681274,-0.110076904,9.810577,21.97876,6.02417,-40.85388,0.10757469,-0.10346367,9.805513,-0.00035881996,-0.00088266283,-0.0005121231,-4.5776367e-05,1.5258789e-05,-0.00015258789
-0.001129629,-0.007489397,0.5763663,0.112457275,-0.093322754,9.810577,22.650146,8.169556,-39.234924,0.10726374,-0.10276819,9.805525,-0.0010094941,0.00058834255,0.0028514862,1.5258789e-05,-0.00010681152,1.5258789e-05
-0.0011753482,-0.0075449836,0.5765012,0.098098755,-0.110076904,9.7986145,21.983337,7.385254,-37.709045,0.10762052,-0.10414707,9.805507,6.977469e-05,-0.002337493,-0.00033283234,0.00019836426,-0.00010681152,7.6293945e-05
-0.001153779,-0.007523615,0.576445,0.112457275,-0.098098755,9.7986145,22.966003,6.602478,-41.230774,0.10752912,-0.1035524,9.805513,-0.0012796894,0.00088888407,0.0012159348,-0.00010681152,-0.00033569336,1.5258789e-05
-0.0011304258,-0.0075842156,0.5765123,0.107681274,-0.095718384,9.7986145,22.95227,6.3095093,-41.290283,0.108755715,-0.103872254,9.805497,0.0017982721,-0.00070010126,-0.00030612946,1.5258789e-05,-0.00010681152,-4.5776367e-05
-0.0011619746,-0.007537816,0.5764756,0.100494385,-0.102890015,9.805786,21.479797,5.8502197,-41.775513,0.107660145,-0.10384835,9.80551,-0.0023692772,-8.009374e-06,-0.00019359589,1.5258789e-05,-0.00010681152,7.6293945e-05
-0.0012003026,-0.007580108,0.57658213,0.114852905,-0.098098755,9.7986145,21.084595,5.743408,-40.57312,0.10789079,-0.10495481,9.805495,0.00027634948,-0.0022506714,-0.0014104843,7.6293945e-05,-4.5776367e-05,7.6293945e-05
-0.0011499308,-0.007548077,0.57647824,0.110076904,-0.100494385,9.800995,22.569275,6.416321,-39.439392,0.10796041,-0.103771694,9.805507,0.00020322949,0.002062887,0.00065517426,1.5258789e-05,1.5258789e-05,-0.00010681152
-0.0011858171,-0.007547067,0.5765158,0.107681274,-0.100494385,9.78186,22.406006,6.4086914,-39.813232,0.10753367,-0.104340315,9.805506,-0.0005565062,-0.0004697144,-0.00068092346,-4.5776367e-05,7.6293945e-05,0.00019836426
-0.0011473394,-0.007516036,0.5764263,0.102890015,-0.100494385,9.800995,21.784973,6.877136,-39.767456,0.107482836,-0.10336107,9.805516,-0.00027861446,0.0014215708,0.00034809113,1.5258789e-05,-4.5776367e-05,-4.5776367e-05
-0.0011762375,-0.0075091636,0.5764473,0.102890015,-0.102890015,9.808182,22.38617,7.487488,-38.005066,0.10704333,-0.10374925,9.805517,-0.0012755543,-0.000828065,0.0003862381,1.5258789e-05,-0.00010681152,0.00019836426
-0.0011700426,-0.007491077,0.57641286,0.112457275,-0.100494385,9.805786,22.337341,6.6970825,-39.978027,0.1068279,-0.103440985,9.805523,-0.0005801618,0.0010232255,0.0015411377,-0.00010681152,-4.5776367e-05,0.0002593994
-0.0011394573,-0.0074949698,0.5763855,0.110076904,-0.095718384,9.800995,21.817017,7.5302124,-39.33258,0.107239515,-0.10299123,9.805523,0.00066675246,0.0017834157,0.0008687973,-0.00010681152,-4.5776367e-05,0.0002593994
-0.0011737339,-0.007513005,0.57645047,0.110076904,-0.107681274,9.810577,22.88971,8.262634,-39.831543,0.10713279,-0.10375297,9.805516,-0.00087727606,-0.001785107,-0.0022878647,1.5258789e-05,-4.5776367e-05,0.00019836426
-0.0011791718,-0.0075067864,0.5764469,0.105285645,-0.098098755,9.810577,21.705627,7.020569,-40.185547,0.10697212,-0.10376935,9.805518,-0.0007178113,0.00015503168,0.00022602081,1.5258789e-05,-0.00022888184,0.00038146973
-0.0011802783,-0.0075056567,0.57644635,0.107681274,-0.110076904,9.808182,22.10846,6.9717407,-39.761353,0.10694157,-0.103774235,9.805518,-0.00069239736,-0.00030811876,0.00094509125,-4.5776367e-05,-0.00016784668,7.6293945e-05
-0.0011666447,-0.007505195,0.5764308,0.107681274,-0.100494385,9.808182,22.34497,6.613159,-38.633728,0.10709029,-0.10354848,9.805518,0.00012370199,0.0004087761,-0.00064086914,7.6293945e-05,1.5258789e-05,0.00019836426
-0.0011998549,-0.007482917,0.5764328,0.110076904,-0.102890015,9.805786,23.10791,7.4630737,-38.267517,0.10635755,-0.10382912,9.805524,-0.00012077391,-0.00025640428,0.0014753342,-0.00010681152,-0.00016784668,-4.5776367e-05
-0.0011892255,-0.007496845,0.5764426,0.110076904,-0.107681274,9.8033905,22.808838,6.436157,-39.823914,0.10669968,-0.10381751,9.80552,0.00025925785,0.00044424087,-0.00092601776,-0.00016784668,-0.00010681152,7.6293945e-05
-0.001187465,-0.0075050355,0.5764532,0.102890015,-0.100494385,9.812973,22.375488,7.423401,-39.302063,0.10684949,-0.10388329,9.805518,0.00011191517,0.00027873367,-0.0004529953,-0.00010681152,-0.00010681152,-0.00010681152
-0.0012521732,-0.007542681,0.57658136,0.112457275,-0.105285645,9.7986145,23.413086,7.272339,-39.450073,0.10670459,-0.10536263,9.805503,0.00025136024,-0.003027752,0.00096797943,-4.5776367e-05,-4.5776367e-05,-4.5776367e-05
-0.0012447155,-0.0075566024,0.57659453,0.110076904,-0.105285645,9.805786,20.915222,7.333374,-40.242004,0.107010305,-0.1054023,9.8055,0.0004246533,-0.00012534857,-0.0011034012,7.6293945e-05,0.0001373291,-4.5776367e-05
-0.0012633575,-0.0075880107,0.5766629,0.110076904,-0.107681274,9.8033905,22.932434,7.5439453,-40.80963,0.107293844,-0.106065184,9.80549,0.00014591962,-0.0013745502,-0.00089740753,-4.5776367e-05,-0.00010681152,-4.5776367e-05
-0.001222381,-0.007601063,0.5766382,0.114852905,-0.098098755,9.810577,23.086548,7.1777344,-39.38141,0.107969604,-0.10555297,9.805488,0.0011554658,0.0014482513,-0.0012369156,-4.5776367e-05,-4.5776367e-05,-4.5776367e-05
-0.0012068858,-0.0076477393,0.57669276,0.105285645,-0.110076904,9.805786,21.37146,6.628418,-39.575195,0.10888564,-0.10583985,9.805474,0.0011982098,0.0005474612,0.00046348572,-0.000289917,1.5258789e-05,0.00019836426
-0.0011922664,-0.0076151793,0.576627,0.110076904,-0.105285645,9.8033905,23.031616,7.911682,-40.28778,0.10853782,-0.1052286,9.805485,-0.00062672794,0.0016205162,0.0011034012,-0.00010681152,-0.00022888184,-0.00010681152
-0.0011982508,-0.0076203966,0.57664156,0.117248535,-0.117248535,9.793823,22.644043,8.021545,-38.963318,0.10855186,-0.10538542,9.805483,-0.00039362907,0.00056897104,-0.0005311966,-0.00016784668,-4.5776367e-05,1.5258789e-05
-0.0011517437,-0.0076326346,0.5766096,0.107681274,-0.100494385,9.7986145,22.106934,7.0495605,-40.348816,0.10927804,-0.10477437,9.805482,0.0010328218,0.00068930537,-0.00020217896,1.5258789e-05,-0.00010681152,-0.00021362305
-0.0011902017,-0.0076052025,0.5766095,0.105285645,-0.112457275,9.793823,22.149658,6.2530518,-40.81421,0.10840357,-0.10508036,9.805488,-0.0016821846,-0.00020665675,0.00067043304,-4.5776367e-05,1.5258789e-05,1.5258789e-05
-0.0012075176,-0.007605805,0.5766293,0.107681274,-0.105285645,9.805786,21.765137,6.437683,-39.630127,0.10821484,-0.10536726,9.805487,-0.00077962875,-0.0011067092,0.00059890747,7.6293945e-05,-4.5776367e-05,0.0001373291
-0.0012030519,-0.007635452,0.5766698,0.102890015,-0.102890015,9.800995,22.271729,7.05719,-39.901733,0.108735114,-0.10563638,9.805478,0.00038244575,-0.00012419373,-0.000705719,7.6293945e-05,-0.00022888184,-4.5776367e-05
-0.0012235054,-0.007601814,0.5766406,0.105285645,-0.102890015,9.812973,23.001099,7.104492,-39.694214,0.10796862,-0.1055798,9.805488,-0.0017161146,0.0005328581,-0.0006313324,-0.00016784668,-4.5776367e-05,-0.00015258789
-0.001229435,-0.007603644,0.57664984,0.102890015,-0.105285645,9.800995,22.8302,7.1762085,-41.184998,0.10792968,-0.10569673,9.805487,-0.00024668872,-6.361306e-05,0.0006990433,-0.00010681152,-4.5776367e-05,0.0001373291
-0.0012199661,-0.0076099276,0.5766492,0.095718384,-0.107681274,9.796219,22.506714,6.929016,-40.164185,0.10813753,-0.10561598,9.805485,-0.00021559745,0.0003337413,0.0009469986,-4.5776367e-05,-0.00016784668,1.5258789e-05
-0.0012646586,-0.007570619,0.5766377,0.110076904,-0.112457275,9.7986145,21.748352,7.8170776,-39.19525,0.107003756,-0.105886035,9.805495,-0.0024385378,-0.00035768002,-8.583069e-06,-4.5776367e-05,-4.5776367e-05,0.0001373291
-0.0012846434,-0.007592532,0.576693,0.107681274,-0.107681274,9.793823,21.45691,6.9366455,-40.87372,0.1071216,-0.10646133,9.805488,-0.00040403008,-0.0007292852,-0.00016498566,-4.5776367e-05,-0.00016784668,0.00019836426
-0.0012786526,-0.007578756,0.5766654,0.102890015,-0.110076904,9.791428,22.51892,7.296753,-40.618896,0.10697225,-0.10620591,9.805491,-8.158386e-06,0.0011644289,-0.00042438507,-0.00022888184,7.6293945e-05,7.6293945e-05
-0.0012715884,-0.007566964,0.57663965,0.114852905,-0.107681274,9.805786,23.493958,7.585144,-41.127014,0.10686655,-0.10595598,9.805495,-0.00061973184,0.0009146035,3.528595e-05,-0.00010681152,-4.5776367e-05,1.5258789e-05
-0.0012216679,-0.0075826333,0.57660925,0.114852905,-0.105285645,9.812973,21.565247,5.9280396,-41.537476,0.10768613,-0.1053293,9.805493,0.000971064,0.0014636815,-0.0026788712,-4.5776367e-05,-0.00016784668,0.0002593994
-0.0012278281,-0.0076413453,0.5767058,0.107681274,-0.107681274,9.810577,22.14508,5.9524536,-39.666748,0.10854462,-0.1061048,9.805474,0.0008343011,-0.001122199,-0.0008249283,-0.00010681152,-0.00022888184,1.5258789e-05
-0.0012186363,-0.007615119,0.5766557,0.105285645,-0.107681274,9.793823,23.512268,7.7178955,-39.51416,0.10823492,-0.105654255,9.805484,-0.00078342855,0.0010717586,0.00088596344,-4.5776367e-05,-0.00010681152,0.00019836426
-0.0012228194,-0.007570105,0.5765913,0.102890015,-0.105285645,9.793823,22.285461,7.348633,-39.993286,0.10747469,-0.10520372,9.805497,-0.0024141595,0.00014358014,-0.0008430481,0.0001373291,-0.00016784668,-0.00010681152
-0.0012370404,-0.007558409,0.5765889,0.102890015,-0.107681274,9.805786,22.666931,6.8634033,-39.72931,0.10712677,-0.10529901,9.8055,-0.0013451055,0.0002349019,-0.0007209778,-4.5776367e-05,-0.00016784668,0.0001373291
-0.0012668682,-0.0075351032,0.57658577,0.107681274,-0.100494385,9.808182,22.149658,6.176758,-40.452576,0.10641644,-0.10551301,9.805506,-0.0015860498,0.00020974874,0.00095653534,-0.00016784668,-0.00010681152,0.0001373291
-0.0012770072,-0.0075683426,0.5766477,0.107681274,-0.105285645,9.7986145,21.838379,6.373596,-40.097046,0.10682631,-0.10605945,9.805494,0.0006320402,-0.0002085641,-0.0006303787,-0.00016784668,1.5258789e-05,-0.00010681152
-0.0012782251,-0.0075552035,0.5766289,0.107681274,-0.112457275,9.812973,21.846008,6.7474365,-41.305542,0.10660447,-0.10592792,9.805499,-0.0008361414,0.0008768216,0.0021371841,-0.00022888184,-0.00010681152,-0.00015258789
-0.0012751664,-0.0075386856,0.57660025,0.112457275,-0.100494385,9.805786,21.984863,6.095886,-40.61432,0.10637811,-0.10568837,9.805504,-0.00037243217,0.0011170357,0.0012636185,-0.00010681152,-0.00010681152,7.6293945e-05
-0.0012361476,-0.0075877504,0.57663286,0.112457275,-0.110076904,9.820145,22.676086,7.006836,-39.474487,0.107601315,-0.1056223,9.805491,-0.00015771389,-0.0011040121,-0.0015115738,1.5258789e-05,-0.00010681152,7.6293945e-05
-0.0012482785,-0.0076212427,0.57669735,0.110076904,-0.107681274,9.815353,22.044373,7.409668,-40.348816,0.10799234,-0.10620397,9.80548,0.0004030913,-0.00075718015,0.0017118454,-4.5776367e-05,-0.00016784668,0.0002593994
-0.0012135791,-0.0075934967,0.57661706,0.105285645,-0.105285645,9.808182,21.418762,6.210327,-41.47339,0.107950665,-0.105323575,9.8054905,-0.0007410124,0.0019439235,-0.0007677078,-4.5776367e-05,-0.00010681152,1.5258789e-05
-0.0012250809,-0.007630023,0.5766855,0.117248535,-0.107681274,9.8033905,23.127747,6.4605713,-40.359497,0.10839695,-0.10593004,9.805479,4.813075e-06,-0.0005642921,-0.00035381317,-0.00016784668,-0.000289917,7.6293945e-05
-0.001253215,-0.0076394053,0.5767305,0.105285645,-0.105285645,9.808182,22.271729,7.058716,-40.203857,0.10822316,-0.10649289,9.805474,-0.0002931729,-0.0009487346,-0.00023555756,-4.5776367e-05,1.5258789e-05,-0.00010681152
-0.0012787082,-0.0076140175,0.5767194,0.105285645,-0.114852905,9.805786,22.78595,6.1553955,-41.46576,0.107529506,-0.10661272,9.805481,-0.001294598,-9.531528e-05,0.0030374527,-4.5776367e-05,1.5258789e-05,-0.00010681152
-0.0012658946,-0.007647006,0.57675594,0.112457275,-0.098098755,9.808182,21.963501,6.9473267,-37.797546,0.10819817,-0.10678539,9.805471,0.0009090379,-0.00017045438,-0.00068950653,-4.5776367e-05,-0.00010681152,-0.00010681152
-0.001230551,-0.0076440126,0.57671285,0.110076904,-0.112457275,9.8033905,22.059631,7.698059,-39.912415,0.108555645,-0.10617954,9.805474,7.5787306e-05,0.0016219616,0.00051021576,-4.5776367e-05,-0.00010681152,-0.00010681152
-0.0012612013,-0.0076206448,0.5767105,0.117248535,-0.105285645,9.808182,22.782898,7.6705933,-39.645386,0.10783488,-0.10640601,9.80548,-0.0016051605,-5.2824616e-05,0.0011358261,-0.00016784668,-0.00010681152,0.00019836426
-0.0012114833,-0.0076357806,0.57667947,0.107681274,-0.102890015,9.8033905,22.177124,6.7611694,-40.03296,0.10864376,-0.10577648,9.805477,0.0011815876,0.0012152195,-0.0017948151,1.5258789e-05,-4.5776367e-05,-0.00010681152
-0.0011638867,-0.007609849,0.576588,0.100494385,-0.107681274,9.805786,23.214722,6.5338135,-39.744568,0.10877839,-0.10470837,9.805488,-0.0006282553,0.0027836785,-0.0005502701,-0.00016784668,-0.000289917,-0.00016784668
-0.0012097872,-0.0075888964,0.5766059,0.112457275,-0.112457275,9.810577,22.665405,7.017517,-40.83252,0.10792129,-0.10520932,9.805492,-0.0019126385,-0.0010433123,-0.0018005371,-4.5776367e-05,-4.5776367e-05,-0.00010681152
-0.0012453377,-0.007608086,0.576674,0.112457275,-0.105285645,9.805786,23.85559,6.504822,-40.003967,0.10781786,-0.10600497,9.805485,-0.00085098296,-0.0011907443,0.0005531311,-4.5776367e-05,-0.00016784668,1.5258789e-05
-0.001249029,-0.0076215267,0.5766986,0.117248535,-0.105285645,9.805786,21.949768,7.0358276,-40.042114,0.10798824,-0.10621937,9.80548,0.00016767532,0.0002149716,0.00020885468,-0.00010681152,-4.5776367e-05,-0.00015258789
-0.0012095242,-0.0076206517,0.5766542,0.107681274,-0.105285645,9.812973,22.341919,6.616211,-38.935852,0.1084268,-0.10557062,9.805482,0.00069316477,0.0012420267,-0.0004911423,-4.5776367e-05,-4.5776367e-05,1.5258789e-05
-0.0012324285,-0.007619499,0.5766774,0.107681274,-0.102890015,9.812973,22.846985,7.235718,-39.434814,0.10814628,-0.10592766,9.805482,-0.0016704127,-0.0005482137,0.00079631805,-4.5776367e-05,-0.00010681152,1.5258789e-05
-0.0012296968,-0.0076320064,0.57669353,0.105285645,-0.107681274,9.808182,22.764587,7.30896,-40.248108,0.10837547,-0.1060275,9.805478,3.5092235e-05,0.00048585236,-0.0021810532,-0.00016784668,-0.000289917,0.00019836426
-0.0012325997,-0.007653322,0.57672936,0.102890015,-0.107681274,9.815353,21.676636,6.361389,-40.09247,0.10867947,-0.10631986,9.805471,-2.8215349e-05,-0.00040860474,0.0006246567,-0.00010681152,-0.00016784668,0.00019836426
-0.0012088933,-0.0076694232,0.57672817,0.110076904,-0.110076904,9.820145,22.441101,7.0602417,-39.001465,0.10920575,-0.10612201,9.805469,0.0006387234,0.00058084726,-0.0005378723,1.5258789e-05,-0.00010681152,7.6293945e-05
-0.0012205507,-0.0077100806,0.576803,0.107681274,-0.110076904,9.815353,23.020935,7.3883057,-38.73291,0.10971545,-0.106778726,9.805455,0.0008436814,-0.00091151893,0.00043678284,-4.5776367e-05,-4.5776367e-05,-0.00016784668
-0.0012369773,-0.0076623843,0.57674795,0.107681274,-0.110076904,9.7986145,23.231506,6.9000244,-39.744568,0.10877271,-0.106494986,9.805469,-0.0020485818,0.001678288,0.0009365082,-0.000289917,-4.5776367e-05,0.0001373291
-0.0012433628,-0.0076933065,0.57680225,0.110076904,-0.102890015,9.808182,22.113037,7.272339,-40.83252,0.10918876,-0.10695433,9.805459,0.00017874688,-0.00073455274,-0.0006542206,-0.00010681152,-0.00016784668,1.5258789e-05
-0.0012550814,-0.0076684984,0.57677704,0.114852905,-0.107681274,9.815353,22.375488,5.7510376,-40.097046,0.10866206,-0.106858075,9.805466,-0.0014488623,0.0006062463,0.0005235672,-0.00010681152,-4.5776367e-05,-4.5776367e-05
-0.0012192244,-0.007685253,0.57676363,0.110076904,-0.105285645,9.796219,21.842957,6.5231323,-40.444946,0.10933786,-0.10647133,9.805463,0.00096563995,0.00094377995,0.0013074875,7.6293945e-05,-0.00016784668,0.00039672852
-0.0012062124,-0.0076428987,0.57668465,0.110076904,-0.107681274,9.805786,23.03772,8.210754,-41.28418,0.108816765,-0.10577323,9.805476,-0.00042763352,0.000740774,0.0013933182,1.5258789e-05,-0.00022888184,0.0002593994
-0.0012603232,-0.007626216,0.5767181,0.107681274,-0.098098755,9.808182,21.17157,7.336426,-38.363647,0.10793308,-0.10645595,9.805478,-0.0016986504,-0.0007246956,0.0006055832,-0.00010681152,7.6293945e-05,1.5258789e-05
-0.0012318337,-0.007623902,0.57668346,0.110076904,-0.107681274,9.815353,21.298218,6.692505,-38.954163,0.10822275,-0.10596873,9.80548,0.000409469,0.0011662468,-0.00038814545,-0.00010681152,-0.00016784668,0.00032043457
-0.0012071818,-0.0076237107,0.57665634,0.110076904,-0.107681274,9.800995,22.453308,7.4295044,-39.456177,0.10850204,-0.10556798,9.805482,0.0003793016,0.0007605925,-0.0008993149,-4.5776367e-05,1.5258789e-05,0.00019836426
-0.001211366,-0.0076432545,0.5766908,0.105285645,-0.098098755,9.8033905,22.383118,7.4920654,-38.607788,0.108763374,-0.10586065,9.805476,0.0003509894,-0.00085811317,-0.00076293945,0.0001373291,-4.5776367e-05,0.0002593994
-0.0012155551,-0.0076123364,0.57664806,0.095718384,-0.105285645,9.808182,22.602844,7.145691,-39.442444,0.108226165,-0.1055724,9.805485,-0.0012577251,0.000999704,-0.0009851456,-0.00010681152,-4.5776367e-05,0.00019836426
-0.0012255149,-0.0076162745,0.5766649,0.102890015,-0.102890015,9.815353,22.433472,7.067871,-39.98108,0.10817443,-0.10577876,9.805483,-0.0007346347,-0.0006996766,0.0003004074,1.5258789e-05,-0.00016784668,7.6293945e-05
-0.0012603123,-0.0076348716,0.5767313,0.100494385,-0.110076904,9.7986145,22.459412,7.6522827,-39.938354,0.10807016,-0.10655544,9.805476,-0.0006262511,-0.001361385,-0.0007543564,1.5258789e-05,-0.00010681152,0.0002593994
-0.0012489916,-0.0076117474,0.5766836,0.112457275,-0.102890015,9.800995,21.981812,7.461548,-38.22174,0.10783394,-0.106106184,9.805483,-0.0008716062,0.0012953207,0.00157547,-0.00010681152,-0.00010681152,1.5258789e-05
-0.0012456347,-0.0076399357,0.57672304,0.102890015,-0.112457275,9.800995,22.26715,6.6818237,-38.69629,0.10831839,-0.10637646,9.805475,8.390099e-05,0.00012574345,-0.0010194778,-0.00022888184,-0.00016784668,7.6293945e-05
-0.0012319393,-0.007620425,0.5766783,-5.3862457,-1.380661,10.566711,22.349548,6.991577,-40.14435,0.10816652,-0.1059304,9.805481,-0.00095971674,0.00015820563,-0.0017995834,1.5258789e-05,-0.00016784668,0.00019836426
-0.09990267,0.03985325,0.6638376,-5.0201416,-5.0823517,13.919052,21.64917,5.7037354,-40.075684,-1.8792408,-0.93128014,9.579747,-1.2710142,-0.8793434,0.73017883,-0.09527588,-0.009567261,0.5137024
-0.23255824,0.45111853,0.7264956,-6.2859497,0.7130585,1.7276154,40.96527,-9.30481,-16.738892,-7.4126353,4.314925,4.754436,-1.1243572,-9.691755,4.8028994,1.0645294,3.9564514,2.508484
-0.31847703,0.38995665,0.85524356,4.4769745,1.8831482,10.88974,31.669617,-32.315063,3.9474487,-6.2809234,5.7745214,4.8348,-0.40716124,-5.3074102,-2.8114438,-0.65763855,2.4901123,2.416977
0.104450375,-0.21993668,-0.9691186,-0.9068756,4.240082,6.3385925,10.076904,-39.086914,-13.08136,-1.816778,4.260529,8.643933,4.4505863,-0.81966925,3.100315,-0.36227417,-1.9713135,0.07331848
0.049102467,0.2131465,0.97461796,1.5816498,4.902893,9.004196,-1.1016846,-37.95929,-19.11316,0.73911494,4.1203556,8.868301,2.5787802,1.4586525,-0.052671432,-0.42410278,-1.1203156,-0.21659851
0.09178428,0.18716292,0.9759699,1.557724,4.2233276,9.140579,-4.4815063,-37.660217,-20.878601,1.5239451,3.6969283,8.954368,-0.042723536,1.2929106,0.31998634,-0.041885376,0.15341187,0.12384033
0.08544899,0.1833695,0.9777848,1.5409851,4.268799,8.879761,-2.2659302,-37.92572,-24.043274,1.4413583,3.6085474,9.003959,-0.0452199,0.60427547,0.33007908,0.017990112,0.06550598,0.055419922
0.07876126,0.18885621,0.97769797,0.75613403,4.2879333,8.707489,-1.5167236,-37.062073,-25.558472,1.335135,3.6945431,8.985441,0.07369912,0.7269604,-0.1495018,0.068862915,0.15023804,0.09500122
0.072123826,0.19105388,0.9784537,3.672989,6.2404785,10.616959,-4.032898,-37.82196,-24.25232,1.270142,3.7094815,8.9887085,-0.011845589,0.83204746,0.03206539,-0.018539429,0.31578064,-0.024353027
-0.012617193,0.14860383,0.92073566,6.8362885,0.61016846,6.135193,-2.4627686,-36.920166,-23.980713,-1.278742,2.5943608,9.370405,8.6006365,-2.4274917,-2.6662998,-0.09613037,0.43362427,-1.8970947
0.14523429,0.057757527,0.7754315,-5.9844513,-1.031311,17.642288,12.496948,-31.399536,-24.67804,1.515799,2.6210961,9.327518,-6.237468,-3.9213,5.9067507,-0.25959778,-1.7598877,-3.5917206
0.18610825,-0.014527723,0.8240418,3.156128,-0.825531,15.969696,8.24585,-16.134644,-36.79962,3.1603246,1.7176558,9.1231785,-6.4691834,-1.7800708,-1.0523014,-0.938324,0.40441895,2.4381256
0.09824558,-0.054714516,0.93796176,-0.9762726,-1.3615112,9.537796,5.2093506,-11.354065,-40.156555,2.1593611,-0.3745335,9.558622,-1.4801555,0.14978904,2.4395323,0.17834473,0.6372833,2.601654
0.019078748,-0.040287767,0.99374205,0.34457397,-0.2033844,9.748352,5.014038,-14.370728,-37.968445,0.4527847,-0.74690616,9.767676,0.35058376,-1.4070892,0.27457714,0.2315979,0.07809448,0.33184814
0.018861774,-0.03935494,0.99418616,0.15792847,-0.23928833,9.748352,3.5003662,-15.629578,-39.144897,0.44377023,-0.7309777,9.769295,-0.12087512,0.37589985,0.246809,-0.0013275146,0.0015563965,-0.0011444092
0.018454295,-0.03796387,0.9942809,0.3134613,-0.18185425,9.879959,3.541565,-14.826965,-38.7558,0.4329251,-0.7048309,9.771704,-0.19658893,0.4859435,0.2265644,-0.0004119873,-0.00035095215,0.0001373291
0.018114377,-0.036673617,0.9943589,0.17468262,-0.22253418,9.767502,4.1503906,-15.666199,-38.34839,0.42367107,-0.6804637,9.773835,-0.16400072,0.45602077,0.21778107,-0.00022888184,1.5258789e-05,-4.5776367e-05
0.01775219,-0.03542462,0.99444056,0.29910278,-0.21057129,9.832108,4.7454834,-15.200806,-36.842346,0.41402736,-0.65696275,9.775857,-0.1812082,0.4352216,0.19944382,-0.000289917,-0.000289917,7.6293945e-05
0.015766978,-0.027466798,0.9948676,0.17945862,-0.1986084,9.784256,4.283142,-16.16211,-39.134216,0.35942638,-0.5062311,9.786978,-0.10330966,0.29067868,0.144166,-0.00035095215,-9.1552734e-05,7.6293945e-05
0.01402237,-0.022227058,0.99517393,0.28953552,-0.22253418,9.839294,3.8360596,-17.211914,-38.876343,0.3149128,-0.40784067,9.793103,-0.08589089,0.19263712,0.086239815,-0.00035095215,-0.00022888184,0.0001373291
0.013230847,-0.018700365,0.99531037,0.18902588,-0.19381714,9.777069,3.9001465,-15.90271,-38.082886,0.29275373,-0.34066764,9.796358,-0.043735266,0.1325407,0.06502628,-0.000289917,-0.00021362305,-4.5776367e-05
0.012319626,-0.016405081,0.9954473,0.275177,-0.21057129,9.810577,4.1412354,-15.885925,-38.243103,0.27047747,-0.2978023,9.798395,-0.043082923,0.08537933,0.036341667,-0.00022888184,-0.00010681152,-3.0517578e-05
0.012105163,-0.014877843,0.9954812,0.21057129,-0.20817566,9.789032,3.7231445,-16.125488,-39.02893,0.26348755,-0.26840433,9.799435,-0.01473695,0.058643788,0.031270027,-0.00022888184,-4.5776367e-05,1.5258789e-05
0.011606159,-0.013874014,0.99555147,0.25602722,-0.20578003,9.800995,3.277588,-15.281677,-38.989258,0.25178403,-0.24985602,9.800233,-0.02233684,0.03763953,0.01143837,-4.5776367e-05,-4.5776367e-05,1.5258789e-05
0.011627799,-0.013169428,0.9955491,0.22970581,-0.2033844,9.7986145,2.3590088,-16.073608,-38.661194,0.25096074,-0.23602965,9.800596,-0.0025737882,0.027147248,0.017045975,-0.00010681152,-0.000289917,-0.0002746582
0.011330736,-0.012645827,0.9955899,0.24885559,-0.1986084,9.8033905,4.5654297,-15.496826,-37.576294,0.24413665,-0.22642882,9.800997,-0.013025895,0.019746602,0.004193306,-0.000289917,1.5258789e-05,-0.00022888184
0.011393863,-0.012431305,0.99558127,0.23449707,-0.21534729,9.8033905,3.4942627,-16.00647,-37.786865,0.24500716,-0.22209784,9.801073,0.00035066903,0.009768248,0.009197235,-4.5776367e-05,-0.00016784668,-4.5776367e-05
0.011149046,-0.01218248,0.9956147,0.2416687,-0.21534729,9.800995,3.5827637,-15.776062,-38.27362,0.23971206,-0.21775576,9.801301,-0.009462386,0.00833942,0.0029268265,-0.00016784668,3.0517578e-05,-0.00010681152
0.011242433,-0.012099237,0.9956019,0.2416687,-0.20578003,9.800995,3.40271,-16.227722,-38.05542,0.24141525,-0.21592815,9.8013,0.0019249767,0.004401773,0.0051651,-0.000289917,-0.000289917,-4.5776367e-05
0.0110959215,-0.012024403,0.99562186,0.2368927,-0.21534729,9.808182,3.0975342,-15.882874,-38.046265,0.23837887,-0.21477756,9.801399,-0.0057787597,0.0039542913,-0.002448082,-0.00035095215,9.1552734e-05,0.00019836426
0.011160705,-0.0119251255,0.995613,0.24645996,-0.20817566,9.805786,3.779602,-14.959717,-38.34076,0.23948649,-0.21269771,9.801417,0.001704976,0.004769936,0.0025177002,-0.00016784668,-0.00033569336,0.00019836426
0.011080861,-0.01186808,0.9956238,0.22253418,-0.20817566,9.805786,2.4505615,-16.081238,-37.22992,0.23780325,-0.21175243,9.801479,-0.0032847226,0.0025963485,-0.0019798279,-0.00016784668,3.0517578e-05,7.6293945e-05
0.0111694485,-0.011870607,0.9956117,0.24885559,-0.20817566,9.8033905,3.8909912,-15.969849,-38.853455,0.23956296,-0.21161282,9.80144,0.0020919442,0.0008382946,0.0041189194,-4.5776367e-05,-0.00039672852,-4.5776367e-05
0.0106415665,-0.012221134,0.9917795,0.22970581,-0.20578003,9.793823,4.1534424,-15.365601,-39.344788,0.23742482,-0.21123435,9.8015,-0.004633799,0.0011758506,3.528595e-05,-0.00022888184,-3.0517578e-05,0.00019836426
0.01070924,-0.012226944,0.9917612,0.25842285,-0.22013855,9.815353,3.7567139,-15.472412,-38.368225,0.23878454,-0.21114582,9.801468,0.0016693771,0.0008404255,-0.0002784729,-0.00010681152,-0.0004119873,0.00019836426
0.0107357595,-0.012232793,0.9917542,0.22253418,-0.21296692,9.800995,3.1646729,-15.942383,-39.344788,0.23932607,-0.21118075,9.801455,0.00042253733,0.00037656724,-0.0009813309,-0.00035095215,9.1552734e-05,1.5258789e-05
0.010775595,-0.012201619,0.9917426,0.25842285,-0.20578003,9.796219,3.730774,-15.904236,-39.212036,0.24004225,-0.21045333,9.801453,0.0008832216,0.0025446564,0.00111866,-0.00010681152,-0.00015258789,7.6293945e-05
0.010753249,-0.012194376,0.9917485,0.22732544,-0.21774292,9.793823,3.0166626,-15.736389,-39.07318,0.23958035,-0.21037883,9.801466,-0.0005630553,0.0010365844,0.0001077652,-0.00022888184,3.0517578e-05,0.00019836426
0.010757275,-0.0121600805,0.99174666,0.25125122,-0.20578003,9.820145,3.7734985,-15.258789,-37.571716,0.23957694,-0.20969753,9.801481,-0.0010481775,0.0022628158,9.6321106e-05,-0.00016784668,-0.00033569336,0.0001373291
0.010749918,-0.012160144,0.99174863,0.22970581,-0.21534729,9.791428,3.3493042,-15.802002,-36.984253,0.23943083,-0.20972076,9.801484,-0.00041036308,0.00084872544,-0.00025463104,-0.000289917,3.0517578e-05,-0.00015258789
0.0107454695,-0.012164848,0.99174994,0.2536316,-0.2033844,9.8033905,3.1265259,-15.22522,-37.991333,0.23935382,-0.20982584,9.801483,-0.00031755865,-2.1323562e-05,-0.0012865067,7.6293945e-05,3.0517578e-05,0.0
0.010758696,-0.0121206,0.99174535,0.22253418,-0.21534729,9.800995,2.9571533,-15.382385,-37.939453,0.23950908,-0.20892285,9.801499,0.0007007122,0.0012416691,0.001373291,-4.5776367e-05,1.5258789e-05,6.1035156e-05
0.010716454,-0.0121197915,0.99175686,0.2536316,-0.21057129,9.817749,3.4545898,-16.880798,-38.03711,0.23866734,-0.20903328,9.801517,-0.0015867949,-6.775558e-05,0.0013942719,1.5258789e-05,-4.5776367e-05,-6.1035156e-05
0.010756078,-0.012116964,0.991746,0.22970581,-0.2033844,9.793823,4.789734,-15.843201,-37.957764,0.23944815,-0.20885971,9.801501,0.001936838,0.00025884807,0.0010786057,7.6293945e-05,0.00015258789,-6.1035156e-05
0.010757816,-0.012087197,0.9917448,0.26081848,-0.20817566,9.805786,2.581787,-14.825439,-37.963867,0.23941022,-0.20827362,9.801515,-0.0004234165,0.0011091977,0.00024318695,0.0001373291,-0.00021362305,-0.00012207031
0.010832381,-0.0121233845,0.9917253,0.22492981,-0.21534729,9.786652,2.8930664,-15.098572,-37.652588,0.24098061,-0.20875666,9.801467,0.0027898252,-0.0017583221,0.00048542023,0.0001373291,1.5258789e-05,-0.00012207031
0.010733796,-0.012097183,0.9917516,0.24885559,-0.20817566,9.810577,3.9642334,-16.18805,-38.44757,0.23895708,-0.20854029,9.80152,-0.0042634904,0.00016205013,-0.0012741089,-0.00010681152,-0.00016784668,-6.1035156e-05
0.010720269,-0.0120749585,0.9917548,0.22492981,-0.21296692,9.7986145,3.9093018,-15.606689,-38.55133,0.23863408,-0.20814702,9.801537,-0.0010687709,0.0007274002,-0.00020503998,1.5258789e-05,1.5258789e-05,6.1035156e-05
0.010659413,-0.012089365,0.9917717,0.24645996,-0.21057129,9.815353,4.244995,-15.292358,-38.502502,0.23745945,-0.20860977,9.801556,-0.0025295466,-0.00073604286,-0.0002965927,1.5258789e-05,-4.5776367e-05,6.1035156e-05
0.01070078,-0.012105356,0.9917608,0.23449707,-0.21534729,9.7986145,3.9855957,-15.673828,-38.720703,0.23832066,-0.20879841,9.801531,0.0016115755,0.00021390617,0.0026769638,-0.00016784668,-4.5776367e-05,-0.00022888184
0.0106577305,-0.012118879,0.99177283,0.25602722,-0.21296692,9.815353,4.637146,-15.557861,-38.572693,0.2374977,-0.20919071,9.801541,-0.0013856143,-0.00060752034,-0.0007696152,1.5258789e-05,9.1552734e-05,0.0
0.010719796,-0.012153765,0.9917567,0.23210144,-0.20817566,9.796219,3.2836914,-15.287781,-38.085938,0.23881644,-0.20968628,9.801499,0.0023070276,-0.0012946278,0.00060653687,7.6293945e-05,9.1552734e-05,-0.00016784668
0.010698236,-0.012156381,0.99176264,0.2368927,-0.21774292,9.815353,2.84729,-16.044617,-38.223267,0.23839417,-0.2098017,9.801507,-0.00034941733,-0.00049188733,-0.0027971268,-4.5776367e-05,-4.5776367e-05,-6.1035156e-05
0.010696664,-0.012175531,0.9917635,0.2368927,-0.20817566,9.805786,3.9276123,-15.318298,-37.815857,0.23840949,-0.21018009,9.801498,-0.00012722611,-0.0003517568,0.00054073334,1.5258789e-05,-0.00010681152,0.00030517578
0.01064423,-0.012120315,0.9917765,0.22970581,-0.20817566,9.7986145,4.222107,-15.803528,-38.604736,0.23723282,-0.209259,9.801547,-0.0025257617,0.0018306226,-0.0007572174,1.5258789e-05,-4.5776367e-05,0.0
0.010675251,-0.012101101,0.99176764,0.2368927,-0.20578003,9.805786,4.5288086,-16.148376,-38.61389,0.2378028,-0.20879154,9.801543,0.0007323921,0.00040332973,0.00013542175,0.00019836426,-0.00016784668,-6.1035156e-05
0.010691258,-0.012099359,0.99176323,0.23449707,-0.21296692,9.8033905,4.193115,-16.461182,-38.737488,0.23923032,-0.20896256,9.801504,0.001670748,-0.0006033182,0.001496315,-4.5776367e-05,-0.00033569336,0.00024414062
0.010728011,-0.012083446,0.99175286,0.24406433,-0.21296692,9.808182,3.175354,-15.873718,-38.500977,0.23880863,-0.2082895,9.801529,-0.0014833957,0.0008663088,-0.0007610321,7.6293945e-05,-4.5776367e-05,-6.1035156e-05
0.010748316,-0.012094407,0.9917476,0.23928833,-0.20578003,9.791428,4.321289,-15.510559,-37.947083,0.2392389,-0.20844272,9.801515,0.00071053207,7.176399e-05,0.0012569427,-4.5776367e-05,7.6293945e-05,0.00018310547
0.010723603,-0.012069306,0.99175376,0.2416687,-0.2033844,9.808182,3.4851074,-16.148376,-38.19275,0.23868658,-0.20802674,9.801537,-0.00085932016,0.0008357018,-0.0023584366,-4.5776367e-05,3.0517578e-05,-0.00012207031
0.010797551,-0.01208474,0.99173397,0.2368927,-0.2033844,9.7986145,3.4255981,-15.560913,-39.05487,0.24019407,-0.20810683,9.801499,0.0028745383,-0.00026990473,0.001786232,7.6293945e-05,-0.00010681152,6.1035156e-05
0.010783782,-0.012066811,0.9917373,0.2416687,-0.21057129,9.7986145,3.9550781,-16.329956,-38.853455,0.2398767,-0.20779815,9.801514,-0.0003863573,0.00036293268,-0.0018453598,7.6293945e-05,0.0001373291,7.6293945e-05
0.010806092,-0.012107341,0.9917321,0.2368927,-0.20817566,9.805786,4.6203613,-15.927124,-38.346863,0.24041891,-0.20852229,9.801485,0.0007291585,-0.0012905598,0.0016431808,1.5258789e-05,-4.5776367e-05,0.0
0.010741313,-0.012096773,0.9917495,0.2368927,-0.22013855,9.7986145,3.0441284,-15.380859,-37.339783,0.2391055,-0.20850983,9.8015175,-0.0022844225,-7.636845e-05,0.002049446,-4.5776367e-05,-4.5776367e-05,0.00012207031
0.010731615,-0.012121446,0.99175274,0.24406433,-0.20817566,9.805786,3.036499,-15.527344,-37.521362,0.23897275,-0.20902029,9.801509,-0.00094124675,-0.0010330379,-0.001660347,-0.00010681152,-0.00016784668,0.0
0.010724629,-0.012149821,0.9917553,0.24406433,-0.21296692,9.810577,3.4973145,-15.779114,-38.64746,0.23890291,-0.20959486,9.801498,-0.0003619194,-0.00047692657,-0.001742363,-0.00016784668,-0.00016784668,0.00012207031
0.010770575,-0.012191926,0.99174374,0.23928833,-0.21296692,9.805786,3.100586,-15.809631,-37.957764,0.23991886,-0.21027918,9.801459,0.0009924173,-0.000729844,0.00077438354,-0.00022888184,1.5258789e-05,-6.1035156e-05
0.010770138,-0.01221449,0.9917444,0.2416687,-0.21534729,9.800995,4.386902,-15.72113,-38.44452,0.2399651,-0.21072082,9.801449,0.00020498037,-0.0002670288,0.0019550323,7.6293945e-05,-0.00016784668,0.00024414062
0.0107493345,-0.012174899,0.99174917,0.23928833,-0.21296692,9.808182,3.1677246,-16.020203,-38.68103,0.2394551,-0.21001042,9.8014765,-0.0014261901,0.0014090836,-0.0007686615,-0.00010681152,-0.00016784668,0.00012207031
0.010734218,-0.012164415,0.99175304,0.23928833,-0.21534729,9.800995,3.868103,-14.886475,-37.72583,0.23912907,-0.20985101,9.801488,-0.0010894835,0.0005079061,-0.00083351135,-0.00016784668,1.5258789e-05,0.0
0.010713407,-0.012236814,0.9917603,0.2416687,-0.21774292,9.793823,4.0618896,-15.893555,-37.786865,0.23889141,-0.21132599,9.801462,-0.00061900914,-0.002782777,0.0008916855,7.6293945e-05,-0.00010681152,6.1035156e-05
0.010722133,-0.012207108,0.9917573,0.23449707,-0.21057129,9.812973,4.396057,-15.653992,-37.826538,0.23899268,-0.21072024,9.801473,0.0002477616,0.0018696338,-0.0005197525,-0.00010681152,0.0001373291,0.0
0.010695686,-0.01218686,0.991764,0.23928833,-0.20817566,9.810577,3.0258179,-15.745544,-37.789917,0.2384176,-0.21040408,9.801494,-0.0008547306,0.00034728646,-3.528595e-05,0.0001373291,-4.5776367e-05,0.0
0.010744957,-0.012146334,0.9917497,0.23210144,-0.20578003,9.800995,3.6392212,-14.537048,-37.872314,0.23929857,-0.20946608,9.801492,0.0016001463,0.001336664,0.00045204163,7.6293945e-05,7.6293945e-05,0.00018310547
0.010714092,-0.012113516,0.99175733,0.23928833,-0.20100403,9.8033905,3.6605835,-15.844727,-38.13629,0.23860511,-0.20891787,9.80152,-0.0013008416,0.0012690276,0.0007801056,-0.00016784668,-4.5776367e-05,0.00012207031
0.010702847,-0.012145968,0.99176115,0.2368927,-0.20817566,9.7986145,3.6148071,-15.045166,-38.20038,0.2384605,-0.20958473,9.80151,-0.00020337105,-0.0009251386,0.00068569183,7.6293945e-05,1.5258789e-05,6.1035156e-05
0.01072922,-0.012161815,0.9917543,0.2368927,-0.20578003,9.808182,4.634094,-15.786743,-37.260437,0.23902336,-0.20981519,9.801491,0.0006852001,-0.00095388293,-0.0014562607,-0.00010681152,-0.00016784668,0.00018310547
0.01071818,-0.012162387,0.99175733,0.23928833,-0.20578003,9.800995,2.6885986,-15.982056,-38.20343,0.23880531,-0.20985937,9.8014965,-0.0007941276,0.0005412847,0.0015907288,-4.5776367e-05,-0.00010681152,0.00030517578
0.010768276,-0.012155598,0.99174356,0.2416687,-0.20578003,9.805786,3.1082153,-15.437317,-39.01367,0.23978472,-0.20957716,9.801478,0.0020485222,0.0005097538,0.00058174133,-4.5776367e-05,0.0001373291,-6.1035156e-05
0.010783831,-0.0121733,0.9917397,0.2368927,-0.21296692,9.8033905,3.9520264,-16.477966,-38.505554,0.24013703,-0.20987605,9.801462,0.00051654875,-0.00039073825,-0.0008916855,0.0001373291,-0.00016784668,0.00024414062
0.0107757775,-0.012162382,0.99174166,0.2416687,-0.20817566,9.808182,3.7658691,-15.403748,-37.600708,0.23995036,-0.2096871,9.801472,-0.0012058765,0.0001256764,-0.0010681152,-4.5776367e-05,-0.00021362305,6.1035156e-05
0.010778074,-0.012163455,0.99174106,0.23449707,-0.20817566,9.812973,4.107666,-14.94751,-37.217712,0.23999862,-0.20970115,9.80147,-5.7533383e-05,-9.6693635e-05,0.0007238388,-0.00022888184,-4.5776367e-05,0.00012207031
0.010736358,-0.0121665625,0.9917525,0.24645996,-0.20578003,9.8033905,4.772949,-16.207886,-38.031006,0.23917685,-0.20988652,9.801486,-0.0018553883,0.00078839064,-0.001572609,-0.00010681152,-9.1552734e-05,-4.5776367e-05