timestamp,rotationVector_x,rotationVector_y,rotationVector_z,accelerometer_x,accelerometer_y,accelerometer_z,magneticField_x,magneticField_y,magneticField_z,gravity_x,gravity_y,gravity_z,linearAcceleration_x,linearAcceleration_y,linearAcceleration_z,gyroscope_x,gyroscope_y,gyroscope_z
2019-07-01T19:23:02.831Z,0.038875364,0.038174026,0.47466168,0.100738525,-0.24119568,9.800766,25.585938,12.861633,-38.49945,-0.2958173,1.0252066,9.748426,0.334911,-1.0621655,1.9424682,-0.00024414062,-6.1035156e-05,-6.1035156e-05
2019-07-01T19:23:03.035Z,0.03576473,0.035434473,0.4802728,0.095947266,-0.24024963,9.79837,26.445007,13.937378,-38.015747,-0.27168706,0.9480368,9.756935,0.3208364,-1.0154252,1.842617,0.00024414062,0.0,-4.5776367e-05
2019-07-01T19:23:03.241Z,0.032868117,0.032942347,0.48696712,0.09906006,-0.23951721,9.801239,26.391602,12.617493,-37.452698,-0.24959797,0.87688607,9.764177,0.3004836,-0.9622745,1.7523336,0.00036621094,-0.00010681152,-0.000289917
2019-07-01T19:23:03.445Z,0.016635466,0.017267091,0.5237922,0.09906006,-0.2416687,9.800766,26.185608,13.328552,-36.843872,-0.11747482,0.45521706,9.795375,0.20450479,-0.6437801,1.168088,-6.1035156e-05,1.5258789e-05,0.00012207031
2019-07-01T19:23:03.650Z,0.0076816133,0.0072290306,0.5379834,0.09786987,-0.24023438,9.800293,25.785828,13.601685,-38.056946,-0.038455658,0.20326927,9.804467,0.13588056,-0.4280114,0.7798395,0.0,-6.1035156e-05,-4.5776367e-05
2019-07-01T19:23:03.855Z,0.0023031686,0.0008762757,0.54654366,0.100494385,-0.24168396,9.797653,26.156616,12.747192,-37.416077,0.010296302,0.04722213,9.806531,0.09027731,-0.28492373,0.51734066,6.1035156e-05,6.1035156e-05,-6.1035156e-05
2019-07-01T19:23:04.060Z,-0.0010815375,-0.0031806363,0.55150604,0.09690857,-0.24215698,9.799561,25.88501,12.22229,-38.04016,0.040338643,-0.052099198,9.806429,0.058509074,-0.19049731,0.3463297,6.1035156e-05,6.1035156e-05,0.00012207031
2019-07-01T19:23:04.265Z,-0.003243857,-0.0058005303,0.55129325,0.100494385,-0.237854,9.802444,25.6073,13.227844,-38.35144,0.059839778,-0.11579879,9.805784,0.03947262,-0.12556389,0.23136425,6.1035156e-05,1.5258789e-05,-0.000289917
2019-07-01T19:23:04.471Z,-0.004709132,-0.0075890375,0.54765445,0.09977722,-0.24191284,9.799332,25.502014,14.379883,-37.358093,0.07395084,-0.1587912,9.805085,0.028703138,-0.086884856,0.15359974,0.0,0.00018310547,1.5258789e-05
2019-07-01T19:23:04.550Z,-0.005662801,-0.008672685,0.5462909,0.09666443,-0.24023438,9.797653,24.960327,13.1073,-37.82196,0.08178963,-0.18594551,9.804545,0.016507,-0.05490014,0.10096741,-6.1035156e-05,-6.1035156e-05,-0.00010681152
2019-07-01T19:23:04.758Z,-0.0062612784,-0.009368394,0.54406923,0.09906006,-0.23808289,9.799805,25.378418,13.65509,-38.85956,0.08734159,-0.20299856,9.80416,0.011178754,-0.035879,0.06890583,0.00018310547,-0.00010681152,-0.00016784668
2019-07-01T19:23:04.950Z,-0.006643565,-0.009926088,0.5449198,0.10145569,-0.23832703,9.800522,26.313782,12.760925,-37.872314,0.09221885,-0.2153326,9.803852,0.0097040385,-0.025046647,0.04609394,-6.1035156e-05,-6.1035156e-05,-0.00010681152
2019-07-01T19:23:05.161Z,-0.0069330195,-0.010199753,0.545235,0.096191406,-0.23832703,9.7986145,26.345825,13.642883,-38.60016,0.09354038,-0.22305161,9.803667,0.0022624359,-0.016058922,0.030100822,6.1035156e-05,-0.00016784668,-0.00016784668
2019-07-01T19:23:05.362Z,-0.0071219997,-0.010410413,0.5437347,0.09881592,-0.23951721,9.803879,26.753235,13.438416,-37.071228,0.09539024,-0.22824031,9.80353,0.004138395,-0.011340886,0.022453308,0.0,0.0,-4.5776367e-05
2019-07-01T19:23:05.561Z,-0.0072589433,-0.010543652,0.54310256,0.096191406,-0.23832703,9.803146,26.153564,12.979126,-39.1037,0.096296795,-0.23184228,9.803436,0.0017213002,-0.0078029186,0.015761375,0.00018310547,-6.1035156e-05,1.5258789e-05
2019-07-01T19:23:05.773Z,-0.0073286206,-0.010603825,0.5429652,0.0993042,-0.23951721,9.800278,25.93689,13.240051,-37.15515,0.096583396,-0.23361462,9.803392,0.00067127496,-0.003997728,0.009387016,-6.1035156e-05,0.00012207031,0.0
2019-07-01T19:23:05.973Z,-0.0074219625,-0.010700213,0.54212815,0.09643555,-0.24143982,9.8022,26.098633,13.175964,-36.872864,0.09741161,-0.236081,9.803324,0.0014937595,-0.005294487,0.005625725,0.00018310547,-0.00010681152,0.00024414062
2019-07-01T19:23:06.176Z,-0.007472757,-0.0107713165,0.54222935,0.09953308,-0.23857117,9.8029175,26.811218,13.0859375,-37.75177,0.09801431,-0.23768571,9.80328,0.0013259128,-0.0007286668,0.004201889,6.1035156e-05,6.1035156e-05,-6.1035156e-05
2019-07-01T19:23:06.380Z,-0.007511542,-0.010755952,0.5422392,0.09666443,-0.23928833,9.800766,25.787354,13.525391,-37.467957,0.097345844,-0.23816253,9.803275,-0.0011199862,-0.0014389604,0.00024318695,0.00012207031,-0.00016784668,-0.00010681152
2019-07-01T19:23:06.575Z,-0.007602367,-0.010794129,0.5423341,0.09475708,-0.23760986,9.801483,25.715637,13.66272,-36.909485,0.09698158,-0.24007586,9.803231,-3.9123e-05,-0.0035993308,-9.536743e-07,6.1035156e-05,0.00024414062,-0.00022888184
2019-07-01T19:23:06.783Z,-0.007495933,-0.010697121,0.5421723,0.098098755,-0.24119568,9.800049,27.114868,12.820435,-38.648987,0.09656153,-0.23727208,9.803304,-0.0005885735,0.004390344,0.0017490387,0.0,0.0001373291,-0.00018310547
2019-07-01T19:23:06.991Z,-0.0075726667,-0.01079487,0.54231584,0.09977722,-0.24334717,9.804108,26.316833,12.986755,-38.731384,0.09731496,-0.23959231,9.80324,0.001759775,-0.0052253157,0.002117157,0.00024414062,1.5258789e-05,0.0
2019-07-01T19:23:07.192Z,-0.0075804763,-0.010786999,0.5423132,0.096191406,-0.23640442,9.803162,26.57013,13.220215,-38.5437,0.09710297,-0.23963697,9.803241,-0.00042533875,-0.00015696883,0.00029182434,0.00019836426,0.00012207031,-4.5776367e-05
2019-07-01T19:23:07.393Z,-0.0075559574,-0.010776267,0.5422872,0.09762573,-0.24072266,9.801239,27.011108,12.303162,-38.671875,0.09719442,-0.23911586,9.803252,0.0004452765,0.0009986162,-0.00013256073,-4.5776367e-05,6.1035156e-05,0.00012207031
2019-07-01T19:23:07.590Z,-0.0075495834,-0.010762082,0.5422694,0.09666443,-0.23808289,9.800049,26.916504,13.674927,-37.9364,0.09703361,-0.23885797,9.803261,-0.00010428578,0.0007239729,-0.0013589859,1.5258789e-05,-6.1035156e-05,0.00024414062
2019-07-01T19:23:07.796Z,-0.007499834,-0.010746266,0.5422224,0.09666443,-0.23521423,9.802673,26.121521,11.86676,-36.990356,0.09731556,-0.23786466,9.803282,0.0010401309,0.0014137179,0.0016412735,7.6293945e-05,0.00012207031,-0.00010681152
2019-07-01T19:23:07.992Z,-0.007544837,-0.010777627,0.54228145,0.09883118,-0.24095154,9.804352,26.73645,13.226318,-37.945557,0.09733677,-0.23894647,9.803256,5.1125884e-05,-0.0020205379,0.0012578964,1.5258789e-05,0.00018310547,-0.00022888184
2019-07-01T19:23:08.213Z,-0.007548259,-0.010735959,0.54224324,0.09547424,-0.24023438,9.8033905,25.354004,12.687683,-36.564636,0.09662475,-0.23855536,9.803272,-0.0016235933,0.00070151687,0.0013170242,1.5258789e-05,-0.00010681152,0.00018310547
2019-07-01T19:23:08.407Z,-0.00755265,-0.010749547,0.5422592,0.095718384,-0.23760986,9.803879,26.4328,13.568115,-37.486267,0.096797355,-0.238774,9.803265,0.0005829334,-0.0002669543,0.0002374649,-0.00010681152,0.0,-6.1035156e-05
2019-07-01T19:23:08.606Z,-0.0075486125,-0.010735637,0.5422432,0.09786987,-0.23904419,9.800049,26.651001,13.075256,-37.747192,0.09661569,-0.23855771,9.803271,-0.00041056424,0.00044097006,-0.003036499,-4.5776367e-05,-0.00010681152,-0.00048828125
2019-07-01T19:23:08.811Z,-0.0075355642,-0.01074744,0.5422463,0.09643555,-0.237854,9.800995,26.693726,12.353516,-38.57422,0.09694807,-0.2384686,9.80327,0.00021898746,0.00057931244,-0.0001077652,-0.00022888184,-0.00016784668,-0.00022888184
2019-07-01T19:23:09.014Z,-0.007517676,-0.010841917,0.54232633,0.100738525,-0.23927307,9.804352,25.915527,14.399719,-36.312866,0.098672055,-0.2391879,9.803236,0.0027918592,-0.0010664016,0.0012159348,0.00019836426,-6.1035156e-05,-0.00035095215
2019-07-01T19:23:09.217Z,-0.007534078,-0.010768705,0.54226595,0.09666443,-0.23808289,9.799332,25.875854,13.751221,-37.652588,0.097308636,-0.23867251,9.803262,-0.0025337562,0.0007748455,-0.0019083023,-4.5776367e-05,6.1035156e-05,-0.00010681152
2019-07-01T19:23:09.422Z,-0.0075584664,-0.0108061,0.5423177,0.095947266,-0.24023438,9.803635,26.029968,13.7664795,-38.334656,0.09765053,-0.23947802,9.80324,0.00094301254,-0.0014894605,0.0022382736,7.6293945e-05,6.1035156e-05,-4.5776367e-05
2019-07-01T19:23:09.638Z,-0.00755766,-0.010771435,0.5422836,0.098098755,-0.23928833,9.802673,25.190735,12.82959,-37.81128,0.097097725,-0.23909214,9.803255,-0.00089527667,0.0004937947,-0.0009012222,-0.00010681152,0.00012207031,-0.00010681152
2019-07-01T19:23:09.830Z,-0.0075787203,-0.010801669,0.54232633,0.09762573,-0.24023438,9.8029175,25.587463,12.712097,-37.928772,0.09735958,-0.23976557,9.803235,0.00074595213,-0.00072965026,0.0008382797,-0.00010681152,6.1035156e-05,-0.00022888184
2019-07-01T19:23:10.032Z,-0.007573622,-0.010784844,0.5423068,0.09762573,-0.23904419,9.803879,25.76294,12.860107,-36.697388,0.09714222,-0.23950037,9.803244,0.00048832595,0.00068843365,0.0004043579,1.5258789e-05,0.00018310547,-0.00016784668
2019-07-01T19:23:10.235Z,-0.0075505013,-0.0108482,0.54235333,0.100738525,-0.24047852,9.803635,25.938416,13.162231,-36.566162,0.09841862,-0.23979868,9.803224,0.0027930737,-0.0006802082,0.0008993149,7.6293945e-05,6.1035156e-05,-0.00016784668
2019-07-01T19:23:10.440Z,-0.007571359,-0.010849646,0.54236805,0.09666443,-0.24072266,9.802673,25.906372,12.585449,-37.513733,0.09821633,-0.2401594,9.803217,-0.00082165,-0.0010309666,0.0004453659,-4.5776367e-05,-6.1035156e-05,-4.5776367e-05
2019-07-01T19:23:10.638Z,-0.007567686,-0.01086977,0.54238516,0.09954834,-0.24047852,9.805069,26.45874,13.923645,-36.20758,0.09858202,-0.24031496,9.80321,0.0011906847,-0.00015255809,0.0004491806,1.5258789e-05,6.1035156e-05,0.0
2019-07-01T19:23:10.842Z,-0.007554463,-0.010821586,0.5423301,0.09786987,-0.23880005,9.8022,25.801086,13.815308,-37.409973,0.097944655,-0.23957816,9.803233,-0.0012756437,0.000995785,-0.00178051,0.0001373291,0.0,0.00024414062
2019-07-01T19:23:11.044Z,-0.0075431825,-0.01083756,0.5423384,0.09906006,-0.23904419,9.800049,25.440979,12.913513,-36.898804,0.098325476,-0.23956318,9.80323,0.00074665993,-0.00022760034,-0.0015048981,0.0001373291,-0.00010681152,-0.00022888184
2019-07-01T19:23:11.247Z,-0.007555504,-0.010810996,0.54232055,0.098587036,-0.24095154,9.799332,26.020813,13.322449,-37.217712,0.097761884,-0.23948161,9.803239,-0.0013068691,0.00014558434,-0.0014810562,-0.00010681152,6.1035156e-05,0.00012207031
2019-07-01T19:23:11.449Z,-0.0075240387,-0.010830361,0.5423192,0.09690857,-0.23712158,9.801712,25.801086,13.815308,-37.409973,0.09841602,-0.239169,9.80324,0.00090639293,0.00079770386,0.00028705597,-0.00010681152,7.6293945e-05,0.00012207031
2019-07-01T19:23:11.652Z,-0.0076328926,-0.010881931,0.5424385,0.09428406,-0.2457428,9.79837,25.097656,12.380981,-36.842346,0.09807319,-0.24152473,9.8031845,-0.00042197853,-0.0035636723,-0.0015497208,-0.000289917,-0.00016784668,-0.00018310547
2019-07-01T19:23:11.852Z,-0.0075210202,-0.010728115,0.5422183,0.09906006,-0.23617554,9.801727,26.808167,13.088989,-38.127136,0.09679233,-0.23802029,9.803284,-0.0027463734,0.0070941597,0.004076004,1.5258789e-05,6.1035156e-05,0.00012207031
2019-07-01T19:23:12.058Z,-0.0075468295,-0.010786425,0.5422912,0.098587036,-0.24072266,9.8029175,25.9552,12.011719,-38.235474,0.09745773,-0.23907398,9.803251,0.0013847649,-0.0014323145,-0.0011024475,-0.00016784668,-0.00010681152,0.0
2019-07-01T19:23:12.260Z,-0.007612303,-0.010868826,0.5424127,0.10145569,-0.24119568,9.801712,26.875305,12.649536,-37.539673,0.098083846,-0.24104315,9.803197,0.0014758632,-0.0037662834,-0.0001039505,-4.5776367e-05,0.00018310547,-0.00016784668
2019-07-01T19:23:12.463Z,-0.0075015263,-0.010831824,0.54230624,0.09786987,-0.23664856,9.803162,25.823975,12.582397,-37.73651,0.098683275,-0.2388121,9.803245,0.00038368255,0.002146855,0.001074791,7.6293945e-05,-0.00010681152,-4.5776367e-05
2019-07-01T19:23:12.669Z,-0.0075452775,-0.010873363,0.5423744,0.09977722,-0.23880005,9.803879,27.418518,14.073181,-37.574768,0.09888272,-0.23998272,9.803215,0.00018119812,-0.0019394755,0.0005578995,-0.00022888184,-6.1035156e-05,0.00012207031
2019-07-01T19:23:12.871Z,-0.0075808335,-0.0108894715,0.54241264,0.098342896,-0.2400055,9.80603,25.437927,12.919617,-37.652588,0.098758794,-0.2407443,9.803197,-0.0006485507,-0.0009151995,0.0014972687,-4.5776367e-05,-6.1035156e-05,7.6293945e-05
2019-07-01T19:23:13.075Z,-0.007560036,-0.010846741,0.54235804,0.09786987,-0.24502563,9.802444,25.671387,12.866211,-38.12561,0.09829181,-0.23994079,9.803222,-0.0013765842,0.0011245012,-0.0020360947,1.5258789e-05,-6.1035156e-05,-4.5776367e-05
2019-07-01T19:23:13.279Z,-0.0075666006,-0.010879744,0.54239416,0.098587036,-0.24095154,9.8022,25.463867,13.578796,-37.89673,0.0987553,-0.24040419,9.8032055,0.00054453313,-0.0017421544,0.002146721,7.6293945e-05,-0.00010681152,1.5258789e-05
2019-07-01T19:23:13.481Z,-0.0075661065,-0.010851082,0.5423661,0.09786987,-0.23760986,9.803635,25.787354,13.525391,-37.391663,0.098296426,-0.24008791,9.803218,-0.00091823936,0.0005790144,-0.000166893,0.0001373291,0.0,-0.00010681152
2019-07-01T19:23:13.679Z,-0.007499723,-0.010867162,0.5423393,0.09977722,-0.23880005,9.8033905,25.02594,12.672424,-37.535095,0.09927521,-0.23916212,9.80323,0.0017063096,0.0017991513,-0.00042629242,7.6293945e-05,-6.1035156e-05,7.6293945e-05
2019-07-01T19:23:13.880Z,-0.0075785937,-0.010884998,0.54240686,0.09738159,-0.24119568,9.7986145,26.083374,13.038635,-37.957764,0.098710604,-0.24065918,9.803201,-0.0015434176,-0.0024944097,-0.003148079,-4.5776367e-05,0.0,-6.1035156e-05
2019-07-01T19:23:14.092Z,-0.007585206,-0.010866704,0.5423934,0.09762573,-0.24168396,9.803635,26.582336,13.35907,-37.457275,0.09834274,-0.24057192,9.8032055,-0.00023902208,-0.00016286969,0.0018854141,-0.00010681152,-4.5776367e-05,0.00024414062
2019-07-01T19:23:14.281Z,-0.0076245456,-0.010896915,0.5424477,0.09786987,-0.24191284,9.804352,25.959778,12.007141,-37.63275,0.0984062,-0.2415477,9.803182,-0.0010236353,-0.00061167777,0.0007944107,-0.00010681152,-0.00024414062,7.6293945e-05
2019-07-01T19:23:14.488Z,-0.0076109106,-0.0108773755,0.5424201,0.098587036,-0.24047852,9.800293,25.848389,12.940979,-36.75995,0.09823738,-0.24111202,9.803194,-0.00012734532,0.0015671253,-0.0020189285,-0.0004119873,0.0,0.00018310547
2019-07-01T19:23:14.696Z,-0.0075697973,-0.0108905835,0.5424067,0.09881592,-0.23928833,9.80101,26.397705,12.686157,-37.060547,0.09889626,-0.24057361,9.8032,0.00042136014,0.0010237694,-0.00038719177,7.6293945e-05,-0.00016784668,-4.5776367e-05
2019-07-01T19:23:14.893Z,-0.0076404247,-0.010904584,0.54246527,0.09786987,-0.24023438,9.802673,25.723267,13.807678,-36.880493,0.098358504,-0.24189292,9.803173,-0.00075197965,-0.0026124567,0.006436348,7.6293945e-05,-6.1035156e-05,1.5258789e-05
2019-07-01T19:23:15.099Z,-0.0075026588,-0.010857013,0.54233134,0.098587036,-0.23664856,9.801239,26.200867,13.618469,-36.636353,0.09907906,-0.23910162,9.803234,0.0007231161,0.0064516813,-0.008620262,-0.00022888184,-6.1035156e-05,0.00012207031
2019-07-01T19:23:15.304Z,-0.007529915,-0.010884878,0.5423757,0.10002136,-0.24047852,9.804352,26.272583,13.555908,-37.25586,0.09923547,-0.23985225,9.803214,0.0008001849,-0.0013779849,0.002076149,-4.5776367e-05,0.00012207031,-4.5776367e-05
2019-07-01T19:23:15.502Z,-0.0074819056,-0.010878708,0.54233915,0.10121155,-0.23880005,9.803635,25.830078,12.652588,-37.495422,0.09965504,-0.23899136,9.803231,0.0006163791,0.0018556118,0.0017023087,-4.5776367e-05,-0.00022888184,0.00012207031
2019-07-01T19:23:15.699Z,-0.007504774,-0.010831474,0.542308,0.096191406,-0.23783875,9.800293,26.25885,13.417053,-38.26599,0.09864248,-0.2388621,9.803244,-0.0024347082,0.0004954487,-0.0020570755,1.5258789e-05,6.1035156e-05,0.00012207031
2019-07-01T19:23:15.903Z,-0.0075300653,-0.010841845,0.54233414,0.098098755,-0.23951721,9.801956,26.376343,14.071655,-37.22992,0.098536804,-0.23939215,9.803232,-0.00042377412,-0.0011210591,0.00038814545,-4.5776367e-05,-0.00022888184,0.00024414062
2019-07-01T19:23:16.123Z,-0.007547275,-0.010877371,0.5423795,0.098098755,-0.24143982,9.802673,25.98114,12.290955,-36.520386,0.09892601,-0.24005887,9.803213,-8.439273e-05,-0.0014062673,0.0007390976,1.5258789e-05,-6.1035156e-05,1.5258789e-05
2019-07-01T19:23:16.319Z,-0.0075866873,-0.010916243,0.54244226,0.10121155,-0.24287415,9.803879,25.187683,12.8341675,-38.111877,0.09912899,-0.24112898,9.803184,0.00041022897,-0.0015159696,0.0008134842,-0.00022888184,-0.00010681152,-0.00010681152
2019-07-01T19:23:16.516Z,-0.0075748935,-0.01087775,0.5423975,0.095947266,-0.23928833,9.800522,25.741577,12.579346,-38.03711,0.09863324,-0.24051999,9.803204,-0.0012368336,0.0014396906,-0.0016832352,-4.5776367e-05,0.0,7.6293945e-05
2019-07-01T19:23:16.723Z,-0.007563216,-0.010894337,0.5424061,0.1002655,-0.24095154,9.800522,26.747131,13.444519,-37.976074,0.09902826,-0.24050504,9.8032,0.00053817034,-1.7404556e-05,-0.00064373016,1.5258789e-05,-0.00016784668,-0.00010681152
2019-07-01T19:23:16.932Z,-0.0075287847,-0.0108855525,0.5423756,0.098587036,-0.23736572,9.801727,25.912476,12.882996,-38.131714,0.099258624,-0.23984079,9.803214,-0.00018373132,0.0017220527,0.0006952286,-0.00010681152,-6.1035156e-05,1.5258789e-05
2019-07-01T19:23:17.134Z,-0.007556826,-0.010855505,0.5423644,0.09690857,-0.23951721,9.799561,25.810242,14.265442,-38.752747,0.098468505,-0.23998187,9.803219,-0.0015386492,-7.548928e-05,-0.0012950897,1.5258789e-05,-0.00016784668,-0.00010681152
2019-07-01T19:23:17.329Z,-0.00750984,-0.010861695,0.54234046,0.09977722,-0.23880005,9.800995,25.880432,13.900757,-37.998962,0.0990772,-0.2392708,9.80323,0.0009676665,0.0016041845,-0.0003824234,7.6293945e-05,0.00012207031,7.6293945e-05
2019-07-01T19:23:17.537Z,-0.007558365,-0.010914095,0.5424221,0.10002136,-0.24215698,9.800995,24.761963,13.813782,-36.53717,0.099400766,-0.24063718,9.803193,0.00089007616,-0.002542451,-0.00041675568,-0.00010681152,0.0,1.5258789e-05
2019-07-01T19:23:17.732Z,-0.007560396,-0.010888515,0.5423987,0.098587036,-0.2400055,9.8033905,26.463318,12.402344,-37.347412,0.0989645,-0.2403958,9.803204,-0.0010816231,0.00012983382,0.0024366379,7.6293945e-05,-0.00016784668,0.00012207031
2019-07-01T19:23:17.940Z,-0.007577873,-0.0108863,0.5424077,0.098098755,-0.24287415,9.8022,26.223755,14.2074585,-37.19635,0.09873948,-0.2406612,9.803199,-0.00085444003,-0.0010444671,-0.00045394897,7.6293945e-05,0.0,1.5258789e-05
2019-07-01T19:23:18.141Z,-0.007539261,-0.010887189,0.5423839,0.10002136,-0.24191284,9.801727,25.846863,13.092041,-37.634277,0.09917174,-0.24003176,9.80321,0.001108259,0.0016696602,0.0001783371,1.5258789e-05,0.00012207031,0.00018310547
2019-07-01T19:23:18.346Z,-0.0075514857,-0.010932816,0.5424358,0.09811401,-0.24310303,9.804108,26.141357,12.533569,-38.137817,0.09977842,-0.24072465,9.803188,0.0012155101,-0.0019325316,0.00059223175,1.5258789e-05,6.1035156e-05,-0.00016784668
2019-07-01T19:23:18.550Z,-0.0076073944,-0.0109108845,0.5424503,0.09977722,-0.24072266,9.802673,25.90332,12.588501,-37.815857,0.09881808,-0.24141407,9.803181,-0.0019052401,-0.0014705062,0.0013504028,-0.00010681152,-6.1035156e-05,0.00012207031
2019-07-01T19:23:18.753Z,-0.0075978334,-0.010932657,0.54246527,0.09977722,-0.24191284,9.800278,25.827026,12.731934,-38.15918,0.09952756,-0.24115753,9.803179,0.00051087886,0.0005193651,-0.00068950653,-4.5776367e-05,-0.00010681152,0.00018310547
2019-07-01T19:23:18.954Z,-0.007508911,-0.010869426,0.5423474,0.098342896,-0.23641968,9.801483,25.924683,13.024902,-37.576294,0.09921247,-0.23933852,9.803226,-0.00085538626,0.002411589,-9.727478e-05,0.0002593994,6.1035156e-05,0.0
2019-07-01T19:23:19.156Z,-0.0075333454,-0.010911169,0.54240334,0.10002136,-0.24072266,9.800995,25.923157,12.870789,-36.8515,0.09962418,-0.2401917,9.803203,0.00041150302,-0.0019998103,-6.580353e-05,0.00019836426,-0.00010681152,7.6293945e-05
2019-07-01T19:23:19.355Z,-0.0075327614,-0.0109274825,0.5424187,0.09906006,-0.24287415,9.8029175,26.489258,12.986755,-37.153625,0.099894695,-0.2403574,9.803195,-0.0005775988,-0.00086933374,0.0002708435,7.6293945e-05,-0.00022888184,0.00012207031
2019-07-01T19:23:19.566Z,-0.0075360537,-0.01091074,0.54240465,0.098587036,-0.23904419,9.801483,26.965332,12.87384,-37.348938,0.0995879,-0.24023187,9.803201,-0.0014609769,0.000912413,2.5749207e-05,7.6293945e-05,-0.000289917,7.6293945e-05
2019-07-01T19:23:19.777Z,-0.0075817383,-0.010914256,0.5424372,0.09762573,-0.24191284,9.802444,26.998901,13.6779785,-37.56256,0.09915039,-0.24102573,9.803186,-0.0012662783,-0.0013947487,-0.00029563904,-0.00022888184,-0.00016784668,0.00036621094
2019-07-01T19:23:19.965Z,-0.0075820633,-0.010941232,0.5424635,0.09881592,-0.24240112,9.800995,26.620483,12.265015,-37.078857,0.099583715,-0.24132115,9.803175,0.00021038204,-0.00040370226,-0.0005187988,1.5258789e-05,-0.00016784668,7.6293945e-05
2019-07-01T19:23:20.167Z,-0.007571473,-0.010892512,0.5424096,0.09738159,-0.23880005,9.8033905,26.321411,12.904358,-37.615967,0.09890936,-0.24062209,9.803199,-0.0015170872,0.0013077557,0.0012512207,-4.5776367e-05,-6.1035156e-05,-0.00016784668
2019-07-01T19:23:20.372Z,-0.0075906697,-0.010906169,0.54243505,0.0993042,-0.2416687,9.805786,25.622559,13.591003,-37.976074,0.09892275,-0.2410866,9.803187,-0.0003406331,-0.0010584146,0.0030727386,1.5258789e-05,-0.00010681152,0.00019836426
2019-07-01T19:23:20.575Z,-0.007637534,-0.010919336,0.54247767,0.0993042,-0.24334717,9.801727,26.145935,12.68158,-38.409424,0.098628685,-0.24200368,9.803167,-0.00052529573,-0.0020720214,-0.0019416809,7.6293945e-05,6.1035156e-05,7.6293945e-05
2019-07-01T19:23:20.779Z,-0.007587999,-0.010918408,0.5424452,0.098098755,-0.24119568,9.801483,26.556396,12.854004,-38.24005,0.09914986,-0.241174,9.803184,0.00016328692,0.0013908893,-0.00081539154,-4.5776367e-05,-0.000289917,0.00024414062
2019-07-01T19:23:20.982Z,-0.0075755036,-0.010891682,0.5424114,0.098098755,-0.23904419,9.8033905,26.141357,12.382507,-37.33673,0.098852284,-0.24067986,9.803198,-0.0007497221,0.00090923905,0.0010433197,0.0001373291,6.1035156e-05,0.00012207031
2019-07-01T19:23:21.188Z,-0.007523922,-0.010903726,0.5423901,0.10169983,-0.24047852,9.8033905,26.098633,13.404846,-38.186646,0.09960559,-0.23995568,9.803207,0.0011324361,0.00043965876,0.00085163116,7.6293945e-05,-0.00016784668,0.00024414062
2019-07-01T19:23:21.383Z,-0.0075375154,-0.010896588,0.5423919,0.09881592,-0.23904419,9.804596,26.419067,13.2751465,-37.545776,0.099342875,-0.24010393,9.803207,0.00018846989,0.00034677982,0.00025558472,1.5258789e-05,0.0,0.00012207031
2019-07-01T19:23:21.586Z,-0.007532474,-0.01087594,0.5423687,0.09786987,-0.23976135,9.804596,27.08435,13.908386,-38.27362,0.099063,-0.23979852,9.803217,-0.0011988208,0.00076811016,0.00081539154,1.5258789e-05,0.0,-0.00016784668
2019-07-01T19:23:21.797Z,-0.0075490912,-0.010862409,0.5423662,0.098342896,-0.24072266,9.803635,25.71106,13.591003,-37.1521,0.098664016,-0.23992807,9.803218,-0.00056966394,-0.0007838905,-0.00026512146,-4.5776367e-05,0.0,-4.5776367e-05
2019-07-01T19:23:21.999Z,-0.0075480747,-0.010849873,0.5423534,0.09786987,-0.23857117,9.8029175,25.177002,12.463379,-37.509155,0.09847197,-0.23977649,9.803224,-0.00013091415,0.0007367879,-0.0004892349,1.5258789e-05,0.00012207031,0.00024414062
2019-07-01T19:23:22.195Z,-0.007532792,-0.010856653,0.54235023,0.09906006,-0.24023438,9.8033905,26.10321,13.400269,-37.431335,0.09874716,-0.23959646,9.8032255,0.0005559921,-0.00016234815,-0.00016784668,7.6293945e-05,0.0,-6.1035156e-05
2019-07-01T19:23:22.401Z,-0.007572102,-0.010875244,0.54239327,0.09906006,-0.24119568,9.800766,26.571655,13.142395,-38.02948,0.09862288,-0.24044687,9.803206,0.00021404773,-0.0017241389,-0.0013952255,1.5258789e-05,6.1035156e-05,0.00024414062
2019-07-01T19:23:22.607Z,-0.0075715138,-0.010913422,0.54242986,0.100494385,-0.24143982,9.802429,25.489807,13.935852,-36.541748,0.09924755,-0.24084757,9.80319,0.00078175217,-0.00061152875,-0.0004491806,-4.5776367e-05,-0.00018310547,0.00012207031
2019-07-01T19:23:22.799Z,-0.0076085734,-0.0108946115,0.5424353,0.09811401,-0.2416687,9.803635,25.778198,13.456726,-38.160706,0.09854178,-0.2412586,9.803186,-0.0011564121,-0.00019045174,0.0008239746,-0.0025482178,0.008926392,0.00024414062
2019-07-01T19:23:23.009Z,-0.03429706,-0.005258667,0.5425647,-0.15242004,-0.62524414,9.897919,26.895142,14.680481,-35.995483,-0.27840668,-0.6205371,9.783036,-0.03160715,-0.20736074,0.21772957,-0.37431335,0.09786987,0.08961487
2019-07-01T19:23:23.208Z,0.062869154,-0.06702009,0.5665514,-1.6338196,-2.2626495,13.628571,18.936157,7.145691,-44.377136,1.7750125,0.2650225,9.64103,-3.3495255,-2.4387646,3.6628513,0.996109,-1.7032166,0.05278015
2019-07-01T19:23:23.414Z,0.11925917,-0.11075113,0.47033858,2.6275635,-0.193573,7.935562,6.9885254,2.9403687,-46.328735,2.9842029,1.0071177,9.287123,-0.01306963,-1.0481511,-1.3919773,0.52030945,-0.7106781,-1.6531982
2019-07-01T19:23:23.620Z,0.22229217,-0.05354342,0.37491328,3.447342,2.0762482,4.8875732,8.030701,-3.1341553,-43.75763,2.5780663,3.5232885,8.781254,0.6268921,-0.92052937,-4.5721884,-0.24365234,1.1155701,-0.7922363
2019-07-01T19:23:23.820Z,0.123647965,-0.012237889,0.39860547,0.5623169,4.302292,9.980942,12.14447,2.4551392,-42.712402,1.1847789,2.1079726,9.503848,-0.3985952,2.0658386,1.3788214,-0.18011475,0.054626465,0.17202759
2019-07-01T19:23:24.023Z,0.14773726,0.042712845,0.36709228,1.5443268,3.3052063,10.595657,14.833069,-0.8087158,-40.99579,0.29516342,2.9657524,9.342782,0.8487092,0.20623636,1.2485533,0.9802246,0.7329254,-0.457901
2019-07-01T19:23:24.231Z,0.25993365,0.11500334,0.36834997,-0.9875183,3.4686432,8.807022,17.207336,-13.439941,-36.642456,-0.118680626,5.343587,8.222067,-0.76704997,-1.6209455,0.32720566,1.3918915,-0.15820312,0.26481628
2019-07-01T19:23:24.421Z,0.3459116,0.1051665,0.3934872,-0.40821838,6.631714,5.4381714,13.336182,-19.244385,-36.079407,0.9261291,6.546224,7.242901,-1.1115944,0.29330826,-1.8912172,0.087265015,0.05596924,0.690155
2019-07-01T19:23:24.635Z,0.3193837,0.10441419,0.47736245,1.5981598,5.6819916,7.1937866,13.853455,-20.22705,-36.450195,1.3275392,6.0636086,7.5921464,-0.08008587,0.05401182,-0.66156244,-0.32165527,0.3394165,0.74201965
2019-07-01T19:23:24.829Z,0.25581375,0.101552494,0.53543913,-0.17730713,5.070877,9.263809,16.52069,-18.00232,-37.164307,1.096114,5.0726724,8.320872,0.5470201,0.6227112,-0.7421398,-0.5785217,0.8211365,0.38008118
2019-07-01T19:23:25.048Z,0.19208162,0.17727098,0.60419005,-0.11151123,4.512146,8.922836,22.138977,-19.047546,-33.076477,-0.34101826,4.936569,8.466662,0.053289443,0.065039635,0.7121277,0.042236328,1.0661621,0.4258423
2019-07-01T19:23:25.241Z,0.14311557,0.1807033,0.63974005,-0.653244,4.4898987,8.215515,24.667358,-18.370056,-32.513428,-0.8029039,4.325456,8.7644825,0.15613472,0.067368984,-0.38866138,-0.117996216,0.08546448,0.13175964
2019-07-01T19:23:25.437Z,0.13767482,0.13220565,0.62701577,-0.31848145,4.2427216,8.513901,23.147583,-16.360474,-32.344055,-0.26527846,3.6652431,9.092085,0.031916678,0.58933425,-0.48271465,-0.32733154,-0.18177795,-0.13957214
2019-07-01T19:23:25.676Z,0.15255381,0.08840444,0.6049013,0.4096527,3.7662964,9.04248,21.853638,-12.571716,-33.86078,0.4634792,3.372297,9.196911,0.10557127,0.428169,-0.21228886,-0.4054718,-0.29039,-0.18545532
2019-07-01T19:23:25.853Z,0.15223573,0.06977648,0.56244606,1.0518799,3.336319,9.289658,20.565796,-10.379028,-35.92987,0.5712676,3.1873653,9.256606,0.4206959,0.019813776,0.40287495,-0.055023193,-0.5541687,-0.4179535
2019-07-01T19:23:26.050Z,0.12568326,0.06477451,0.5132435,0.119888306,2.0956268,9.0637665,20.266724,-5.7159424,-38.51776,0.18972859,2.7387614,9.41454,-0.29660162,-0.5523057,-0.28366852,-0.06643677,-0.2619934,-0.556427
2019-07-01T19:23:26.257Z,0.109326355,0.034089062,0.50125223,-1.0344238,2.9438934,10.52005,21.176147,0.24719238,-38.171387,0.5013598,2.174239,9.549436,-1.289599,0.6459837,0.8645191,-0.5240326,0.21368408,-0.6318207
2019-07-01T19:23:26.456Z,0.10211159,0.017304046,0.5020325,0.7247925,1.9054108,9.692123,19.560242,2.116394,-39.157104,0.71403503,1.8899921,9.596274,-0.018662214,0.057906747,0.22786045,-0.19044495,-0.32777405,0.14129639
2019-07-01T19:23:26.661Z,0.09865278,0.015369413,0.50404537,0.6118469,1.9046936,9.620346,17.480469,2.494812,-39.974976,0.71667504,1.8118725,9.611133,-0.08737606,0.074215055,0.065330505,-0.04475403,-0.075805664,-0.03175354
2019-07-01T19:23:26.868Z,0.0976742,0.012346084,0.50313985,0.59939575,1.8640137,9.601685,18.42804,3.8665771,-39.585876,0.75596905,1.766625,9.616545,-0.15275937,0.09471643,0.03722,-0.0234375,0.0008087158,0.00030517578
2019-07-01T19:23:27.068Z,0.10081447,0.006992871,0.50303197,0.79585266,1.7800293,9.655273,17.848206,3.4606934,-39.268494,0.87692326,1.7661906,9.60635,-0.06831235,0.040342808,0.07739067,-0.020080566,-0.04788208,-0.001953125
2019-07-01T19:23:27.273Z,0.10817639,-0.00018685678,0.5009011,0.95832825,1.8699951,9.491135,16.845703,2.897644,-40.927124,1.065907,1.820102,9.577132,-0.09171951,0.05654621,-0.05672741,0.018478394,-0.0925293,-0.0075683594
2019-07-01T19:23:27.465Z,0.11235839,-0.0056252065,0.5007515,1.0841827,1.8338623,9.580139,16.470337,3.37677,-40.208435,1.1982052,1.8360928,9.558423,-0.07532382,0.010498881,0.029024124,0.0031280518,-0.09063721,-0.028213501
2019-07-01T19:23:27.675Z,0.11450687,-0.00908122,0.49871778,1.2957153,1.9252625,9.5069275,15.731812,3.1143188,-40.60974,1.2730693,1.8406321,9.547867,0.02746582,0.093066454,0.0029067993,-0.0071868896,-0.06266785,-0.029067993
2019-07-01T19:23:27.876Z,0.11766935,-0.011227777,0.49526107,1.3409424,1.8757324,9.574158,16.062927,3.201294,-39.77356,1.3325356,1.8772522,9.532611,0.026970029,-0.010994315,0.08100605,0.041015625,-0.038711548,-0.059249878
2019-07-01T19:23:28.085Z,0.12850587,-0.015802272,0.48962128,1.3179626,1.9329224,9.583969,15.374756,4.10614,-40.24353,1.5013002,2.0215323,9.477862,-0.19153428,-0.054513454,0.104289055,0.06349182,-0.15270996,-0.101882935
2019-07-01T19:23:28.282Z,0.1360153,-0.025048915,0.48448172,1.2736969,2.2042694,9.375793,14.834595,3.062439,-41.79077,1.716834,2.066344,9.431495,-0.403643,0.1368041,-0.009109497,-0.0052948,-0.14073181,0.024993896
2019-07-01T19:23:28.479Z,0.14367813,-0.020521581,0.49172395,1.9130554,1.9559021,9.546402,14.306641,3.8269043,-41.615295,1.7312503,2.2215362,9.393505,0.20257723,-0.25290275,0.1697874,0.23576355,0.22315979,-0.009765625
2019-07-01T19:23:28.693Z,0.14000094,0.05318167,0.52000254,1.0092926,3.1408234,10.1692505,16.178894,0.59661865,-41.293335,0.55071414,2.8515005,9.366753,0.4037078,0.45366025,1.0529509,0.503067,0.83421326,0.4791565
2019-07-01T19:23:28.893Z,0.16697429,0.11837106,0.548689,0.7444153,3.2944336,9.989319,20.866394,-6.9244385,-37.27722,-0.08498173,3.928461,8.985007,0.7202086,-0.7142377,0.49425983,0.5496826,0.686203,0.11550903
2019-07-01T19:23:29.089Z,0.15517671,0.20381941,0.5703958,-1.5184937,3.357132,7.6007996,26.879883,-11.500549,-34.829712,-1.3836952,4.655371,8.519583,-0.30384827,-1.1754832,-0.916893,0.039245605,0.10923767,0.31080627
2019-07-01T19:23:29.288Z,0.17726767,0.15123306,0.58086985,-0.1986084,4.5841675,8.684036,23.342896,-13.264465,-35.121155,-0.29384968,4.4346375,8.741741,0.33445394,0.13579226,0.0038452148,0.13264465,-0.15545654,-0.039215088
2019-07-01T19:23:29.489Z,0.17575309,0.20563006,0.58418936,-0.7051697,4.95697,8.055206,23.382568,-14.440918,-33.473206,-1.0724078,4.993847,8.371489,0.08268058,0.18440056,-0.19090176,0.33569336,0.3363495,0.13298035
2019-07-01T19:23:29.691Z,0.19307889,0.18173407,0.58950144,-0.7848511,5.2017517,7.7812195,22.451782,-14.3081665,-30.085754,-0.48727816,4.990668,8.427703,-0.17573145,0.08967352,-0.61229706,-0.15837097,-0.33981323,0.14508057
2019-07-01T19:23:29.896Z,0.19043456,0.16514766,0.5973441,-0.4051056,4.9821014,8.421783,20.716858,-15.06958,-31.529236,-0.23494408,4.7785006,8.560439,-0.14664122,0.22762442,-0.12144756,-0.18989563,-0.067733765,0.07672119
2019-07-01T19:23:30.097Z,0.18120317,0.15711802,0.60192716,-0.15577698,4.721512,8.564636,20.80841,-14.466858,-33.374023,-0.20796412,4.5619206,8.67848,0.073477045,0.16849184,-0.06536484,-0.1219635,0.0569458,0.00831604
2019-07-01T19:23:30.307Z,0.17596696,0.15340763,0.6099875,-0.2400055,4.5396576,8.866364,20.527649,-13.7664795,-32.011414,-0.17317007,4.4488163,8.73776,-0.07179342,0.09547758,0.13701248,0.027999878,0.04295349,0.037384033
2019-07-01T19:23:30.503Z,0.16852044,0.18906021,0.6177178,-0.3144226,4.6013947,8.433746,22.294617,-15.690613,-32.173157,-0.71897376,4.7513123,8.548596,0.2880237,-0.08822012,-0.042241096,0.060684204,0.15046692,0.046432495
2019-07-01T19:23:30.707Z,0.1799968,0.16754833,0.6148424,-0.6518097,4.81723,8.80368,20.88623,-14.686584,-32.440186,-0.2918371,4.6658683,8.620608,-0.20655462,0.1223526,0.17185783,0.071243286,-0.2038269,-0.07598877
2019-07-01T19:23:30.909Z,0.19669926,0.1626853,0.6071129,0.04953003,4.8550415,8.100662,21.665955,-15.1397705,-33.16803,-0.058881078,4.8402605,8.528704,-0.21890004,-0.003984928,-0.07887459,0.07437134,-0.09767151,-0.028579712
2019-07-01T19:23:31.113Z,0.18859874,0.16173214,0.6044524,-0.17251587,4.5884857,8.872833,20.80841,-14.387512,-33.88672,-0.16509473,4.7172217,8.595984,0.16520578,0.15804005,-0.42520332,-0.21377563,1.5258789e-05,-0.07385254
2019-07-01T19:23:31.316Z,0.1796168,0.14707227,0.5997143,-0.08757019,4.479843,8.646469,22.407532,-14.1922,-36.17859,-0.09628689,4.427741,8.749641,-0.07922469,0.15460587,0.22444534,-0.052200317,-0.102249146,-0.087646484
2019-07-01T19:23:31.517Z,0.1761463,0.1443046,0.58934796,-0.17468262,4.4243317,8.809418,19.146729,-11.720276,-35.16388,-0.15774079,4.3459325,8.789674,-0.022988573,0.08408356,0.066856384,-0.035217285,-0.008483887,-0.07897949
2019-07-01T19:23:31.721Z,0.17355385,0.14972591,0.5889788,-0.22923279,4.402313,8.673752,20.01648,-12.1032715,-34.672546,-0.27090377,4.3675475,8.776192,0.033708185,0.06341791,-0.08375263,-0.004257202,0.01802063,-0.04373169
2019-07-01T19:23:31.925Z,0.16857958,0.16198663,0.5870239,-0.32757568,4.3451233,8.852249,20.518494,-11.553955,-35.487366,-0.5215539,4.427745,8.7346115,0.17894799,-0.06372309,0.17585373,-0.012069702,0.055603027,-0.040802002
2019-07-01T19:23:32.124Z,0.17226206,0.17162283,0.5851211,-0.9401398,4.7057343,8.579224,22.410583,-12.451172,-35.217285,-0.62720484,4.58338,8.646942,-0.35386145,0.15723467,-0.09548569,0.14497375,0.19273376,-0.059127808
2019-07-01T19:23:32.330Z,0.17723663,0.14418131,0.58725274,-0.5328827,4.5150146,8.680923,22.499084,-12.602234,-33.592224,-0.15440233,4.359898,8.782815,-0.2605002,0.10987091,-0.058674812,-0.05807495,-0.10853577,0.013870239
2019-07-01T19:23:32.549Z,0.18138148,0.15436292,0.59188133,0.016036987,4.4324646,8.703171,21.852112,-12.187195,-36.27472,-0.22571133,4.5313406,8.694043,0.20130073,-0.04978752,-0.0025129318,-0.055755615,-0.222229,0.06321716
2019-07-01T19:23:32.742Z,0.17913318,0.17397802,0.5976638,-0.3957672,4.6200714,8.5699005,21.536255,-14.03656,-35.43091,-0.49987718,4.7161355,8.583623,0.061407924,-0.06102419,0.07146931,0.123046875,0.19041443,0.03665161
2019-07-01T19:23:32.947Z,0.18037812,0.19972892,0.6011486,-0.6104126,4.853836,8.552673,23.37799,-14.282227,-35.177612,-0.8208851,5.0169578,8.3861,0.18029875,-0.115552425,0.11374569,0.12384033,0.16348267,0.027923584
2019-07-01T19:23:33.140Z,0.18724102,0.21430536,0.59925866,-1.0272369,5.2091675,8.306442,23.449707,-16.700745,-33.0307,-0.9444149,5.2667704,8.218247,-0.089987636,-0.023133755,0.043032646,0.1804657,0.18351746,0.0050811768
2019-07-01T19:23:33.342Z,0.18903351,0.18637611,0.58497757,-0.42304993,4.942856,8.233459,24.049377,-16.009521,-32.235718,-0.6326021,4.9797482,8.424506,0.12178141,0.028270245,-0.045147896,0.028182983,-0.12057495,0.0004272461
2019-07-01T19:23:33.546Z,0.20139709,0.16880022,0.57312995,-0.47904968,4.9959717,8.362442,20.960999,-14.4470215,-34.584045,-0.3058498,4.9634686,8.452268,-0.025873333,-0.012443066,-0.08804226,-0.18348694,-0.35447693,-0.20713806
2019-07-01T19:23:33.753Z,0.18652186,0.19523852,0.5577644,-0.636734,5.03067,8.146851,21.51184,-14.8498535,-34.15985,-0.96493113,5.007057,8.376674,0.15865171,0.06743431,-0.18194199,0.104904175,0.06561279,-0.17250061
2019-07-01T19:23:33.970Z,0.18217623,0.19317198,0.5560226,-1.2021484,5.029236,8.588318,22.657776,-14.186096,-35.054016,-0.99735206,4.92083,8.423842,-0.08129883,0.08217621,0.16675854,-0.019332886,0.13323975,-0.1710968
2019-07-01T19:23:34.154Z,0.1786402,0.24198598,0.55487716,-1.3126984,5.210129,7.997528,24.215698,-13.801575,-33.454895,-1.7372367,5.35121,8.032244,0.11433995,-0.013192177,0.19098282,0.2058258,0.24868774,0.034698486
2019-07-01T19:23:34.357Z,0.19235484,0.19481166,0.55993515,-1.6587067,5.3276215,8.341858,24.838257,-14.801025,-30.662537,-0.8754604,5.0897098,8.336595,-0.5368947,0.17614508,-0.26569176,-0.2351532,-0.49131775,0.13970947
2019-07-01T19:23:34.559Z,0.20067449,0.17111742,0.56959724,-0.5572815,5.038086,8.158813,21.937561,-12.719727,-32.762146,-0.3707949,4.9756207,8.442517,-0.09111947,0.037530422,-0.16420078,-0.0811615,-0.052459717,0.1641388
2019-07-01T19:23:34.765Z,0.19420224,0.16360965,0.57857096,-0.13017273,4.7980957,8.519653,21.484375,-12.098694,-32.165527,-0.28347737,4.8088884,8.541933,0.13085234,0.013212204,0.049528122,-0.034423828,0.029266357,0.00843811
2019-07-01T19:23:34.964Z,0.19540288,0.16679734,0.5745244,-0.24502563,4.8794403,8.363159,20.022583,-12.109375,-33.843994,-0.3404499,4.857841,8.512101,0.101409316,0.05958748,-0.07979965,0.06904602,-0.025100708,0.108428955
2019-07-01T19:23:35.167Z,0.19111422,0.17103358,0.6214534,-0.6795654,4.8155518,8.466766,20.013428,-12.4053955,-33.37555,-0.1538591,4.859547,8.516543,-0.51550215,-0.022681713,-0.040554047,-0.2182312,0.22285461,0.6911926
2019-07-01T19:23:35.371Z,0.17867807,0.14585477,0.6364394,0.31370544,4.7435303,8.725433,19.73877,-15.200806,-32.348633,0.12481383,4.400063,8.763233,0.23258652,0.25913334,-0.014931679,-0.13925171,-0.13076782,-0.17579651
2019-07-01T19:23:35.578Z,0.17952237,0.1515882,0.62183213,0.11772156,4.470276,8.608902,19.32373,-13.392639,-34.00116,-0.0316683,4.479259,8.723853,0.12223363,0.09307718,-0.17012596,-0.106933594,-0.044525146,-0.090042114
2019-07-01T19:23:35.779Z,0.15896209,0.09064112,0.612445,0.6020355,4.244156,8.701019,20.59784,-13.523865,-34.60846,0.5422813,3.4864857,9.149903,0.18946713,0.5462568,-0.09946346,-0.16246033,-0.26553345,-0.14642334
2019-07-01T19:23:35.977Z,0.19589858,0.1278846,0.6141772,0.06149292,3.7407074,9.354736,19.04602,-10.038757,-36.78131,0.46935633,4.4363623,8.7332,-0.4856195,-0.5162549,0.30228233,0.3618927,0.113082886,0.13468933
2019-07-01T19:23:36.183Z,0.188739,0.17962186,0.60451984,0.6673584,4.3829346,8.543091,18.09845,-13.30719,-36.72638,-0.41419894,4.916326,8.475173,1.0200753,-0.44183493,0.22936726,0.5498657,0.70617676,-0.47103882
2019-07-01T19:23:36.383Z,0.18882382,0.2697528,0.58144265,-1.1885071,5.5056458,8.042038,22.38617,-15.161133,-33.73108,-1.7828485,5.8315554,7.680156,0.41405833,-0.25299358,0.23125887,0.5020294,0.5031128,-0.15986633
2019-07-01T19:23:36.583Z,0.18169054,0.3323844,0.57381165,-2.4543152,6.24144,6.826004,28.231812,-18.379211,-29.341125,-2.6888773,6.3283305,6.992321,0.029149055,-0.003988743,0.082538605,0.15664673,0.26713562,0.022659302
2019-07-01T19:23:36.792Z,0.18925983,0.20063926,0.5913349,-2.9728394,6.4996185,6.748474,23.24524,-14.242554,-31.767273,-0.7870179,5.139949,8.314561,-1.9771323,1.2538171,-1.6432085,-1.1166382,-1.0524597,0.51802063
2019-07-01T19:23:36.992Z,0.16036865,0.16839561,0.6358062,0.39672852,4.0462646,8.842911,20.144653,-13.201904,-32.862854,-0.43097112,4.4148765,8.7460575,0.9508252,-0.42329454,0.32052708,-0.28475952,-0.115249634,0.3277893
2019-07-01T19:23:37.196Z,0.1679198,0.13012025,0.66816336,-0.08039856,4.495636,8.932404,19.683838,-12.492371,-34.284973,0.38082358,4.053589,8.921535,-0.27348343,0.32605743,-0.06807804,-0.47834778,-0.106155396,0.17276001
2019-07-01T19:23:37.399Z,0.14300954,0.11284387,0.64372957,0.1660614,3.6677246,9.444473,21.220398,-10.119629,-35.829163,0.16058977,3.5094743,9.155774,0.21587542,-0.07007408,-0.062021255,0.0027770996,0.072769165,-0.2626648
2019-07-01T19:23:37.601Z,0.15633371,0.13661554,0.63699204,-0.10647583,4.064209,8.710358,20.974731,-12.411499,-33.943176,-0.03605227,3.9831274,8.961237,0.19765142,-0.23248291,0.52186394,0.35884094,0.12591553,-0.007080078
2019-07-01T19:23:37.806Z,0.1687167,0.14877915,0.63659286,0.13111877,4.250366,8.979065,19.903564,-12.988281,-34.092712,-0.045998193,4.2986093,8.814206,-0.099498756,-0.1475296,-0.13279247,0.036621094,-0.08648682,-0.04849243
2019-07-01T19:23:38.006Z,0.1762278,0.13990921,0.62899953,0.29000854,4.2628174,8.638809,18.504333,-11.994934,-33.454895,0.13212764,4.298042,8.813613,0.11808029,0.008173466,-0.08409405,0.09794617,-0.08831787,-0.0048217773
2019-07-01T19:23:38.210Z,0.17873904,0.14450619,0.62575096,0.18424988,4.3869934,8.787399,19.689941,-12.498474,-33.381653,0.0810556,4.3866153,8.770485,0.0691112,0.021202564,0.036028862,0.016998291,0.02029419,-0.039764404
2019-07-01T19:23:38.415Z,0.18497309,0.14489277,0.62227345,0.13041687,4.3676147,8.820435,19.589233,-12.716675,-34.553528,0.13556418,4.4773846,8.723821,0.039941713,-0.06740284,0.075035095,0.027694702,-0.0012664795,-0.031814575
2019-07-01T19:23:38.619Z,0.18056284,0.15391743,0.6252557,0.026565552,4.536072,8.560318,20.63446,-14.541626,-34.817505,-0.030135956,4.520523,8.702549,0.014205202,0.03600645,-0.058857918,0.052612305,0.017913818,-0.021194458
2019-07-01T19:23:38.820Z,0.18599781,0.15196417,0.6230707,0.021530151,4.5516205,8.728058,21.073914,-13.789368,-33.924866,0.054356568,4.5725784,8.675193,0.003067188,-8.392334e-05,0.057878494,0.039489746,0.012832642,-0.012145996
2019-07-01T19:23:39.022Z,0.18257001,0.15046154,0.62623227,0.06867981,4.5238647,8.677567,20.941162,-14.959717,-34.387207,0.05015462,4.5081267,8.708884,0.009581104,0.024686813,0.01605606,-0.04133606,0.0038604736,-0.013061523
2019-07-01T19:23:39.224Z,0.1857096,0.14919683,0.6234195,0.09188843,4.5341644,8.582825,19.439697,-14.178467,-35.072327,0.09151324,4.5368094,8.693639,0.0023026094,0.02395153,-0.065421104,0.019577026,-0.04208374,0.0029449463
2019-07-01T19:23:39.429Z,0.18511887,0.14687708,0.6256476,0.18711853,4.4640503,8.7512665,20.722961,-14.389038,-34.713745,0.12989682,4.501656,8.711407,0.050084963,-0.031521797,0.08728886,-0.02746582,-0.013366699,0.005996704
2019-07-01T19:23:39.631Z,0.18851848,0.15361676,0.62204796,0.06628418,4.6088104,8.654602,20.698547,-14.976501,-34.454346,0.05760695,4.626057,8.646772,0.009072099,0.008498669,-0.015017509,0.051940918,0.0019683838,-0.027786255
2019-07-01T19:23:39.833Z,0.18715805,0.15616709,0.62236655,0.003112793,4.623169,8.585205,20.635986,-14.466858,-34.951782,0.0063408753,4.6366234,8.641301,-0.009188915,0.0044870377,-0.016514778,0.033737183,0.02468872,-0.050811768
2019-07-01T19:23:40.040Z,0.18717939,0.15978229,0.6260762,0.055511475,4.6461487,8.684036,20.385742,-14.550781,-35.639954,-0.020308534,4.678384,8.618741,0.069102615,-0.024078846,0.06536198,-0.011154175,0.0018463135,0.005935669
2019-07-01T19:23:40.238Z,0.18962732,0.16700613,0.62308526,-0.1710968,4.745682,8.543808,21.206665,-14.3585205,-34.34906,-0.10720839,4.793955,8.55435,-0.07739064,-0.03567362,0.007419586,0.07614136,0.07807922,-0.0021362305
2019-07-01T19:23:40.440Z,0.1915918,0.15839703,0.6211681,-0.074417114,4.7899475,8.510315,21.742249,-14.901733,-35.162354,0.025287645,4.7225513,8.594606,-0.06641,0.05660057,-0.079873085,0.042541504,-0.012634277,-0.00048828125
2019-07-01T19:23:40.645Z,0.19075161,0.16043417,0.6222724,0.039489746,4.7392273,8.637848,21.336365,-15.232849,-33.702087,-0.0069074966,4.7343116,8.588167,0.029655626,0.016420841,0.058739662,0.0617218,0.045394897,0.003189087
2019-07-01T19:23:40.847Z,0.19369209,0.17396694,0.6235301,-0.1366272,4.828964,8.435181,21.551514,-15.420532,-35.6369,-0.14654043,4.9280157,8.477239,-0.010727018,-0.08763313,-0.086260796,0.09440613,0.0896759,-0.0014648438
2019-07-01T19:23:41.048Z,0.19675474,0.18062061,0.62477255,-0.36706543,5.0849915,8.448822,22.099304,-16.278076,-33.190918,-0.18819539,5.0446734,8.407512,-0.17163523,0.03918791,0.05386734,0.04309082,-0.022598267,0.07991028
2019-07-01T19:23:41.253Z,0.20134486,0.16567332,0.6250827,-0.0066986084,4.952423,8.346649,20.887756,-16.357422,-33.23517,0.077824965,4.9365306,8.473193,-0.04654675,-0.0010495186,-0.15808296,-0.07572937,-0.121795654,-0.00061035156
2019-07-01T19:23:41.455Z,0.20290266,0.1658183,0.6269319,0.11653137,4.9584045,8.477768,20.352173,-17.332458,-34.46808,0.108815,4.958695,8.459899,-0.0055367723,0.0056562424,-0.010727882,0.013824463,0.00012207031,-0.001953125
2019-07-01T19:23:41.659Z,0.19936769,0.16392785,0.62794507,0.06724548,4.947647,8.368652,20.80841,-16.134644,-34.46808,0.094818585,4.8899007,8.500015,-0.041963227,0.041270256,-0.1191206,-0.0844574,0.0038604736,-0.013916016
2019-07-01T19:23:41.862Z,0.19137028,0.15665081,0.6267906,0.013885498,4.83374,8.530411,19.647217,-15.274048,-33.26416,0.08237547,4.6991606,8.6070595,-0.09437073,0.1449399,-0.065428734,-0.16471863,-0.06932068,-0.02015686
2019-07-01T19:23:42.063Z,0.18357866,0.14444117,0.62617886,0.16247559,4.53273,8.677811,20.861816,-13.145447,-33.937073,0.1472625,4.452294,8.736463,0.052729815,0.021004677,-0.0221529,-0.051712036,-0.011108398,-0.06681824
2019-07-01T19:23:42.266Z,0.1846598,0.14844121,0.62290454,0.18328857,4.4552,8.781662,20.323181,-14.193726,-35.18524,0.08539572,4.5137887,8.705676,0.108873315,-0.043284416,0.039011955,0.052124023,0.035125732,-0.06266785
2019-07-01T19:23:42.469Z,0.1856855,0.15708293,0.6217001,-0.06581116,4.6085815,8.64743,20.802307,-14.4592285,-34.27887,-0.029680906,4.6269374,8.646442,-0.06771007,-0.016159058,-0.039740562,0.041503906,0.04862976,0.00074768066
2019-07-01T19:23:42.725Z,0.18419906,0.15732107,0.6228711,-0.058151245,4.6088257,8.589279,20.295715,-13.031006,-34.873962,-0.045016415,4.609363,8.655757,0.0060173795,0.0035171509,-0.03224659,0.008514404,-0.0028686523,0.013687134
2019-07-01T19:23:42.877Z,0.18823345,0.15821484,0.62099606,-0.05192566,4.6451874,8.594788,20.539856,-14.91394,-34.35974,-0.016834311,4.6746836,8.620756,-0.02049087,-0.036550045,-0.01911354,0.027145386,-0.023376465,0.017288208
2019-07-01T19:23:43.076Z,0.19162409,0.15471423,0.62131804,-0.014831543,4.667206,8.571335,20.501709,-13.970947,-34.16748,0.07797995,4.6810207,8.61698,-0.108579725,-0.0044488907,-0.035982132,0.0028381348,-0.042022705,-0.003967285
2019-07-01T19:23:43.279Z,0.19109201,0.15379551,0.6182735,0.046417236,4.71698,8.677338,19.792175,-13.575745,-34.661865,0.06486564,4.663594,8.6265335,-0.022431128,0.039518833,0.03837681,0.009185791,-0.03816223,-0.004760742
2019-07-01T19:23:43.482Z,0.19429536,0.1520846,0.6157294,0.09715271,4.660736,8.528259,20.100403,-13.769531,-35.2417,0.11422784,4.688361,8.612584,0.019434892,-0.009803295,-0.07648277,-0.010116577,0.041244507,-0.0029907227
2019-07-01T19:23:43.682Z,0.18988489,0.1534572,0.6151498,0.04522705,4.680847,8.644318,19.56482,-13.528442,-33.283997,0.034664605,4.6434026,8.637591,-0.02167346,0.008357525,-0.01847744,-0.02923584,0.00062561035,-0.012634277
2019-07-01T19:23:43.883Z,0.19776264,0.1517555,0.6120098,0.115097046,4.7243958,8.597885,20.716858,-14.535522,-34.666443,0.13993555,4.7327642,8.587884,-0.05804868,-0.013241291,0.04299259,0.08987427,0.009902954,-0.01637268
2019-07-01T19:23:44.090Z,0.1926186,0.16465712,0.6214984,-0.16989136,4.959366,8.426086,19.438171,-14.634705,-32.899475,-0.04605598,4.8076577,8.547204,0.032658983,-0.07109308,0.04920578,0.08744812,0.104644775,0.069885254
2019-07-01T19:23:44.290Z,0.1964641,0.17119731,0.623782,-0.08470154,4.9177246,8.492844,20.288086,-15.377808,-33.23517,-0.070623465,4.93392,8.474776,-0.014101185,0.011984825,-0.078692436,0.011199951,-0.0015716553,0.017166138
2019-07-01T19:23:44.497Z,0.19768408,0.16401117,0.62050223,0.17515564,4.9203644,8.4062195,19.813538,-15.113831,-33.540344,0.022364918,4.8688483,8.512591,0.11619848,0.050646305,3.0517578e-05,-0.0013885498,-0.12661743,-0.0013427734
2019-07-01T19:23:44.698Z,0.20196947,0.161933,0.62040925,0.027999878,4.881836,8.445709,19.715881,-15.560913,-33.250427,0.10632313,4.903078,8.492285,-0.01411064,0.008034229,-0.06625557,-0.00016784668,0.0009918213,0.012832642
2019-07-01T19:23:44.900Z,0.19679509,0.15872383,0.6206707,0.22755432,4.88591,8.333481,19.865417,-13.943481,-33.529663,0.08515425,4.7969155,8.5529375,0.10737499,0.08622646,-0.22531796,-0.0062713623,-0.032608032,-0.013305664
2019-07-01T19:23:45.104Z,0.17483562,0.16322012,0.6318069,-0.24549866,4.68898,8.6445465,20.404053,-14.414978,-34.025574,-0.19377744,4.5508733,8.684607,-0.06518069,0.06932211,0.007930756,-0.18452454,0.1566925,0.017288208
2019-07-01T19:23:45.307Z,0.17554995,0.15311435,0.63215965,-0.08924866,4.5434875,8.666092,21.48285,-13.839722,-32.97119,-0.04265912,4.442866,8.742397,0.016547918,0.10439968,0.0947876,-0.10369873,0.07203674,0.07984924
2019-07-01T19:23:45.509Z,0.17163678,0.14961606,0.6294607,0.1593628,4.446579,8.614639,20.593262,-13.517761,-35.28595,-0.061088745,4.34808,8.789815,0.16558,0.109259605,-0.15017891,-0.008590698,-0.09761047,-0.014602661
2019-07-01T19:23:45.713Z,0.17736694,0.1593915,0.62847227,-0.14811707,4.384613,8.982422,20.66803,-13.812256,-34.44214,-0.12826255,4.5403123,8.691345,-0.041265413,-0.1200037,0.14823723,-0.037979126,0.07234192,-0.017837524
2019-07-01T19:23:45.916Z,0.18141063,0.16281961,0.63043886,-0.2467041,4.619339,8.534485,20.66803,-13.963318,-33.795166,-0.110326506,4.635452,8.641228,-0.116186105,-0.030443192,-0.08890247,0.111312866,-0.0048217773,0.016616821
2019-07-01T19:23:46.119Z,0.18866886,0.14976083,0.62160563,-0.0033569336,4.636566,8.511993,21.000671,-13.800049,-33.021545,0.11081156,4.58404,8.668603,-0.048450805,0.04417181,-0.02566719,0.036010742,-0.039215088,0.043380737
2019-07-01T19:23:46.323Z,0.17193076,0.15695141,0.62279034,0.0143585205,4.5257874,8.9522705,20.41626,-14.045715,-34.632874,-0.19924094,4.435979,8.743729,0.112489805,0.108428955,0.098545074,-0.05783081,-0.071884155,-0.124801636
2019-07-01T19:23:46.548Z,0.17216675,0.15556064,0.6226485,-0.16175842,4.41333,8.551239,22.218323,-13.269043,-34.848022,-0.17754458,4.4232125,8.75066,0.026562512,-0.00079345703,-0.14881039,-0.028198242,0.109176636,-0.0015869141
2019-07-01T19:23:46.728Z,0.17483304,0.15825702,0.62238014,-0.18017578,4.462143,8.703659,20.864868,-14.89563,-34.066772,-0.1824381,4.4910893,8.715918,-0.011428714,-0.019805908,-0.04369259,-0.024902344,-0.0076293945,-0.012817383
2019-07-01T19:23:46.930Z,0.18036398,0.15457726,0.62522364,-0.062454224,4.5238647,8.752472,20.718384,-14.537048,-34.516907,-0.04212298,4.525399,8.699964,0.015752327,0.00041389465,0.09258556,-0.018127441,-0.08428955,0.03866577
2019-07-01T19:23:47.133Z,0.1836283,0.14978729,0.62561524,-0.062210083,4.520996,8.426086,20.503235,-14.048767,-33.576965,0.069593996,4.5148754,8.705254,-0.047145784,0.0036053658,-0.361948,-0.056045532,0.10153198,0.00012207031
2019-07-01T19:23:47.336Z,0.16487806,0.1574739,0.6274287,-0.23402405,4.3441772,9.093445,20.127869,-13.3377075,-34.324646,-0.27061492,4.3455844,8.787096,-0.045209795,0.029124737,0.23406029,-0.06851196,0.11216736,0.011001587
2019-07-01T19:23:47.539Z,0.16535708,0.15008539,0.62385386,-0.26200867,4.183609,8.931686,21.444702,-12.287903,-36.203003,-0.18140276,4.265438,8.828562,-0.10273589,-0.0971508,0.2664814,0.0819397,-0.111831665,0.0048217773
2019-07-01T19:23:47.742Z,0.17071109,0.1585305,0.6263073,-0.09881592,4.3771973,8.473938,21.510315,-12.953186,-34.454346,-0.21616837,4.438288,8.742154,0.11966781,-0.03131342,-0.3874874,-0.052383423,0.027496338,0.01222229
2019-07-01T19:23:47.946Z,0.17184661,0.14668271,0.6284767,-0.15434265,4.2800446,8.931442,21.914673,-13.078308,-33.5907,-0.02300871,4.3167043,8.805449,-0.084699616,-0.05168104,0.31246185,0.060073853,-0.13534546,-0.0026245117
2019-07-01T19:23:48.147Z,0.18981434,0.15197544,0.62365323,0.062927246,4.384369,8.732132,20.559692,-14.323425,-35.221863,0.10733755,4.6247554,8.646994,-0.04134296,-0.19450283,-0.038122177,0.13642883,0.011001587,-0.015136719
2019-07-01T19:23:48.350Z,0.17791593,0.15326755,0.6261053,-0.061264038,4.6566772,8.594543,21.536255,-14.266968,-34.04236,-0.05032703,4.4767103,8.725075,-0.01051544,0.14976835,0.033210754,-0.04701233,0.028656006,0.0028076172
2019-07-01T19:23:48.554Z,0.16813922,0.15174082,0.6288355,0.05239868,4.483429,8.588074,21.06781,-13.859558,-34.24225,-0.13996284,4.3244486,8.800565,0.098532945,0.16012144,-0.21253395,-0.18299866,0.034347534,-0.0107421875
2019-07-01T19:23:48.754Z,0.16512676,0.13522725,0.626047,-0.11820984,4.1233063,8.917328,20.521545,-11.633301,-34.674072,0.038355913,4.089471,8.9132,-0.06438039,0.017689228,0.115698814,0.095077515,-0.109573364,-0.0059814453
2019-07-01T19:23:48.959Z,0.1803152,0.14902787,0.62436867,0.05670166,4.361389,8.82019,20.986938,-13.70697,-35.568237,0.029730188,4.4607215,8.733355,-0.0287178,-0.047386646,-0.04723549,-0.026611328,0.060546875,-0.0099487305
2019-07-01T19:23:49.164Z,0.17045154,0.1529838,0.62601745,-0.038528442,4.373123,8.685471,21.97113,-13.28125,-35.21881,-0.14378273,4.370388,8.777781,0.10305402,0.0037350655,-0.06653786,-0.04109192,0.04862976,0.0041656494
2019-07-01T19:23:49.362Z,0.16966605,0.14610504,0.6233233,-0.0708313,4.343689,8.777588,21.058655,-13.619995,-36.836243,-0.07273422,4.279393,8.823371,0.020913415,0.059337616,-0.003282547,-0.028137207,-0.031204224,-0.013549805
2019-07-01T19:23:49.604Z,0.17020716,0.15073067,0.6241769,-0.04762268,4.2228546,8.988647,20.690918,-12.997437,-36.01532,-0.12606324,4.340571,8.792834,0.061555862,-0.09403467,0.2050209,0.13056946,0.086135864,0.008377075
2019-07-01T19:23:49.774Z,0.17649074,0.18152356,0.628251,-0.15098572,4.4901276,8.637848,21.62323,-13.812256,-35.54077,-0.44443306,4.783295,8.549442,0.34086365,-0.29159307,0.101947784,0.34535217,0.28112793,0.028045654
2019-07-01T19:23:49.979Z,0.17956315,0.20418544,0.6266799,-0.70803833,5.0112915,8.231796,22.279358,-15.753174,-33.61969,-0.7176106,5.081685,8.356548,-0.090650976,0.008194447,-0.1770029,-0.07872009,-0.021118164,-0.035964966
2019-07-01T19:23:50.178Z,0.17192817,0.17747742,0.6271302,-0.24909973,4.3511047,8.735718,23.460388,-16.558838,-32.2464,-0.45655686,4.6738806,8.609111,-0.21847385,0.2349062,-0.10747433,-0.31132507,-0.20376587,0.013687134
2019-07-01T19:23:50.392Z,0.16422045,0.14323534,0.6267262,0.11677551,4.2467804,8.974289,21.827698,-14.9002075,-34.63745,-0.08316758,4.1703954,8.875318,-0.12037903,0.124482155,-0.022023201,-0.07817078,-0.24378967,0.011306763
2019-07-01T19:23:50.581Z,0.18008561,0.14212665,0.62556547,0.29885864,4.4080505,8.571335,21.124268,-14.13269,-36.036682,0.130909,4.3776016,8.774386,0.019301713,-0.094684124,0.15686321,0.19165039,-0.012634277,0.008804321
2019-07-01T19:23:50.796Z,0.18139929,0.18042809,0.62097055,-0.20123291,4.8313446,8.549072,19.68689,-14.167786,-34.475708,-0.41258332,4.8334937,8.522763,0.16234118,0.0073623657,0.04806328,0.0743103,0.14515686,-0.042816162
2019-07-01T19:23:50.984Z,0.17715591,0.19675492,0.61822194,-0.81140137,5.0352173,8.353104,21.914673,-14.823914,-33.946228,-0.70786184,4.957186,8.431823,-0.12087983,0.09553528,0.014579773,0.12800598,0.2268219,-0.06889343
2019-07-01T19:23:51.200Z,0.1617536,0.16214615,0.61920816,-0.60084534,4.697586,8.446182,21.812439,-13.749695,-32.513428,-0.42415866,4.352046,8.7778225,-0.12889728,0.26791048,-0.2651615,-0.053482056,0.03514099,-0.059677124
2019-07-01T19:23:51.407Z,0.15978287,0.15774013,0.62356424,-0.27278137,4.170685,9.069992,22.113037,-12.190247,-33.718872,-0.36258304,4.27594,8.817895,0.071716756,-0.08388901,0.20050716,-0.3438263,-0.16668701,0.020767212
2019-07-01T19:23:51.596Z,0.16519153,0.16011263,0.6220083,-0.38381958,4.336029,8.661774,21.672058,-13.021851,-33.718872,-0.33511695,4.378266,8.76863,-0.054453015,-0.010921955,-0.09803295,0.071243286,0.009231567,0.01802063
2019-07-01T19:23:51.798Z,0.16635531,0.15491016,0.6218796,-0.2902527,4.401596,8.698151,22.174072,-12.698364,-33.44879,-0.24783579,4.3345685,8.793206,-0.029350087,0.060093403,-0.059350967,0.013519287,-0.0315094,0.004348755
2019-07-01T19:23:52.001Z,0.16917926,0.15068482,0.6232483,-0.2632141,4.3015747,8.894119,22.409058,-12.449646,-35.44464,-0.14406097,4.3255696,8.799948,-0.087375715,-0.013626099,0.08120346,-0.04560852,-0.053985596,0.008621216
2019-07-01T19:23:52.204Z,0.17001772,0.15025073,0.6227695,-0.055038452,4.285309,8.740265,20.828247,-12.051392,-34.39331,-0.12990727,4.3321476,8.796932,0.052094862,-0.027378082,-0.03180027,0.017303467,-0.034072876,0.015701294
2019-07-01T19:23:52.408Z,0.16904637,0.15009466,0.6215926,-0.19789124,4.2963104,8.778549,21.739197,-13.22937,-34.51996,-0.14699757,4.316583,8.804311,-0.05888909,-0.012124062,-0.038962364,-0.014587402,-0.0029907227,-0.0030517578
2019-07-01T19:23:52.610Z,0.1719316,0.1405831,0.6257767,0.050247192,4.3094788,8.934082,20.887756,-12.483215,-34.40857,0.048533935,4.2468615,8.839243,0.026670761,0.039100647,0.17442226,-0.0039520264,-0.016662598,0.032989502
2019-07-01T19:23:52.813Z,0.17227373,0.14117466,0.6249754,0.01411438,4.2680817,8.630676,21.801758,-13.661194,-34.532166,0.04002128,4.2585416,8.833663,-0.0081008,0.048375607,-0.19159985,0.01071167,-0.040740967,0.016616821
2019-07-01T19:23:53.021Z,0.17451611,0.14487939,0.6266418,0.0057373047,4.269989,8.905853,21.125793,-12.390137,-35.231018,0.026309568,4.332606,8.7976265,-0.044199813,-0.04412651,0.06529522,-0.04524231,-0.010375977,-0.010375977
2019-07-01T19:23:53.216Z,0.16971382,0.12073454,0.6352458,0.24932861,4.1941376,8.463409,18.83545,-13.121033,-35.812378,0.35343647,3.979765,8.9558325,-0.16992441,0.28479433,-0.2429409,0.012664795,-0.17164612,0.06488037
2019-07-01T19:23:53.421Z,0.15297574,0.11546551,0.6407318,0.690094,3.788559,9.1783905,19.845581,-11.952209,-36.824036,0.23874763,3.6816785,9.086178,0.55479306,-0.05657792,0.07558727,-0.097961426,0.0692749,-0.15057373
2019-07-01T19:23:53.624Z,0.16904964,0.1272747,0.6302741,-0.4924469,3.8572388,9.555969,20.109558,-11.4227295,-37.106323,0.2250834,4.050039,8.928432,-0.795681,-0.08794737,0.4516716,0.25726318,-0.11531067,0.044296265
2019-07-01T19:23:53.832Z,0.18262094,0.11841158,0.6382591,0.18209839,4.2092133,8.209778,19.490051,-14.526367,-37.031555,0.5711951,4.1271667,8.877535,-0.26781332,0.059766293,-0.6006737,-0.06967163,-0.12521362,0.14776611
2019-07-01T19:23:54.038Z,0.19622166,0.10113409,0.6410176,0.5089569,4.260895,9.320526,17.340088,-12.266541,-36.71112,1.0088754,4.10056,8.850873,-0.4834627,0.21020985,0.45368576,0.09310913,-0.22241211,0.11190796
2019-07-01T19:23:54.259Z,0.20276211,0.11187774,0.63365495,2.5337677,4.0823975,8.718018,16.55426,-13.781738,-35.931396,0.9002438,4.3258886,8.7548065,1.9422128,-0.3098073,0.03858185,0.13026428,0.03404236,-0.517395
2019-07-01T19:23:54.448Z,0.21765181,0.09838555,0.5582747,2.724228,3.8847504,9.247299,17.350769,-11.743164,-38.264465,0.8500259,4.4690275,8.687672,1.5241599,-0.5866661,0.6251497,-0.035827637,-0.67445374,-0.80744934
2019-07-01T19:23:54.642Z,0.24687198,0.054989573,0.5105005,0.28761292,3.9909973,8.240402,12.364197,-9.4314575,-40.60974,1.5854546,4.5299125,8.551994,-1.3445857,-0.2817483,-0.45600605,-0.12594604,-0.42601013,-0.0758667
2019-07-01T19:23:54.844Z,0.23081513,0.06750113,0.4959389,0.8049469,3.780426,8.780228,13.505554,-9.136963,-40.59601,1.140468,4.4339213,8.672373,-0.5078789,-0.63091135,0.327672,0.39587402,0.308136,-0.3998108
2019-07-01T19:23:55.047Z,0.32158747,0.16170137,0.45025098,0.3201599,5.27594,9.228394,14.500427,-16.236877,-37.85553,0.24837022,6.581955,7.2654366,0.15831657,-1.2485347,1.6640916,1.5208435,0.1293335,-0.73461914
2019-07-01T19:23:55.255Z,0.36096126,0.18462369,0.40219712,-1.4519653,7.688385,5.025406,15.731812,-19.819641,-35.23712,-0.12509261,7.2679873,6.582637,-1.3298423,0.5183482,-1.6895065,-0.19081116,-0.147995,0.20054626
2019-07-01T19:23:55.458Z,0.37223414,0.14308335,0.44260427,0.5096741,7.0415955,6.8527985,13.499451,-21.054077,-36.15265,0.9773938,7.1057787,6.6875253,-0.24374092,-0.16050577,0.18617201,0.04827881,0.28240967,0.23036194
2019-07-01T19:23:55.656Z,0.31171185,0.15185654,0.46731067,0.2828369,6.6429596,6.152664,16.548157,-17.572021,-36.021423,0.43476862,6.363884,7.448648,-0.2084521,0.4136634,-0.9237833,-0.7159729,0.13458252,0.41337585
2019-07-01T19:23:55.858Z,0.32167453,0.16953707,0.5050729,1.0155182,6.1861725,8.740738,16.339111,-19.06128,-33.74939,0.58379775,6.6178517,7.2134323,0.43199557,-0.5131402,1.3808365,0.769104,0.22944641,0.07923889
2019-07-01T19:23:56.069Z,0.36227062,0.20648953,0.49301904,0.1581726,6.70253,6.029434,18.10608,-22.961426,-32.728577,0.41060558,7.4221797,6.39633,-0.24039683,-0.47836018,-0.5306835,-0.033081055,0.33512878,0.07489014
2019-07-01T19:23:56.272Z,0.31507424,0.19372222,0.52901447,0.09068298,7.627365,6.9930267,17.451477,-21.400452,-32.76062,0.36715618,6.7298317,7.1235495,-0.29557365,0.78542614,0.096087456,-0.43569946,-0.30377197,0.28625488
2019-07-01T19:23:56.470Z,0.27841157,0.14377639,0.54113394,0.587677,5.23143,8.396179,15.467834,-18.145752,-37.150574,0.7542897,5.7872667,7.880925,1.514195,-0.38324642,-0.86674404,-0.33345032,-0.05619812,-0.36547852
2019-07-01T19:23:56.667Z,0.2367256,0.15451589,0.4469811,-1.7730865,5.8880157,8.270309,19.511414,-10.444641,-36.654663,-0.49672556,5.2951007,8.23927,0.3574851,0.44205332,0.21527386,-0.47088623,0.107284546,-0.9706116
2019-07-01T19:23:56.886Z,0.22249888,0.1378822,0.43864554,-0.8006439,4.6616974,9.172409,18.978882,-7.777405,-37.52289,-0.41066882,4.9378886,8.462801,-1.0668765,0.604825,-0.1768837,-0.31028748,-0.17628479,0.031097412
2019-07-01T19:23:57.080Z,0.19127083,0.07889717,0.4566968,0.69343567,3.4222107,8.7795105,16.793823,-3.8131714,-40.856934,0.37439385,3.9525678,8.967018,-0.9841076,0.58989406,0.2023449,-0.48225403,-0.3141632,0.2772827
2019-07-01T19:23:57.285Z,0.21955043,0.0431749,0.41754025,0.57954407,3.9407349,8.866608,13.98468,-3.4851074,-41.5802,1.0522135,4.145869,8.824681,-0.44149017,-0.1544075,-0.14705276,-0.058563232,-0.43193054,-0.24195862
2019-07-01T19:23:57.484Z,0.23781466,0.04443475,0.40181905,0.9233856,4.4228973,8.622528,11.906433,-4.9316406,-42.0166,1.1045126,4.4696445,8.658678,-0.0894624,-0.0038938522,-0.018997192,0.21963501,-0.13444519,-0.14953613
2019-07-01T19:23:57.680Z,0.22509089,0.06320223,0.39185494,0.8769684,4.2551575,9.158051,11.434937,-4.974365,-40.4953,0.62692004,4.4141245,8.734579,0.11605096,-0.1947751,0.60840034,0.015548706,0.06544495,-0.19560242
2019-07-01T19:23:57.889Z,0.23852667,0.021795718,0.4028733,1.027008,4.2589874,8.643829,12.663269,-6.277466,-40.434265,1.507137,4.304837,8.681436,-0.41155887,0.0054192543,-0.2695341,0.2574463,-0.01977539,-0.10928345
2019-07-01T19:23:58.085Z,0.20640747,-0.013410298,0.41701904,1.552948,4.138626,8.454803,8.390808,-2.3849487,-43.09082,1.921017,3.4732864,8.967517,-0.3374108,0.6008661,-0.3812704,-0.71188354,-0.5771332,0.6074524
2019-07-01T19:23:58.285Z,0.19671415,0.02550617,0.4234603,1.2746582,3.7634277,9.106613,8.045959,-1.3290405,-41.50238,1.1916047,3.6222358,9.034925,0.118014336,0.15363169,0.2390995,-0.032226562,0.33055115,-0.1210022
2019-07-01T19:23:58.506Z,0.18681028,0.05379272,0.4405226,0.9272156,3.480835,8.967346,11.070251,-2.1499634,-41.11328,0.68936884,3.6760232,9.06543,0.1409905,-0.17002964,-0.10346413,0.22842407,0.27453613,0.020217896
2019-07-01T19:23:58.700Z,0.19857295,0.0913055,0.4443649,0.38261414,3.9357147,8.726379,13.887024,-4.005432,-41.003418,0.17484894,4.1793666,8.869763,0.2577929,-0.21039486,-0.17644978,-0.008224487,0.30549622,0.15197754
2019-07-01T19:23:58.903Z,0.1978528,0.08747863,0.42448348,0.7527771,4.036209,9.541855,14.7491455,-4.7592163,-39.682007,0.13872288,4.1401324,8.8887825,0.46971178,-0.13870573,0.94272804,0.28230286,0.0002593994,-0.15466309
2019-07-01T19:23:59.109Z,0.25069636,0.09303216,0.3948021,-0.20649719,4.578186,8.491898,15.045166,-5.2459717,-40.246582,0.33736628,5.0423737,8.404228,-0.6185446,-0.30288172,-0.27441216,0.1864624,0.18559265,-0.20640564
2019-07-01T19:23:59.315Z,0.25841355,0.0856771,0.4103598,0.35964966,5.259659,8.475861,12.860107,-7.206726,-41.08429,0.6173203,5.10074,8.352949,-0.1768958,0.16174316,0.28582382,0.275589,-0.46333313,-0.024429321
2019-07-01T19:23:59.529Z,0.24240649,0.10377984,0.4428227,0.6652069,4.6533203,7.9171295,12.588501,-9.93042,-39.967346,0.3610444,4.9756637,8.442915,0.38193223,-0.3820653,-0.41078472,0.16569519,0.14808655,0.24862671
2019-07-01T19:23:59.740Z,0.23715188,0.095809564,0.43669817,0.56925964,4.7557373,8.832382,14.918518,-8.323669,-39.20746,0.41050282,4.8323045,8.523539,0.1566799,0.03493595,0.2983427,0.0047302246,-0.071762085,-0.012939453
2019-07-01T19:23:59.913Z,0.24861194,0.09784723,0.44170544,0.29981995,4.9421387,8.744339,15.817261,-7.8186035,-40.348816,0.51017207,5.023838,8.406613,-0.21924716,-0.049458504,0.2264309,0.11102295,0.06549072,0.14440918
2019-07-01T19:24:00.138Z,0.25469443,0.11188212,0.45633346,0.50154114,5.1711273,7.977188,14.335632,-10.470581,-39.996338,0.42486668,5.223508,8.288838,0.07709128,-0.05994749,-0.30632305,0.076812744,0.3123474,0.07354736
2019-07-01T19:24:00.326Z,0.23409669,0.13862355,0.4623752,0.20698547,5.0074615,8.243271,16.941833,-9.945679,-38.56201,-0.17153601,5.1318913,8.354918,0.31587052,-0.09865475,0.04852295,-0.087875366,0.043380737,-0.113861084
2019-07-01T19:24:00.549Z,0.23704183,0.11081024,0.44565558,-0.18544006,5.0524445,8.666809,17.146301,-8.982849,-38.75122,0.21130036,4.948768,8.463772,-0.3440538,0.11781645,0.23942566,-0.007858276,-0.35862732,0.0038452148
2019-07-01T19:24:00.729Z,0.24484992,0.10344258,0.44608617,0.32518005,5.005783,8.261932,14.624023,-9.507751,-39.509583,0.4083739,5.00914,8.420934,-0.06115222,-0.0062918663,-0.22130775,-0.05708313,0.104888916,0.0012817383
2019-07-01T19:24:00.947Z,0.22313002,0.10203643,0.4494097,0.21343994,4.796417,8.616562,16.532898,-8.216858,-39.17694,0.24772345,4.6585226,8.62596,-0.07999934,0.122840405,0.092310905,-0.15635681,0.017120361,-0.008178711
2019-07-01T19:24:01.132Z,0.2278212,0.09385911,0.4458138,0.2622528,4.6136017,8.687622,15.655518,-7.8292847,-40.26947,0.4078749,4.665889,8.615887,-0.051439315,-0.04109001,0.051038742,0.01638794,-0.060028076,-0.042510986
2019-07-01T19:24:01.333Z,0.22656058,0.09417049,0.44012251,0.37065125,4.676529,8.483276,16.099548,-6.7749023,-40.751648,0.36035514,4.6511416,8.625973,-0.06284854,0.06307411,-0.062325478,-0.007736206,-0.056243896,-0.03591919
2019-07-01T19:24:01.533Z,0.22597134,0.09114087,0.43080425,0.275177,4.665283,8.5699005,14.666748,-6.5856934,-39.974976,0.3560687,4.6212263,8.642214,-0.048179626,0.032598495,-0.08087921,-0.036621094,0.012954712,-0.042877197
2019-07-01T19:24:01.736Z,0.2259806,0.0946589,0.43435037,0.25508118,4.565506,8.720886,16.011047,-7.0022583,-40.64331,0.31589288,4.648179,8.629312,-0.075520664,-0.063622475,0.13383579,0.04827881,0.016189575,0.015640259
2019-07-01T19:24:01.939Z,0.2296401,0.09921314,0.43872976,0.31202698,4.6456604,8.638336,16.191101,-6.852722,-39.25934,0.29653874,4.741117,8.579292,0.0025967658,-0.06989908,0.061224937,0.09458923,0.005569458,-0.0021362305
2019-07-01T19:24:02.142Z,0.2367584,0.10331221,0.43846855,0.2524414,4.8473816,8.495483,16.053772,-8.026123,-39.871216,0.29179716,4.8857985,8.497895,-0.03450942,-0.0128088,-0.025115967,0.04510498,0.00630188,0.009048462
2019-07-01T19:24:02.347Z,0.2379529,0.102508344,0.43802008,0.25004578,4.90744,8.439728,16.111755,-8.605957,-39.613342,0.3135589,4.8981285,8.490019,-0.057652205,0.014558315,-0.015001297,0.0032653809,-0.015136719,0.005935669
2019-07-01T19:24:02.555Z,0.2383795,0.1010997,0.43877324,0.2995758,4.894516,8.487106,15.79895,-8.41217,-39.260864,0.34519228,4.8931556,8.491658,-0.0392541,0.0068917274,0.02695942,0.021087646,-0.012023926,-0.006164551
2019-07-01T19:24:02.754Z,0.24022835,0.102233894,0.4359547,0.29359436,4.9222717,8.502655,15.979004,-8.03833,-38.88855,0.32710928,4.932162,8.469779,-0.043426007,0.020870209,0.0037851334,0.027938843,0.025299072,-0.0024414062
2019-07-01T19:24:02.967Z,0.24159211,0.1066097,0.4383336,0.2141571,4.9213257,8.517014,15.582275,-9.664917,-39.279175,0.2805619,4.987533,8.438968,0.048261464,0.0025963783,-0.058547974,-0.046951294,0.058410645,0.020462036
2019-07-01T19:24:03.157Z,0.23633343,0.10715063,0.44143263,0.31225586,4.910797,8.347839,16.842651,-8.338928,-39.96582,0.24100426,4.9091973,8.485993,-0.090176225,0.026569366,0.060385704,-3.0517578e-05,-0.050811768,0.044418335
2019-07-01T19:24:03.368Z,0.24051557,0.10237582,0.44220972,0.38883972,4.7365875,8.739075,15.615845,-8.708191,-40.14435,0.36328492,4.9352565,8.466501,0.0044783056,-0.016410828,-0.1917181,-0.11628723,-0.03425598,0.0037841797
2019-07-01T19:24:03.569Z,0.21309398,0.086255215,0.4444052,0.4345398,4.6013947,8.405029,14.848328,-8.035278,-39.445496,0.39262006,4.3705225,8.770107,0.07638696,0.20374966,-0.26425838,-0.049942017,-0.002319336,0.0018310547
2019-07-01T19:24:03.774Z,0.20429376,0.096975885,0.44663346,0.19621277,4.3164062,8.841248,15.37323,-6.977844,-40.008545,0.14309204,4.318121,8.80362,-0.016836941,-0.012298107,0.03623581,-0.17614746,0.0872345,-0.004699707
2019-07-01T19:24:03.972Z,0.20879558,0.09360346,0.44511715,0.20123291,4.233856,9.010895,15.884399,-6.3598633,-39.82849,0.23343387,4.36255,8.779753,-0.00459975,-0.11294508,0.21765804,-0.06100464,-0.004760742,-0.018508911
2019-07-01T19:24:04.173Z,0.22147024,0.09683535,0.44271782,0.18807983,4.4573517,8.654846,15.234375,-6.47583,-40.126038,0.2831124,4.5915303,8.66072,-0.10994068,-0.10896921,0.0037994385,0.13136292,-0.029190063,-0.012512207
2019-07-01T19:24:04.380Z,0.22692005,0.066549495,0.4370249,0.5852814,4.5755615,8.704132,16.26587,-6.768799,-40.078735,0.8123368,4.432732,8.709845,-0.10726148,0.113866806,-0.025413513,0.0740509,-0.15466309,0.009292603
2019-07-01T19:24:04.588Z,0.2206982,0.086512685,0.432398,0.846817,4.421936,8.598129,14.302063,-7.4813843,-40.368652,0.3955298,4.4994426,8.704537,0.29946688,-0.07298851,-0.06245041,-0.07585144,-0.17451477,-0.072631836
2019-07-01T19:24:04.780Z,0.2234419,0.08813206,0.4332714,0.09666443,4.4908447,8.656036,13.259888,-5.6610107,-39.72931,0.3972394,4.5558105,8.675089,-0.21108094,-0.024827957,-0.039319992,0.035751343,0.22608948,-0.017959595
2019-07-01T19:24:04.988Z,0.2302438,0.08600792,0.42959252,0.75349426,4.6492615,8.648621,14.978027,-6.9351196,-39.38141,0.47417286,4.6486325,8.6218195,0.33092934,0.0015244484,-0.04647541,0.040283203,-0.052520752,-0.003112793
2019-07-01T19:24:05.190Z,0.2182922,0.08968425,0.42346358,0.15505981,4.437729,8.675186,13.415527,-5.870056,-39.55078,0.27454597,4.4895573,8.714293,-0.2661373,-0.07100153,0.11249828,-0.044937134,0.027252197,-0.103530884
2019-07-01T19:24:05.402Z,0.2280975,0.08231748,0.42550114,0.3397827,4.560959,8.825455,15.000916,-6.0440063,-41.314697,0.49594638,4.587469,8.653297,-0.03605342,0.0041570663,0.11097336,0.0059509277,-0.040237427,-0.0028686523
2019-07-01T19:24:05.601Z,0.22986391,0.08608786,0.42463735,0.5970154,4.6133575,8.423218,15.632629,-6.289673,-41.61377,0.44300684,4.645847,8.624977,0.105761856,-0.024156094,-0.16179085,0.07362366,-0.055877686,0.06542969
2019-07-01T19:24:05.799Z,0.23260435,0.08762237,0.4218908,0.41204834,4.6877747,8.69696,14.13269,-7.333374,-42.36908,0.4262928,4.7028174,8.5948925,-0.0052589476,-0.0007996559,0.08315563,0.009857178,0.03414917,-0.028396606
2019-07-01T19:24:06.010Z,0.24122722,0.08789924,0.42447773,0.46946716,4.7803802,8.529938,15.489197,-7.913208,-40.58075,0.511414,4.839834,8.513803,-0.03743404,-0.049321175,0.037308693,0.057373047,-0.0029296875,0.013259888
2019-07-01T19:24:06.203Z,0.24844065,0.08953932,0.43037793,0.57380676,4.89476,8.433273,14.369202,-7.7682495,-40.429688,0.5812824,4.9617386,8.438817,0.0084812045,-0.047525406,-0.029827118,0.053833008,0.017120361,0.030914307
2019-07-01T19:24:06.405Z,0.25022,0.09204388,0.4255975,0.5733185,4.980423,8.392822,14.724731,-8.9904785,-39.561462,0.5275681,5.0121837,8.412495,0.0322842,-0.012922764,-0.017469406,0.013763428,0.0014190674,-0.030410767
2019-07-01T19:24:06.612Z,0.25057116,0.09221321,0.4275627,0.5297699,5.0289917,8.361954,14.649963,-8.695984,-40.629578,0.53925633,5.0177507,8.408433,0.006765902,0.010128498,-0.023056984,-0.002243042,-0.019714355,0.010147095
2019-07-01T19:24:06.808Z,0.2526451,0.09569436,0.43260962,0.5603943,5.030426,8.453369,14.41803,-8.494568,-40.50293,0.5292644,5.0741873,8.375134,-0.00090664625,-0.037512302,0.062514305,0.08834839,0.046554565,0.047576904
2019-07-01T19:24:07.015Z,0.2573673,0.09792386,0.43506598,0.5426941,5.133087,8.295685,15.052795,-10.717773,-39.54773,0.5496783,5.162876,8.319432,0.015671194,-0.021077633,-0.004527092,0.070510864,0.027496338,0.023956299
2019-07-01T19:24:07.217Z,0.26096803,0.104059674,0.43851143,0.54460144,5.218033,8.239929,15.184021,-11.367798,-39.45923,0.5021686,5.2645116,8.258519,0.027037024,-0.02498722,-0.030417442,0.029830933,0.02810669,-0.014099121
2019-07-01T19:24:07.426Z,0.25816703,0.107322454,0.4401856,0.46180725,5.2955627,8.195663,15.126038,-10.78186,-40.167236,0.43279624,5.2471027,8.273512,0.026835293,0.06561756,-0.023376465,-0.0062713623,0.03036499,-0.012390137
2019-07-01T19:24:07.635Z,0.25772882,0.11041176,0.43962038,0.3802185,5.305603,8.219589,15.950012,-10.517883,-38.94043,0.3743905,5.2653666,8.264752,-0.002402842,0.048793316,-0.0698967,-0.043167114,0.037765503,-0.0051879883
2019-07-01T19:24:07.830Z,0.2481053,0.106393375,0.43867126,0.36036682,5.1814117,8.252121,15.200806,-9.1796875,-39.31732,0.34602728,5.086378,8.3773155,0.012677729,0.086212635,-0.048316002,-0.11114502,-0.009216309,-0.01966858
2019-07-01T19:24:08.038Z,0.24292375,0.1041589,0.43752193,0.34768677,5.033783,8.453125,14.968872,-9.127808,-38.616943,0.32874852,4.988858,8.436444,0.025088191,0.03645897,0.0041007996,-0.048416138,0.043014526,-0.005493164
2019-07-01T19:24:08.230Z,0.24094181,0.106891245,0.43874535,0.2400055,4.950989,8.501465,16.262817,-8.892822,-38.99994,0.27230385,4.9795637,8.443944,-0.041435182,-0.008461475,0.08449459,0.013397217,-0.010498047,-0.00579834
2019-07-01T19:24:08.433Z,0.24048129,0.10928687,0.43935585,0.25006104,4.991913,8.307404,15.795898,-8.636475,-38.55133,0.23189405,4.9914417,8.438134,0.00761953,0.0009918213,-0.08470535,0.00064086914,0.03060913,-0.007507324
2019-07-01T19:24:08.637Z,0.24175858,0.11233963,0.43964684,0.188797,4.995743,8.493332,15.661621,-9.733582,-39.146423,0.19485998,5.0356216,8.412784,0.001447618,-0.025382042,0.07699394,0.051696777,0.034576416,-0.0040283203
2019-07-01T19:24:08.858Z,0.2445157,0.11810063,0.4421758,0.17324829,5.0648956,8.410294,16.63971,-9.29718,-40.15503,0.14047511,5.12382,8.36045,0.036512867,-0.039686203,0.038661003,0.08706665,0.06311035,-0.013549805
2019-07-01T19:24:09.049Z,0.25081307,0.12727891,0.4406053,-0.003829956,5.2118073,8.294968,16.670227,-10.768127,-37.963867,0.039305937,5.293599,8.255098,-0.06726101,-0.056607723,0.0267725,0.07588196,0.021881104,0.0074005127
2019-07-01T19:24:09.244Z,0.2537032,0.1283778,0.44195652,0.0028686523,5.34198,8.180344,16.358948,-10.649109,-37.24518,0.056964934,5.3462577,8.22099,-0.029136334,0.028882027,-0.04950905,0.009857178,-0.012878418,0.013015747
2019-07-01T19:24:09.449Z,0.25371808,0.12732792,0.4431512,0.09954834,5.3355103,8.208099,16.932678,-10.314941,-37.731934,0.08172694,5.338058,8.226107,-0.06510046,0.012001991,-0.039548874,-0.016220093,-0.015625,0.01222229
2019-07-01T19:24:09.660Z,0.25419667,0.12761152,0.44416252,0.023925781,5.313492,8.268646,17.520142,-11.2854,-39.463806,0.087984785,5.3474803,8.219922,0.007614672,-0.001475811,0.0013103485,-0.0007171631,0.01222229,0.0030059814
2019-07-01T19:24:09.855Z,0.25308436,0.12867036,0.44602877,0.08924866,5.391266,8.210495,16.966248,-11.178589,-39.041138,0.071948014,5.338879,8.225666,-0.046376027,-0.02944374,0.063447,0.045410156,0.0016021729,0.0069732666
2019-07-01T19:24:10.050Z,0.25546068,0.12955752,0.4423547,0.052886963,5.3556213,8.046829,16.506958,-12.371826,-39.64386,0.056826398,5.3822513,8.197471,-0.0077373497,0.0062270164,-0.12636471,0.025314331,-0.020202637,-0.017105103
2019-07-01T19:24:10.253Z,0.25768268,0.14127377,0.44708484,-0.0009613037,5.436966,8.302139,15.812683,-10.020447,-38.53302,-0.08135323,5.5086365,8.112872,0.026192963,-0.06532955,0.12484646,-0.0345459,0.041366577,7.6293945e-05
2019-07-01T19:24:10.459Z,0.250558,0.12251562,0.4419401,-0.16749573,5.497986,7.9130707,16.751099,-12.583923,-38.186646,0.12310811,5.2517815,8.280944,-0.11474052,0.21698427,-0.22574615,0.10571289,0.07295227,0.023208618
2019-07-01T19:24:10.660Z,0.25707418,0.1273717,0.44316512,0.2665558,5.2981873,8.309326,15.249634,-10.06012,-38.290405,0.11279161,5.38929,8.192266,0.08861422,-0.05627489,0.119091034,-0.17933655,-0.12814331,-0.024246216
2019-07-01T19:24:10.862Z,0.25862914,0.130616,0.44107547,-0.03996277,5.5001373,8.136322,16.261292,-10.9436035,-37.90741,0.061350938,5.438661,8.160122,-0.12923005,0.06673002,-0.0050439835,0.13232422,0.007888794,-0.0012817383
2019-07-01T19:24:11.065Z,0.25844008,0.13165936,0.44124827,0.05958557,5.4845886,8.006866,17.03186,-11.538696,-39.041138,0.043708067,5.4440036,8.1566725,0.004469447,0.0577178,-0.15272713,0.009674072,0.023345947,-0.018875122
2019-07-01T19:24:11.268Z,0.25759876,0.12789749,0.44070822,-0.027282715,5.460663,8.162643,16.23993,-11.300659,-38.658142,0.093571104,5.4016886,8.184339,-0.12881637,0.05564165,-0.02379036,0.007904053,0.017669678,0.016433716
2019-07-01T19:24:11.470Z,0.2573904,0.122747846,0.4381139,0.20266724,5.3441315,8.324387,15.9591675,-10.374451,-38.609314,0.15935805,5.3583603,8.211759,0.061708763,0.008189201,0.10388374,-0.081832886,-0.07286072,0.02444458
2019-07-01T19:24:11.674Z,0.26874834,0.1189767,0.4349518,0.23521423,5.357773,8.131775,15.542603,-10.922241,-37.34436,0.3064969,5.501355,8.112432,-0.08315045,-0.114723206,-0.038128853,0.03062439,0.00050354004,0.001953125
2019-07-01T19:24:11.877Z,0.26321593,0.113975674,0.43739387,0.26966858,5.58461,8.172684,15.592957,-11.57074,-37.779236,0.3527979,5.377789,8.193004,-0.036663234,0.17086267,0.12730408,0.024642944,-0.08959961,-0.026138306
2019-07-01T19:24:12.088Z,0.2554636,0.119329736,0.4369163,0.2665558,5.3273773,8.052811,15.670776,-9.741211,-37.939453,0.1900249,5.3023763,8.247369,0.020360857,0.050447464,-0.2113409,-0.028930664,0.03012085,0.015151978
2019-07-01T19:24:12.282Z,0.2575912,0.11603946,0.43828315,0.18281555,5.3319244,8.217667,16.329956,-10.926819,-39.416504,0.27230215,5.3084574,8.241149,-0.07946673,0.024157524,-0.028201103,-0.054092407,-0.013977051,-0.022720337
2019-07-01T19:24:12.489Z,0.25580502,0.11738416,0.4385545,0.40342712,5.302017,8.237778,15.620422,-10.684204,-39.035034,0.23531231,5.291822,8.252978,0.147421,0.024835587,0.0061483383,0.0047302246,0.030059814,0.0030670166
2019-07-01T19:24:12.686Z,0.25168762,0.11324836,0.44027886,0.12083435,5.2749786,8.054474,15.460205,-10.772705,-38.51776,0.27565384,5.195569,8.312669,-0.11957729,0.10065937,-0.15302277,-0.029663086,-0.012207031,-0.0029907227
2019-07-01T19:24:12.901Z,0.25879723,0.11266556,0.43626037,0.33140564,5.26445,8.478485,15.591431,-9.597778,-38.513184,0.3263849,5.300869,8.244068,0.06321445,-0.04621601,0.10402489,0.007843018,-0.01965332,-0.036346436
2019-07-01T19:24:13.088Z,0.25478962,0.11475636,0.4363505,0.3517456,5.2412415,8.258118,15.301514,-10.632324,-38.937378,0.25552696,5.2562,8.275111,0.040340573,-0.0010490417,0.055607796,0.023666382,0.027618408,0.014053345
2019-07-01T19:24:13.295Z,0.25862163,0.114567116,0.43305528,0.20770264,5.3022614,8.168854,15.058899,-10.725403,-38.64441,0.27354655,5.314246,8.237374,-0.04845968,0.0016417503,-0.04195118,0.02494812,-0.0075683594,-0.0095825195
2019-07-01T19:24:13.498Z,0.26654533,0.11641454,0.43537357,0.2814026,5.4113617,8.17244,15.110779,-11.453247,-38.34076,0.33078268,5.448029,8.147389,-0.017654955,-0.026670933,-0.011009216,0.08248901,-0.004989624,0.031341553
2019-07-01T19:24:13.713Z,0.2644302,0.124032855,0.4355649,0.38046265,5.4608917,8.144455,16.395569,-11.209106,-39.930725,0.18766224,5.475539,8.13349,0.12659356,0.026786327,0.06783867,-0.013046265,0.0703125,-0.034072876
2019-07-01T19:24:13.924Z,0.26015502,0.12568498,0.43459496,0.12394714,5.421417,8.094208,16.123962,-11.959839,-39.466858,0.11473313,5.4238725,8.169384,0.0006988123,0.018885136,-0.009460449,-0.0016326904,0.018463135,-0.0017089844
2019-07-01T19:24:14.113Z,0.261027,0.12696418,0.43474552,0.08830261,5.4506073,8.109039,16.749573,-10.609436,-39.06555,0.10286117,5.447012,8.154131,-0.002971895,0.011365414,-0.016874313,0.009735107,0.005569458,-0.0008544922
2019-07-01T19:24:14.308Z,0.26212797,0.12694849,0.4359582,0.10336304,5.453964,8.130814,16.914368,-10.525513,-38.98163,0.12112454,5.463395,8.142913,0.015282765,-0.00304842,0.030766487,0.04949951,-0.044281006,0.014419556
2019-07-01T19:24:14.512Z,0.2697571,0.12330325,0.43191576,0.15960693,5.515457,8.216232,15.359497,-11.366272,-37.88147,0.22533597,5.5509944,8.081218,-0.06611121,-0.014505863,0.05053234,0.01902771,-0.06010437,-0.0119018555
2019-07-01T19:24:14.716Z,0.27145714,0.11622625,0.42730293,0.36203003,5.571686,7.869751,15.653992,-11.930847,-38.08441,0.3270729,5.5237136,8.096419,-0.0051226914,0.046423912,-0.08027744,-0.041030884,-0.06022644,0.0155181885
2019-07-01T19:24:14.918Z,0.27666125,0.12030732,0.4315569,0.33810425,5.5259857,8.120529,14.788818,-11.248779,-39.11743,0.33571368,5.6313925,8.02154,0.033700466,-0.02521801,-0.0268054,0.06239319,0.02420044,-0.011001587
2019-07-01T19:24:15.121Z,0.27362612,0.11887562,0.42760476,0.5146942,5.5714417,8.090607,14.802551,-11.108398,-38.485718,0.30528358,5.57649,8.061014,0.19923556,-0.044027805,0.026773453,-0.1558075,-0.0063476562,-0.050094604
2019-07-01T19:24:15.325Z,0.26779467,0.1118852,0.42096865,0.16271973,5.3970184,8.204041,14.924622,-10.075378,-39.035034,0.3251888,5.437601,8.154576,-0.10795331,-0.026045322,-0.010331154,0.022872925,0.029769897,0.037506104
2019-07-01T19:24:15.529Z,0.26166335,0.1255738,0.44579253,-0.043304443,5.547043,8.009491,16.734314,-11.051941,-38.55133,0.20230092,5.443682,8.154494,-0.3556144,0.09423399,-0.014084816,-0.042922974,0.24960327,0.3082428
2019-07-01T19:24:15.730Z,0.25962123,0.12871332,0.4841243,0.5513153,5.279999,8.283707,16.96167,-13.3758545,-37.750244,0.38089567,5.4262652,8.159716,-0.54332834,0.00089263916,-0.24396038,0.006011963,0.20007324,0.5847168
2019-07-01T19:24:15.933Z,0.24740672,0.12826721,0.5447532,0.6807556,5.0067444,8.244949,17.507935,-13.929749,-36.90338,0.6535994,5.208451,8.28343,-0.004113734,0.010336876,0.016712189,-0.0879364,0.2542572,0.66633606
2019-07-01T19:24:16.135Z,0.20916733,0.11858329,0.5946594,0.46946716,4.405426,9.0013275,18.273926,-12.930298,-36.883545,0.6552493,4.5303965,8.672747,0.0045189857,0.42352343,-0.21833229,-0.42129517,0.3072052,0.47720337
2019-07-01T19:24:16.338Z,0.156356,0.13109067,0.6990394,0.5582428,3.997696,8.941025,19.651794,-14.971924,-34.487915,0.38158303,3.8990643,8.990109,0.14678502,0.13318491,-0.0074825287,-0.14950562,0.3173523,0.62760925
2019-07-01T19:24:16.542Z,0.14444058,0.12550463,0.7353055,0.46540833,3.9974518,8.700073,19.563293,-15.42511,-33.215332,0.48267412,3.6518807,9.088519,-0.022293061,0.30342197,-0.29285812,-0.0846405,0.39285278,0.60849
2019-07-01T19:24:16.783Z,0.124018386,0.10816635,0.76280075,0.62571716,3.4746246,9.11618,20.661926,-17.675781,-34.173584,0.5287783,3.1393728,9.275512,0.124584496,0.2937677,-0.1845417,-0.26478577,0.07098389,0.43725586
2019-07-01T19:24:16.947Z,0.0838812,0.087319575,0.7731621,0.34002686,3.2248077,8.958496,19.398499,-17.181396,-33.717346,0.20581388,2.3483362,9.519104,0.13294986,0.887959,-0.53432083,-0.20321655,0.14117432,0.27104187
2019-07-01T19:24:17.149Z,0.024356429,0.030697325,0.78349096,-0.33547974,2.0157166,9.651932,21.466064,-13.824463,-35.081482,0.0008941797,0.7679807,9.776533,-0.3191426,1.0713396,0.083548546,-0.8536072,0.28375244,0.020889282
2019-07-01T19:24:17.375Z,0.015190368,0.0135862455,0.7775152,1.2741852,0.72190857,10.518372,23.327637,-8.09021,-35.124207,0.06416151,0.3944465,9.798505,1.3760728,0.1448147,0.88834476,-0.48347473,0.01626587,0.093048096
2019-07-01T19:24:17.565Z,0.019939665,0.029511988,0.7361372,1.1210327,-0.59054565,11.872467,22.782898,-7.383728,-36.618042,-0.10333587,0.69042706,9.78177,1.0183921,-1.2675159,1.868617,-0.16642761,-0.10151672,-0.3789215
2019-07-01T19:24:17.759Z,0.06380035,0.08776291,0.68623304,-0.26919556,0.66448975,8.924988,21.722412,-5.8502197,-36.791992,-0.37934095,2.0812416,9.575746,0.015892833,-1.1975789,-0.9567747,0.6165161,0.15644836,-0.6781769
2019-07-01T19:24:17.960Z,0.10012343,0.11527212,0.6431871,-0.47976685,2.4495392,8.178192,24.88861,-8.769226,-37.51526,-0.43334115,2.9276252,9.349418,0.028410822,-0.31836534,-1.0962095,0.61338806,-0.001083374,-0.66651917
2019-07-01T19:24:18.163Z,0.13931403,0.13254564,0.58189934,-0.34744263,3.481079,8.780457,25.51117,-9.468079,-36.02295,-0.46426368,3.6718884,9.081414,0.18268242,-0.112452984,-0.271101,0.4688568,0.017608643,-0.5456848
2019-07-01T19:24:18.368Z,0.14645614,0.123067595,0.48272407,0.5568085,2.8567963,10.436783,24.612427,-9.817505,-35.98175,-0.67623997,3.6200786,9.088901,1.4332613,-0.9517906,1.2451572,0.24320984,-0.38850403,-0.9685364
2019-07-01T19:24:18.570Z,0.12304723,0.14169076,0.3481251,1.3588867,1.3464508,8.427765,23.005676,-5.831909,-37.594604,-1.712305,3.184055,9.115931,2.880518,-1.805398,-0.650692,0.1105957,-0.6804352,-1.3921051
2019-07-01T19:24:18.770Z,0.07397932,0.10628859,0.18530592,-3.2360535,3.998169,8.117172,19.328308,0.27008057,-38.090515,-1.7618244,1.7997155,9.477732,-1.5738558,2.368135,-0.9608593,0.1932373,0.67459106,-2.0957031
2019-07-01T19:24:18.986Z,0.09768581,0.1134723,0.1191899,-1.0631256,3.8043518,9.561722,21.858215,9.901428,-36.080933,-1.9560697,2.1457932,9.366949,0.7115431,1.5363703,0.4600296,0.48945618,-0.0005950928,-0.5817261
2019-07-01T19:24:19.179Z,0.15958498,0.1018624,0.048285052,-0.87409973,2.2674408,11.7715,17.399597,9.851074,-39.761353,-1.8082213,3.1661303,9.103644,1.0559539,-1.035033,2.559599,0.70062256,-0.44140625,-1.079834
2019-07-01T19:24:19.390Z,0.19920994,0.08155783,-0.075833075,-0.76475525,1.2818298,8.544052,14.761353,3.3538818,-42.408752,-1.853694,3.6827438,8.897843,1.0662035,-2.2883732,-0.6621809,0.34779358,-0.31929016,-1.3453674
2019-07-01T19:24:19.596Z,0.19469252,0.096829675,-0.18286128,-2.6529236,3.644516,6.9827423,9.712219,0.022888184,-41.67328,-2.5191553,3.3139238,8.879311,-0.4600513,0.49742818,-1.616602,-0.0055999756,-0.17115784,-0.82650757
2019-07-01T19:24:19.789Z,0.11323122,0.005682034,-0.242335,-2.3621979,2.629959,10.68132,6.0943604,-0.0030517578,-41.15143,-0.64556766,2.1128721,9.554549,-1.3708444,0.2339685,1.6570044,-0.6696625,-0.93608093,-0.11764526
2019-07-01T19:24:19.990Z,0.11126694,-0.0046296776,-0.26241717,-0.3440857,1.022934,9.059937,-2.746582,5.1467896,-38.23242,-0.4856405,2.1155891,9.56341,0.057433724,-0.81152344,-1.0707159,0.04473877,-0.3927765,-0.38008118
2019-07-01T19:24:20.193Z,0.07812451,-0.0063118357,-0.28356352,-0.7645111,3.0106506,8.087738,-8.143616,8.27179,-36.317444,-0.31618127,1.4995725,9.686161,-0.5517964,1.5709462,-1.0238075,-0.443161,0.08792114,-0.02418518
2019-07-01T19:24:20.400Z,0.08085498,-0.025868962,-0.25172314,-1.2749023,2.6443024,13.700104,-10.464478,10.223389,-35.144043,0.08995424,1.6565704,9.665302,-1.3148301,0.7736876,4.1553144,0.77093506,-0.2638855,0.772995
2019-07-01T19:24:20.605Z,0.17523673,-0.051082652,-0.17348911,-0.3196869,1.1392212,9.341827,-8.273315,5.5770874,-37.690735,0.373334,3.5000253,9.153187,-0.6042196,-2.3696887,-0.3814335,0.9182739,0.3723297,0.625473
2019-07-01T19:24:20.800Z,0.25049445,-0.028260853,-0.13113667,0.121795654,2.4746552,7.3825836,-7.10907,-0.7522583,-38.575745,-0.11283721,4.78319,8.5603,0.34944353,-2.07648,-0.992239,0.33172607,0.031036377,0.0806427
2019-07-01T19:24:21.004Z,0.19813772,-0.06857584,-0.15535545,0.7795868,3.0228577,9.686142,-11.36322,-0.5279541,-38.352966,0.6946641,3.9604385,8.944426,0.100889444,-0.8188491,0.9261131,-0.51145935,-0.61579895,0.04244995
2019-07-01T19:24:21.204Z,0.16120812,-0.07521633,-0.1443012,0.7790985,3.6756134,7.1284637,-14.813232,-0.7003784,-36.20758,0.97976243,3.290637,9.185977,-0.24562281,0.40364456,-2.1097345,-0.3452301,0.13269043,0.24685669
2019-07-01T19:24:21.408Z,0.1518066,-0.10676077,-0.13918252,1.2009583,3.7744446,9.283676,-21.347046,-1.6693115,-33.192444,1.6224036,3.1876442,9.131107,-0.23142147,0.61657,0.6623993,0.01939392,-0.4667511,0.34751892
2019-07-01T19:24:21.613Z,0.09820617,-0.17536344,-0.08630875,1.6041412,3.0989532,11.196259,-29.173279,5.9310913,-27.24762,3.1899216,2.1763582,9.014336,-1.5784922,0.78944206,1.8589783,-0.25709534,-0.66192627,1.3724976
2019-07-01T19:24:21.816Z,0.07531736,-0.2334216,-0.023966102,3.8500519,0.6565857,7.4565125,-33.421326,9.490967,-24.536133,4.4015646,1.5413823,8.626746,-0.28337717,-1.001797,-1.3145151,-0.04170227,-0.6664429,0.48191833
2019-07-01T19:24:22.019Z,-0.01363748,-0.39737293,-0.01572756,4.3874817,-1.2454681,5.0280457,-41.82434,24.191284,-8.815002,7.1543984,-0.122810766,6.70596,-2.3742313,-1.7708519,-1.4763646,-1.2737579,-2.077011,1.5161743
2019-07-01T19:24:22.223Z,-0.30870163,-0.503494,0.08298341,8.232269,-8.328934,6.3086853,-30.683899,41.46576,11.766052,7.42427,-5.679488,2.9654734,1.2259817,-2.8930554,3.418093,-1.5725403,-0.9266815,2.198822
2019-07-01T19:24:22.425Z,-0.40901867,-0.36671504,0.10806779,9.425812,-6.7491913,7.4562683,-20.599365,44.796753,7.046509,5.0926147,-7.424318,3.8878233,4.301861,0.94348097,3.42282,-0.26002502,0.98706055,0.5660248
2019-07-01T19:24:22.628Z,-0.4209173,-0.3447871,0.089238055,8.606506,-6.4414825,2.7584534,-15.736389,44.418335,3.5232544,4.9048877,-7.490749,4.000142,3.308989,0.9442425,-1.3299079,0.19654846,0.49298096,-0.023330688
2019-07-01T19:24:22.833Z,-0.44757324,-0.37482154,-0.0143732065,4.0424347,-7.8173523,2.831421,-19.888306,40.525818,9.016418,6.093935,-7.020421,3.1221824,-2.4531107,-0.79295444,-0.39161468,-0.89697266,-0.07989502,-0.8690796
2019-07-01T19:24:23.034Z,-0.5507354,-0.34945697,-0.10023747,3.1759949,-6.201721,2.251175,-9.17511,39.660645,15.272522,6.2324767,-7.428829,1.4625707,-3.5428185,1.0849662,1.0372424,-1.0954437,-0.36045837,1.752655
2019-07-01T19:24:23.236Z,-0.65837246,-0.0555528,0.09373527,7.1605225,-9.198013,1.257431,3.7765503,36.756897,21.173096,-0.39891478,-9.719161,1.2446526,8.213298,-0.52889156,-0.5992416,-0.7561035,2.2351837,1.8787994
2019-07-01T19:24:23.438Z,-0.5637463,-0.043091387,0.035384286,-1.6316681,-11.3293,-1.3576965,2.3971558,41.68701,12.794495,0.30522797,-9.141518,3.536931,-1.6794748,-1.9443741,-4.7933197,1.4541321,-0.13249207,-0.47958374
2019-07-01T19:24:23.642Z,-0.5640666,-0.07607987,0.10461613,0.6441498,-6.497238,2.354065,10.316467,41.523743,7.8292847,0.05953179,-9.178532,3.4527395,0.04451746,2.8612309,-0.8639922,0.2600708,-1.2211151,0.92466736
2019-07-01T19:24:23.843Z,-0.62316483,-0.04961891,0.13362129,-0.16749573,-7.7120667,2.9862366,12.515259,39.3692,12.965393,-0.8847863,-9.528907,2.1418417,-2.9240105,0.36523724,-1.00088,-0.43772888,-0.56565857,-0.12193298
2019-07-01T19:24:24.045Z,-0.68076056,0.039427128,0.06825505,-0.653244,-9.250656,2.9934235,9.596252,36.454773,16.116333,-1.4744936,-9.670818,0.68667215,1.9191722,0.5975132,1.2102294,-0.26820374,2.0325012,0.23908997
2019-07-01T19:24:24.264Z,-0.65644974,0.03074367,0.07684146,-3.0867462,-11.87558,-1.2658081,10.035706,32.80182,20.866394,-1.4414726,-9.607656,1.3362267,0.86353135,-0.9172659,2.0211158,-0.6655731,0.5847931,0.12516785
2019-07-01T19:24:24.461Z,-0.57318395,-0.10585964,0.17541845,-3.0317078,-7.4847565,2.1894379,11.010742,35.0708,9.283447,-0.32475883,-9.283629,3.1431074,-0.39734942,-1.7518797,-3.438847,1.3392944,-0.7976074,-0.034210205
2019-07-01T19:24:24.661Z,-0.5735111,-0.16316015,0.2436157,2.967102,-13.574478,3.9792633,8.731079,34.788513,7.4295044,-0.2924444,-9.38385,2.8334112,-1.2695954,1.7240038,-0.6768198,0.010955811,-1.5380402,-0.22570801
2019-07-01T19:24:24.872Z,-0.5770793,-0.21751866,0.26025048,-3.1657104,-11.868393,0.4139557,11.048889,35.186768,13.381958,0.22387592,-9.519019,2.347028,0.018694729,-2.438282,0.1621151,-0.30119324,-0.653244,0.4781952
2019-07-01T19:24:25.071Z,-0.6259245,-0.15935467,0.24459209,-0.13639832,-9.475586,-1.3088684,16.143799,34.750366,19.274902,-0.7424219,-9.642631,1.6244636,-2.2550225,0.7458143,-0.52836967,-0.4080963,-0.41403198,-0.20262146
2019-07-01T19:24:25.272Z,-0.6821154,-0.10952376,0.21209817,1.7898254,-10.841873,2.9479523,16.529846,31.677246,23.994446,-1.3528112,-9.702662,0.44567642,0.9786452,0.7655201,0.80258393,-0.60235596,0.53189087,0.061401367
2019-07-01T19:24:25.479Z,-0.6433579,-0.08413242,0.18567559,0.117248535,-16.902908,-2.3641052,12.046814,30.358887,24.137878,-1.1252587,-9.617828,1.5496938,0.51693356,-1.0553436,1.8687143,1.6128998,-0.36187744,0.016983032
2019-07-01T19:24:25.667Z,-0.5612508,-0.17277986,0.2762753,-1.8807526,-6.4989014,1.0265198,8.555603,37.672424,9.761047,-0.46304685,-9.311108,3.042899,0.053701192,-1.7562189,-2.9128368,-0.081832886,-1.5520782,-0.06291199
2019-07-01T19:24:25.888Z,-0.5410267,-0.23430423,0.3528125,0.653244,-7.8867493,5.0345,9.744263,35.42328,-0.18310547,-0.40483356,-9.331288,2.988903,-0.6419995,2.4982233,-0.596169,-0.17144775,-0.93003845,0.5041504
2019-07-01T19:24:26.079Z,-0.49293193,-0.29908192,0.3977781,-3.4648132,-10.52124,1.8400879,12.309265,31.968689,-2.6550293,0.3407142,-9.233245,3.286564,0.6992562,-2.5351324,-0.44595027,-0.11047363,-0.5571594,-0.39291382
2019-07-01T19:24:26.286Z,-0.56412023,-0.27936202,0.37670484,1.0959167,-8.8989105,0.04067993,13.68866,32.052612,-1.5609741,-0.4444396,-9.583011,2.0343933,-3.8865204,-1.3818827,-0.034110308,-0.47810364,0.74472046,0.5756836
2019-07-01T19:24:26.477Z,-0.63649577,-0.2563475,0.35367712,0.028717041,-9.655045,1.8089752,18.441772,29.792786,1.7883301,-1.2192123,-9.713744,0.5719055,1.6961775,1.408226,0.76140857,-0.9176178,0.2540741,0.19108582
2019-07-01T19:24:26.813Z,-0.6564802,-0.22708713,0.3104669,-0.5168457,-14.926422,-3.7256317,18.971252,29.858398,7.0632935,-1.1073232,-9.737909,0.34255028,-0.40730488,-0.6008234,3.5353203,1.0795593,0.112472534,-0.0836792
2019-07-01T19:24:27.018Z,-0.5370322,-0.28271505,0.4095398,-2.6847534,-8.6979065,1.3016968,19.596863,31.672668,-5.580139,-0.5367912,-9.4452715,2.5824568,0.69195086,-1.4331131,-3.209391,0.25610352,-1.4873962,-0.14146423
2019-07-01T19:24:27.133Z,-0.47400355,-0.3754037,0.49660158,1.902298,-10.348953,3.500702,18.70575,32.759094,-12.120056,-0.03176778,-9.445713,2.6358843,-1.4814982,1.0343237,-0.6240666,-0.21328735,-1.2228241,0.52381897
2019-07-01T19:24:27.290Z,-0.43114266,-0.4268127,0.5626,-4.381256,-8.961121,-0.59580994,19.355774,31.507874,-14.515686,-0.055899244,-9.458856,2.5879147,1.2645453,-1.8165503,0.547174,-0.12641907,-0.7534332,-0.14776611
2019-07-01T19:24:27.613Z,-0.44158655,-0.47734907,0.5787584,1.174881,-10.334595,-0.39482117,18.493652,32.110596,-15.036011,-0.40522972,-9.680762,1.5129538,-3.131922,0.5354805,-1.1657649,-0.14187622,0.2821045,0.43017578
2019-07-01T19:24:27.818Z,-0.4805067,-0.4383474,0.5674481,-1.3160553,-9.549759,2.967102,21.983337,32.017517,-10.592651,-1.0065964,-9.637347,1.509535,0.39706755,0.6226263,-0.15758824,-0.30847168,0.025665283,0.26457214
2019-07-01T19:24:28.023Z,-0.50306463,-0.4598602,0.5647212,-2.3688965,-10.853836,2.7158508,22.860718,31.477356,-8.850098,-1.3748606,-9.684864,0.69538045,-0.040662646,-0.043480873,1.4200506,-0.4098053,-0.08898926,0.057785034
2019-07-01T19:24:28.228Z,-0.45913246,-0.482309,0.59379596,-1.3710938,-10.533203,1.5026855,22.219849,32.03888,-11.427307,-1.0747961,-9.68421,1.1096301,-0.48004723,-0.8274336,0.8938165,0.8865814,-0.96876526,-0.20243835
2019-07-01T19:24:28.433Z,-0.31297058,-0.5298056,0.68589723,0.110076904,-9.920639,0.7848511,17.67273,29.415894,-22.346497,-0.17373146,-9.511831,2.3801808,-0.59352547,-0.19176674,-2.1272726,0.21473694,-1.320816,-0.26339722
2019-07-01T19:24:28.638Z,-0.23138648,-0.5605118,0.7184486,0.114852905,-8.283951,2.995819,12.365723,30.264282,-26.789856,0.4856565,-9.444716,2.59458,-0.7750877,0.32612896,-0.7696004,-0.12605286,-1.0015106,0.11430359
2019-07-01T19:24:28.843Z,-0.13606963,-0.6333408,0.7500191,-1.8807526,-11.188843,1.0169525,9.268188,29.47998,-27.726746,-0.34267208,-9.673082,1.5762137,-0.76667786,-0.9635439,-0.47096074,-0.14450073,-1.0418854,0.47384644
2019-07-01T19:24:29.048Z,-0.1044061,-0.646756,0.75423545,-1.8903351,-9.126221,1.4285126,7.029724,30.072021,-28.874207,-0.98649186,-9.657568,1.3887407,-1.3438221,0.6623621,0.40583563,-0.32862854,-1.108963,0.5888214
2019-07-01T19:24:29.254Z,0.04608498,0.6729982,-0.73661435,-2.2372894,-9.095123,0.7010956,6.4956665,30.691528,-28.80249,-1.3055438,-9.679293,0.8816107,-0.8430518,0.27199173,0.045645475,-0.23925781,-0.7425537,0.31098938
2019-07-01T19:24:29.459Z,-0.0086718025,0.6875068,-0.72392666,-1.076767,-8.231308,0.8422699,1.4556885,32.743835,-26.365662,-0.63839304,-9.771234,0.5346428,-0.72054696,-0.23774433,0.06303543,-0.29281616,-0.6205597,0.10739136
2019-07-01T19:24:29.663Z,-0.040670104,0.69453657,-0.712375,-0.9954071,-8.961121,-0.03111267,-1.4724731,33.784485,-25.881958,-0.6866826,-9.777567,0.31312507,-0.504344,-0.09621048,-0.10033092,-0.20315552,-0.38850403,-0.35057068
2019-07-01T19:24:29.894Z,-0.05911376,0.6958938,-0.7088707,-0.68673706,-10.585846,-1.7204437,-5.0750732,34.124756,-25.514221,-0.52511835,-9.7896385,0.24001405,-0.606863,0.4770193,-0.25291353,-0.08860779,-0.46351624,0.026031494
2019-07-01T19:24:30.073Z,-0.013518428,0.70535004,-0.7068954,-0.18664551,-7.515854,-0.052642822,-4.458618,33.36029,-24.94049,-0.5176443,-9.792875,0.04508328,-0.15515131,-0.17490387,-0.14595293,-0.0970459,0.3552246,-0.05973816
2019-07-01T19:24:30.278Z,-0.0076805013,0.69129837,-0.7210697,-0.28474426,-9.992432,1.1772614,-1.2161255,34.017944,-25.390625,-0.51360965,-9.78364,0.43242577,0.26270717,-0.13629818,-0.37841552,0.17393494,-0.007751465,0.02230835
2019-07-01T19:24:30.396Z,-0.010548046,0.6861118,-0.72561365,-1.8209381,-13.241882,0.68434143,-1.58844,33.129883,-26.843262,-0.53923154,-9.775121,0.5715177,0.1425435,-0.1258936,-0.11992246,0.19158936,-0.08026123,0.13647461
2019-07-01T19:24:30.594Z,0.029979575,0.64316964,-0.74461234,-1.036087,-8.714661,1.8568268,-1.651001,31.666565,-26.759338,-2.6583915,-9.28954,1.6756432,1.6903284,-3.0000706,-0.85221684,1.5347748,-1.1073761,2.439209
2019-07-01T19:24:30.809Z,0.15474945,0.4684797,-0.7864654,5.458023,-7.1497498,-3.1920319,4.5776367,24.630737,-34.33838,-5.801028,-6.098667,5.0323687,3.181508,-1.1361732,-1.9203176,0.7922058,-0.70726013,1.5265656
2019-07-01T19:24:31.000Z,-0.11339945,0.48517528,-0.78166705,0.44506836,-25.35196,17.582458,-22.4823,17.617798,-29.444885,-1.8314084,-8.2726555,4.93756,5.4406643,0.9130535,2.2951221,-2.179123,-2.248291,-3.907486
2019-07-01T19:24:31.202Z,0.3103729,-0.248199,0.9082179,-0.27038574,-0.61735535,-0.06939697,-13.415527,-24.62616,-31.84967,6.1672664,-3.622703,6.709042,-3.6734295,-17.111284,6.527645,2.792984,1.6518555,-6.163742
2019-07-01T19:24:31.402Z,0.17421617,0.12494561,0.89776945,6.336197,0.7513428,4.405182,8.343506,-31.967163,-26.911926,2.1247232,3.5148087,8.90517,-3.674135,-2.782376,-7.011363,0.33929443,3.0162354,-1.1938782
2019-07-01T19:24:31.609Z,0.1831043,0.09818961,0.9262066,5.6973114,-0.76330566,18.61377,4.916382,-30.63507,-30.50232,2.7204037,2.9135249,8.959975,0.55428624,-2.021736,-2.367384,-0.051651,-0.954422,0.08143616
2019-07-01T19:24:31.806Z,0.14164686,-0.007128948,0.9282568,2.297104,2.3282166,9.054443,4.374695,-27.960205,-32.351685,2.6269243,0.82544696,9.412135,0.18195224,2.0987616,1.7279196,-0.56088257,-0.25827026,0.011917114
2019-07-01T19:24:32.004Z,0.19112304,-0.04156298,0.9105169,1.6462555,2.6153564,9.439682,3.1723022,-25.692749,-34.106445,3.7100818,0.6232993,9.056334,0.008436918,1.5146077,0.4895153,-0.31004333,-0.5484314,-0.6076813
2019-07-01T19:24:32.200Z,0.19212052,-0.040661205,0.881269,1.1868439,2.8666077,8.161911,5.418396,-24.012756,-34.083557,3.6635592,0.9170462,9.050291,-1.5424027,1.6996679,1.1505632,-0.06863403,0.050704956,-0.65185547
2019-07-01T19:24:32.387Z,0.20521079,-0.031155506,0.86968225,1.5050812,0.8829498,12.579071,5.508423,-23.864746,-33.753967,3.7740147,1.2711086,8.961667,-2.2441857,1.2233049,0.45227528,-0.33576965,0.010269165,0.043319702
2019-07-01T19:24:32.587Z,0.1960574,-0.03846436,0.8751042,3.620346,1.4596252,9.320038,3.767395,-21.356201,-33.851624,3.6975863,1.0347017,9.023726,-1.4710147,0.28202158,1.3300228,0.06752014,0.13562012,0.15327454
2019-07-01T19:24:32.838Z,0.13311541,-0.05230893,0.89259446,0.9260254,2.1176453,10.82753,6.4468384,-18.991089,-33.631897,2.7690842,0.20056497,9.405442,0.24352312,1.7122988,-0.33538723,-0.5927582,0.3466797,0.19651794
2019-07-01T19:24:33.018Z,0.1071015,-0.06712488,0.9015718,1.8879395,-0.18664551,8.851059,8.494568,-17.285156,-38.57727,2.4385772,-0.31781986,9.493299,-0.90720654,2.509963,1.3447104,0.026779175,0.21154785,0.30525208
2019-07-01T19:24:33.223Z,0.030779887,-0.026990691,0.94067335,-1.5433655,0.89730835,12.483353,10.116577,-20.904541,-37.41913,0.7461925,-0.29462475,9.773781,-0.7313739,0.86463183,-0.26462746,0.33868408,1.0468597,0.9246216
2019-07-01T19:24:33.546Z,-0.008309808,0.036260605,0.9648818,-0.17945862,1.2610168,8.312668,10.966492,-25.8255,-34.831238,-0.3421948,0.64383286,9.779508,-0.65718496,0.2888469,1.2799892,0.4072876,-0.042755127,0.9013977
2019-07-01T19:24:33.751Z,0.008335179,0.08713561,0.9846821,0.124420166,1.2059784,8.1427765,4.840088,-30.342102,-31.422424,-0.09673464,1.7074903,9.656371,-0.6296826,-0.679124,-0.20980358,0.20942688,0.42041016,1.3403015
2019-07-01T19:24:33.964Z,0.01174245,-0.048474427,-0.9981349,-0.28234863,2.5076752,8.8367,-2.4414062,-29.135132,-33.218384,-0.19641228,0.9570771,9.757858,-1.2679791,-0.26344156,0.5195465,-0.1924591,0.51600647,1.4891815
2019-07-01T19:24:34.161Z,0.04166152,-0.04906113,-0.9815369,-0.447464,2.5770721,10.1814575,-4.7592163,-28.779602,-33.125305,-0.6287143,1.0916629,9.725399,0.10696429,1.7453549,0.14029217,-0.023864746,0.14717102,0.845932
2019-07-01T19:24:34.366Z,0.02513923,-0.065353945,-0.97675556,0.19142151,1.7132568,9.114258,-9.074402,-26.449585,-32.24945,-0.22191222,1.3519049,9.7104845,-0.21313927,0.89436984,0.5688553,-0.04762268,-0.24555969,0.23310852
2019-07-01T19:24:34.571Z,0.011821374,-0.070236996,-0.96650857,0.87338257,1.6486511,8.322235,-12.513733,-26.022339,-31.944275,0.115554824,1.3886069,9.707152,0.18124162,-0.07845664,0.13512707,-0.08641052,-0.11752319,0.2800293
2019-07-01T19:24:34.776Z,0.04842686,-0.081753075,-0.9530258,0.2679901,2.292328,8.425125,-12.785339,-25.177002,-30.477905,-0.44404447,1.8012911,9.629566,0.8985363,0.089138865,0.18106365,0.20362854,0.06488037,0.40097046
2019-07-01T19:24:34.981Z,0.027870843,-0.08571717,-0.9299906,0.5264282,3.1274261,9.095123,-14.360046,-24.253845,-31.434631,0.09074394,1.758298,9.647307,0.5513017,1.082847,-0.33686352,0.1545105,0.2402649,0.58351135
2019-07-01T19:24:35.186Z,0.049451206,-0.07768709,-0.9043345,-0.059814453,3.275772,9.454041,-17.778015,-21.57135,-30.595398,-0.24208058,1.782162,9.640316,1.1510379,1.58449,-0.5128164,-0.05189514,0.013153076,0.6274872
2019-07-01T19:24:35.391Z,0.09457667,-0.08004937,-0.8778202,-0.51924133,2.0410767,11.452057,-18.431091,-19.859314,-31.35376,-0.90188867,2.236472,9.505534,0.53600794,0.77288485,0.5704813,-0.054336548,0.25167847,0.6037903
2019-07-01T19:24:35.597Z,0.11890962,-0.061418667,-0.8402826,-0.04307556,1.4763641,9.786652,-16.958618,-17.279053,-32.173157,-1.3268433,2.2374961,9.455341,0.42852747,-0.13822508,0.80718136,0.22158813,0.45033264,0.45735168
2019-07-01T19:24:35.801Z,0.118109286,-0.059756633,-0.8230714,-0.94277954,3.534195,8.362915,-16.877747,-16.888428,-34.361267,-1.2593489,2.244065,9.463013,1.0213163,0.3792026,-1.0252981,-0.103271484,0.333786,0.6399536
2019-07-01T19:24:35.861Z,0.12251568,-0.037705507,-0.8023278,-0.22970581,2.1559296,11.315659,-16.835022,-13.9678955,-35.04944,-1.4968295,1.9941527,9.484368,0.64113736,1.2497736,0.20487118,-0.10217285,0.102264404,0.17526245
2019-07-01T19:24:36.064Z,0.104869395,-0.07201138,-0.83433676,0.70588684,0.15792847,13.450058,-16.358948,-14.457703,-33.207703,-0.9585261,2.2816377,9.4892435,1.9124708,-0.018388271,0.17314911,-0.083480835,0.042648315,-0.006652832
2019-07-01T19:24:36.267Z,0.15216137,0.023411484,-0.8887844,-3.6179504,1.8352966,9.107086,-12.799072,-15.596008,-34.565735,-2.8507009,0.88023794,9.341792,2.0577738,-0.49827647,1.8646002,-0.1694336,-0.118133545,-0.81056213
2019-07-01T19:24:36.471Z,0.22142747,0.056000777,-0.8878137,-4.175476,1.529007,8.724228,0.54473877,-14.889526,-39.726257,-4.29453,0.7599699,8.783499,-0.084022045,1.2614486,-0.6304693,0.19122314,0.17245483,-0.6252136
2019-07-01T19:24:36.669Z,0.24305515,0.03140928,-0.8888081,-4.709076,3.3188477,10.29631,3.7353516,-15.78064,-38.22632,-4.475607,1.2984946,8.62863,-0.00090169907,0.53552043,0.3469963,0.33648682,0.08834839,0.09437561
2019-07-01T19:24:36.872Z,0.25745878,0.02674784,-0.8728188,-3.156128,0.91166687,8.609375,6.3949585,-17.875671,-36.64856,-4.6244574,1.6313723,8.49255,-0.6546216,0.46485114,2.890853,0.31877136,0.18943787,0.5791626
2019-07-01T19:24:37.073Z,0.2957726,-0.06544739,-0.8562299,-5.0536346,1.5505524,4.228119,3.6697388,-24.835205,-36.972046,-4.4299088,3.5265865,8.00684,1.4221416,-2.6382296,0.32122898,0.767395,0.00074768066,0.43292236
2019-07-01T19:24:37.278Z,0.28596315,-0.075091384,-0.8368002,-2.7350006,5.0201416,8.867798,1.1901855,-28.894043,-33.091736,-4.0146594,3.8170033,8.09218,0.08002186,-1.1455164,-2.8761616,-0.5000305,0.16751099,0.054733276
2019-07-01T19:24:37.489Z,0.2793903,-0.032244157,-0.8475197,-2.4143524,4.811966,10.320251,1.4724731,-27.546692,-35.24475,-4.359545,3.0025585,8.255265,1.2483382,2.2671304,1.2899504,-0.19154358,-0.23272705,-0.19786072
2019-07-01T19:24:37.687Z,0.20967513,-0.04711129,-0.8845841,-3.3882294,1.282547,8.695511,-3.8604736,-28.196716,-34.62982,-3.2553196,2.519566,8.9008465,0.5380757,1.0682914,2.0698662,0.08157349,-0.47157288,-0.73439026
2019-07-01T19:24:37.891Z,0.20776662,-0.075500585,-0.920882,-2.5962067,2.1918182,7.0827484,-3.6132812,-32.514954,-30.386353,-3.2770853,2.6721597,8.848201,-0.3469422,-1.4393218,-0.2685442,0.36270142,-0.31526184,-0.7690735
2019-07-01T19:24:38.091Z,0.19151635,-0.08017035,-0.9511726,-3.012558,3.0341034,7.130615,-0.43182373,-35.525513,-28.41034,-3.213727,2.3535466,8.961203,0.42761636,0.2550366,-1.2199831,0.03955078,-0.12411499,-0.9940033
2019-07-01T19:24:38.292Z,0.22499505,-0.060953766,-0.95814925,-5.419739,3.098709,9.982849,6.263733,-33.485413,-27.212524,-4.029557,1.8787552,8.7409,0.3408389,1.4582459,-0.5235033,-0.16349792,0.18455505,-0.29333496
2019-07-01T19:24:38.499Z,0.16203369,-0.0567553,-0.9725452,-2.5914307,0.9523468,9.1453705,7.711792,-28.144836,-26.637268,-2.9158888,1.5818571,9.228527,-1.5378921,0.58495975,2.8288088,0.28346252,-0.8622894,-0.20646667
2019-07-01T19:24:38.699Z,0.10843245,-0.1295009,-0.9804165,-2.050644,1.7371826,7.223938,1.8661499,-29.26178,-26.92566,-1.8278519,2.7055697,9.24712,-0.6505997,-1.6378927,-0.8460407,0.4753418,-0.5010834,-0.4650421
2019-07-01T19:24:38.912Z,0.12633824,-0.13390368,-0.9811537,-2.3234253,3.775879,8.736191,0.20904541,-30.166626,-28.022766,-2.277045,2.7222526,9.141925,0.3253343,-0.05213642,-1.0287094,0.21107483,0.12719727,-0.334198
2019-07-01T19:24:39.104Z,0.13504401,-0.14567451,-0.9797197,-3.661026,3.0460663,12.385254,1.8096924,-32.781982,-24.69635,-2.5198183,2.868857,9.03275,-0.019254684,0.8318286,0.11594868,-0.2722931,-0.038467407,-0.46296692
2019-07-01T19:24:39.304Z,0.11610915,-0.14384165,-0.98270303,-0.18902588,-0.20817566,0.36131287,3.968811,-34.53064,-27.801514,-2.206607,2.7976656,9.136429,-1.025058,-0.9123061,2.6046743,0.694397,-1.2447662,0.15124512
2019-07-01T19:24:39.530Z,-0.03880425,-0.15822808,-0.9865302,3.7112732,1.2921295,14.715866,-3.3340454,-36.346436,-25.532532,0.7964752,3.0503786,9.286077,-2.849513,-0.8900449,-5.360243,-1.6409607,-0.13591003,0.7250366
2019-07-01T19:24:39.714Z,-0.017825684,-0.0431771,-0.9943151,2.9072723,3.3475647,10.485352,-2.798462,-28.155518,-33.47473,0.4286627,0.808578,9.763853,2.2843165,1.3807006,2.5878782,0.352005,-0.70614624,0.12561035
2019-07-01T19:24:39.925Z,-0.1414328,-0.06452308,-0.98579586,1.4811554,0.47138977,8.190628,-6.7840576,-29.45404,-31.915283,2.8150005,1.0712171,9.332666,-0.37813163,0.5043386,2.5742416,0.100753784,-0.4966278,-0.16828918
2019-07-01T19:24:40.129Z,-0.18063596,-0.102169916,-0.97675836,2.7493591,1.0265198,7.6043854,-10.475159,-29.873657,-28.225708,3.567973,1.7673484,8.961944,-1.5020618,-1.2220114,-0.47807884,0.08934021,-0.59265137,-0.29504395
2019-07-01T19:24:40.322Z,0.12185419,0.10544943,0.9865559,1.3375854,2.531601,7.869995,-6.2713623,-31.347656,-27.714539,2.3015907,2.105397,9.297332,-0.27859807,1.1057274,0.15283775,0.2066803,0.1880951,-0.5917511
2019-07-01T19:24:40.530Z,0.049128693,0.1068265,0.9928584,1.3495483,0.16989136,13.351944,-1.2115479,-31.214905,-29.707336,0.91444194,2.0996885,9.535486,-0.25689334,-0.51368,0.10343075,-0.32844543,0.8299408,0.08900452
2019-07-01T19:24:40.747Z,-0.0074791634,-0.108056605,-0.9930223,-1.799408,2.6823578,7.4249268,3.3981323,-30.690002,-29.638672,0.24449718,2.097718,9.576544,-0.50922245,0.15716934,-0.9017544,0.079071045,0.4946289,0.11013794
2019-07-01T19:24:40.930Z,-0.039914187,-0.07708487,-0.98812336,0.84706116,2.5459595,7.6163483,5.180359,-32.40204,-28.851318,0.9652515,1.3946712,9.65886,0.85014886,1.0629784,-0.18237305,0.10258484,0.1736145,1.0260773
2019-07-01T19:24:41.150Z,-0.12147477,-0.07167864,-0.9805854,3.316452,1.7132568,12.038284,3.4973145,-31.915283,-30.722046,2.5277834,1.0539923,9.416464,-0.03518629,-0.3901577,1.1630783,-0.7236023,-0.27641296,0.81318665
2019-07-01T19:24:41.336Z,-0.17719342,-0.046480462,-0.98117036,2.5220337,-0.55513,8.563919,0.5584717,-28.585815,-34.153748,3.4657109,0.6817384,9.148469,0.25440478,-1.442844,-0.4414692,0.1252594,-1.11409,-0.009460449
2019-07-01T19:24:41.537Z,0.17615294,0.015750082,0.9824725,2.2660065,0.73220825,7.2646027,-1.2329102,-24.737549,-37.828064,3.3761873,0.5070133,9.193187,-0.65697,0.72254133,-0.33740044,-0.36930847,-0.03590393,-0.73223877
2019-07-01T19:24:41.745Z,0.20471942,-0.022789543,0.9702669,3.4648132,-0.46899414,10.853836,0.9048462,-19.316101,-41.79535,3.9526467,0.07662129,8.97447,-0.26326847,0.8376107,2.5948238,-0.3324585,-0.16914368,-0.8390198
2019-07-01T19:24:41.950Z,0.1822968,0.024517342,0.9764954,2.3784637,0.51924133,5.967697,-1.6586304,-15.4800415,-41.438293,3.4373748,0.87128145,9.143069,-0.55603385,-0.8055948,-0.7257757,-0.27339172,-0.098342896,-0.26608276
2019-07-01T19:24:42.154Z,0.08933614,-0.022375157,0.98866487,1.9716797,1.2753754,11.327621,-0.25634766,-18.681335,-39.653015,1.7843527,-0.22611059,9.640299,0.4763031,0.9185698,-1.1128569,0.29641724,0.46611023,0.24758911
2019-07-01T19:24:42.365Z,0.1074256,0.042323045,0.9874051,5.2498474,2.1918182,11.954544,4.9453735,-15.335083,-41.29944,1.9906465,1.0475397,9.545176,0.38473928,1.1766471,1.2322674,-0.22361755,0.9986572,0.36824036
2019-07-01T19:24:42.568Z,0.16922767,0.084217116,0.97555524,2.847458,-0.007171631,8.709869,-1.3549805,-22.050476,-37.72888,3.0528507,1.9833978,9.105857,0.033439875,-1.0960817,0.80733585,0.50808716,-1.009018,0.068725586
2019-07-01T19:24:42.762Z,0.1495183,0.07221319,0.97697425,2.2037964,2.5651093,7.664215,-7.6660156,-27.389526,-33.044434,2.675261,1.7766316,9.2659025,-0.5455942,-0.85143447,-1.1763287,0.3559723,-0.16957092,-0.24293518
2019-07-01T19:24:42.963Z,0.15939325,0.06795297,0.9708149,3.9625092,2.1750793,11.368301,-6.2454224,-27.876282,-33.43048,2.8139932,1.8122602,9.217784,-0.3650229,0.7983905,-0.1041193,-0.25378418,-0.55784607,-0.4638214
2019-07-01T19:24:43.167Z,0.19131123,0.0450801,0.95837903,3.4456635,1.7443695,4.795212,-8.050537,-27.131653,-32.069397,3.4129887,1.6243417,9.048945,0.89506865,-0.62346995,2.5871296,0.1943512,-0.45918274,-0.5724945
2019-07-01T19:24:43.364Z,0.18119027,0.032367915,0.94435275,1.7348022,2.0075836,7.984848,-7.800293,-29.096985,-30.36499,3.1829143,1.5683259,9.142199,-0.2343638,-0.22687721,-2.821928,-0.6802368,-0.08795166,-0.59143066
2019-07-01T19:24:43.584Z,0.18173592,-0.0021299128,0.9419066,2.995819,2.273178,12.279968,-4.336548,-26.660156,-32.881165,3.36917,0.9674381,9.158774,-0.30714774,0.93287796,0.03785801,0.08181763,0.38052368,0.23731995
2019-07-01T19:24:43.774Z,0.25506744,0.052257493,0.937154,3.0604248,2.268402,5.50589,-5.882263,-25.384521,-31.95343,4.4502444,2.1225386,8.477059,0.44838142,0.35581374,3.5112667,1.0014191,-1.0794525,-0.037200928
2019-07-01T19:24:43.981Z,0.29233631,0.098802,0.9225783,2.321045,1.9333954,5.1517487,-12.06665,-29.849243,-26.341248,4.8410153,3.1155794,7.9390254,-0.1822977,-1.1439624,-1.1366444,-0.115493774,0.5328064,-0.31123352