rotationVector_x,rotationVector_y,rotationVector_z,accelerometer_x,accelerometer_y,accelerometer_z,magneticField_x,magneticField_y,magneticField_z,gravity_x,gravity_y,gravity_z,linearAcceleration_x,linearAcceleration_y,linearAcceleration_z,gyroscope_x,gyroscope_y,gyroscope_z
-0.012226222,0.0037926747,-0.20283255,-0.024414062,-0.2498169,9.805069,-5.383301,15.458679,-43.62793,-0.024195848,-0.24988002,9.803435,-0.00019982643,-0.0013388842,0.0010824203,0.00035095215,-1.5258789e-05,-0.0002746582
-0.012222846,0.003785532,-0.2028124,-0.025360107,-0.25100708,9.800995,-5.091858,16.57257,-43.56537,-0.02407725,-0.24978629,9.803438,0.0003839694,-0.00046610832,0.0004014969,4.5776367e-05,0.00010681152,-0.000289917
-0.012227435,0.0038170728,-0.2028958,-0.024169922,-0.24838257,9.803635,-5.847168,16.01715,-44.326782,-0.024643406,-0.25000197,9.803432,-0.0012049396,-0.0005316436,-0.0029277802,0.00022888184,-1.5258789e-05,-3.0517578e-05
-0.012191308,0.003799216,-0.20283063,-0.022979736,-0.25100708,9.803162,-5.924988,15.936279,-43.885803,-0.024460876,-0.2492356,9.803452,0.00076512806,0.0008647591,0.00091171265,-1.5258789e-05,4.5776367e-05,-3.0517578e-05
-0.012212645,0.0037934643,-0.2028273,-0.023925781,-0.24717712,9.803879,-4.711914,16.085815,-43.603516,-0.024266373,-0.24962236,9.803443,0.00056902505,-0.0009163171,-0.0013055801,0.00022888184,-7.6293945e-05,-3.0517578e-05
-0.012182041,0.0037620543,-0.20273031,-0.023925781,-0.25100708,9.8033905,-4.7714233,14.924622,-44.59381,-0.023809616,-0.24890745,9.803462,0.0006010253,0.00076930225,0.00040531158,0.00016784668,0.00010681152,-0.000289917
-0.012198825,0.0037835941,-0.20279457,-0.024887085,-0.2534027,9.802444,-5.1986694,15.829468,-42.729187,-0.024140151,-0.24931693,9.803451,-0.00025864318,-0.0019342005,-6.389618e-05,0.00010681152,0.00016784668,3.0517578e-05
-0.0122476425,0.0038152663,-0.20290199,-0.026321411,-0.25219727,9.801956,-4.8599243,16.52069,-44.56787,-0.024526695,-0.25038293,9.803423,-0.00060489215,-0.0025351942,-0.00036144257,0.00022888184,-7.6293945e-05,-0.00015258789
-0.012253999,0.0038433205,-0.2029774,-0.027038574,-0.24909973,9.805313,-6.234741,16.127014,-43.229675,-0.02502083,-0.25061852,9.803415,-0.0010570809,-0.0011121333,-0.00024700165,0.00010681152,4.5776367e-05,-0.00016784668
-0.012218772,0.0038874394,-0.20307173,-0.025848389,-0.24909973,9.806503,-6.2026978,15.41748,-45.414734,-0.025984226,-0.25012025,9.803426,-0.0015267935,0.0007971823,0.00095272064,4.5776367e-05,0.00010681152,9.1552734e-05
-0.012186616,0.0038765136,-0.20302646,-0.023452759,-0.24861145,9.805069,-5.453491,15.750122,-44.09485,-0.02591406,-0.24945812,9.803442,0.0005565956,0.00087212026,0.0015878677,4.5776367e-05,4.5776367e-05,0.00015258789
-0.012166313,0.0038411038,-0.20292473,-0.024169922,-0.24932861,9.8033905,-4.5028687,15.525818,-44.633484,-0.025340816,-0.2489247,9.803457,0.00021249615,0.001058951,1.4305115e-05,4.5776367e-05,4.5776367e-05,3.0517578e-05
-0.012209984,0.003811924,-0.20287324,-0.023925781,-0.25028992,9.804108,-5.5999756,15.953064,-43.36853,-0.024619745,-0.24964581,9.803441,0.0014121998,-0.0013503879,-0.0014238358,4.5776367e-05,4.5776367e-05,9.1552734e-05
-0.012200039,0.0038176177,-0.20288253,-0.024642944,-0.25076294,9.801727,-4.463196,14.807129,-45.684814,-0.024766294,-0.24947776,9.803445,-0.00011970848,0.00016002357,5.722046e-06,-1.5258789e-05,-1.5258789e-05,-3.0517578e-05
-0.012230101,0.003829439,-0.20292896,-0.025604248,-0.24908447,9.8022,-4.6325684,16.168213,-44.270325,-0.024861794,-0.2501032,9.80343,-2.59839e-05,-0.0011549592,-0.0014295578,4.5776367e-05,0.00010681152,-9.1552734e-05
-0.012175984,0.003833778,-0.20291111,-0.024398804,-0.24909973,9.801483,-4.6936035,16.601562,-44.104004,-0.025165102,-0.24908091,9.803454,-0.00019637309,0.0016461313,-0.00047779083,0.00010681152,0.00016784668,-9.1552734e-05
-0.0122050205,0.0038252864,-0.20290488,-0.024642944,-0.25100708,9.806503,-4.232788,16.049194,-44.007874,-0.02488804,-0.2496045,9.803442,0.0009595249,-0.0014300197,-0.0011253357,0.00010681152,-1.5258789e-05,-9.1552734e-05
-0.012213496,0.00382164,-0.20290005,-0.023925781,-0.25053406,9.803162,-5.3710938,15.753174,-43.945312,-0.024785513,-0.24975258,9.803438,0.00014295802,-0.0010064542,0.0024385452,0.00016784668,4.5776367e-05,0.00015258789
-0.012204656,0.0038160125,-0.20288089,-0.025131226,-0.24861145,9.803162,-6.1660767,15.916443,-43.50128,-0.024717515,-0.24955998,9.803443,0.0003036838,-0.0007275939,-0.00014400482,0.00016784668,-7.6293945e-05,-9.1552734e-05
-0.012179776,0.0038214542,-0.20288152,-0.024169922,-0.24885559,9.802444,-5.859375,15.724182,-44.233704,-0.024920875,-0.24910395,9.803454,-0.0006834902,0.001208514,-0.00024700165,4.5776367e-05,4.5776367e-05,9.1552734e-05
-0.0121813705,0.0037985353,-0.20282356,-0.0236969,-0.25053406,9.801483,-6.1187744,15.341187,-44.300842,-0.02448915,-0.24904193,9.803457,0.0008071922,-0.000289917,-0.00016880035,0.00010681152,-7.6293945e-05,0.00021362305
-0.0122087905,0.0037807715,-0.20279266,-0.022018433,-0.24717712,9.805542,-6.4483643,15.023804,-43.597412,-0.024046786,-0.249497,9.803446,0.0010652579,-0.0010556579,-0.0012331009,4.5776367e-05,0.00010681152,-0.00035095215
-0.012164475,0.0037629993,-0.20272334,-0.02583313,-0.25076294,9.803879,-5.0491333,15.774536,-43.954468,-0.023899395,-0.24857375,9.803471,0.0004467182,0.0013974607,0.0015649796,0.00016784668,-7.6293945e-05,-3.0517578e-05
-0.012196937,0.0037739582,-0.20276883,-0.022735596,-0.24932861,9.803879,-5.709839,15.516663,-44.50836,-0.023969173,-0.24924172,9.803453,-0.00067314506,-0.0017588586,0.00039863586,-1.5258789e-05,-7.6293945e-05,3.0517578e-05
-0.012205148,0.0037653046,-0.20275103,-0.022964478,-0.24861145,9.805313,-4.689026,16.749573,-44.226074,-0.02377486,-0.24936455,9.803451,0.00056700036,4.389882e-05,0.00011539459,4.5776367e-05,4.5776367e-05,-3.0517578e-05
-0.012170827,0.003750622,-0.20269498,-0.02607727,-0.24813843,9.801239,-5.54657,15.524292,-44.06128,-0.023643639,-0.24864581,9.803469,0.00019265153,0.0007701665,0.0008649826,0.00022888184,-0.0001373291,-9.1552734e-05
-0.012160889,0.0037866998,-0.20278223,-0.024414062,-0.24885559,9.803162,-4.9346924,14.839172,-44.67926,-0.024353854,-0.24860056,9.803469,-0.0017242283,-0.0007363558,-0.002146721,4.5776367e-05,4.5776367e-05,-9.1552734e-05
-0.0121526485,0.003772155,-0.2027405,-0.025360107,-0.24813843,9.802429,-5.128479,15.843201,-44.088745,-0.024117904,-0.24838346,9.803474,0.00042078458,0.0007157773,0.0004940033,-1.5258789e-05,-7.6293945e-05,7.6293945e-05
-0.012150078,0.003788402,-0.20278081,-0.025848389,-0.24861145,9.805069,-5.557251,15.155029,-43.75763,-0.02442991,-0.2483997,9.803473,-0.00093000755,1.9058585e-05,0.00032901764,-1.5258789e-05,-7.6293945e-05,-0.00015258789
-0.012145768,0.0038119317,-0.20283888,-0.024642944,-0.24836731,9.805069,-5.3100586,15.394592,-44.096375,-0.024884187,-0.24841197,9.803472,-0.00096413493,-0.00019879639,-0.0001077652,0.00010681152,0.00010681152,-0.00016784668
-0.01214111,0.0038137196,-0.20284097,-0.024887085,-0.25053406,9.805069,-6.0028076,16.229248,-44.880676,-0.02493652,-0.24832971,9.803473,-0.00019370951,-2.7671456e-05,0.0007305145,-7.6293945e-05,-0.00012207031,1.5258789e-05
-0.012192547,0.0038104139,-0.20286003,-0.027526855,-0.24861145,9.803635,-5.19104,16.278076,-44.073486,-0.024663504,-0.2493047,9.80345,2.3011118e-05,-0.0019217432,0.0011177063,-1.5258789e-05,-1.5258789e-05,-3.0517578e-05
-0.01214785,0.0038507166,-0.2029395,-0.024169922,-0.24765015,9.803146,-4.942322,16.442871,-44.425964,-0.025595168,-0.24860889,9.803466,-0.0016848911,0.0012134165,0.000113487244,0.00016784668,4.5776367e-05,-3.0517578e-05
-0.012149659,0.0038288708,-0.20288442,-0.025360107,-0.24909973,9.805786,-6.335449,15.913391,-44.630432,-0.025182432,-0.24855526,9.803468,0.0010137782,-4.3675303e-05,-0.0010442734,-1.5258789e-05,4.5776367e-05,0.00015258789
-0.012160866,0.0038418246,-0.20292366,-0.025604248,-0.24909973,9.804108,-5.673218,16.244507,-43.984985,-0.025376614,-0.24882297,9.80346,1.835078e-05,-0.0004875511,0.0004234314,-7.6293945e-05,0.00010681152,-9.1552734e-05
-0.012143864,0.0038873537,-0.20303135,-0.025131226,-0.24885559,9.800522,-5.618286,15.740967,-44.467163,-0.026291257,-0.24868058,9.803461,-0.0014628731,0.00055734813,-0.0001821518,-0.0001373291,-1.5258789e-05,-3.0517578e-05
-0.012155362,0.0038763864,-0.20300938,-0.027038574,-0.24909973,9.802444,-6.524658,15.092468,-43.73169,-0.026040439,-0.2488571,9.803457,0.0006792154,-9.164214e-06,-0.0020418167,0.00010681152,0.00010681152,3.0517578e-05
-0.012146561,0.0038869444,-0.20303175,-0.025131226,-0.24932861,9.8029175,-5.4138184,16.551208,-43.556213,-0.026272546,-0.24873073,9.803459,-5.072169e-05,-0.0008596033,-0.00056648254,0.00016784668,0.00010681152,-9.1552734e-05
-0.012134719,0.0038793623,-0.20300595,-0.025131226,-0.24861145,9.803879,-5.0613403,15.634155,-44.73877,-0.026180668,-0.2484725,9.803467,0.0008194726,9.486079e-05,0.0005750656,4.5776367e-05,0.00022888184,-9.1552734e-05
-0.012152753,0.0038715045,-0.20299545,-0.021774292,-0.25100708,9.799332,-4.423523,15.52887,-44.483948,-0.025960624,-0.24878721,9.80346,0.0010721423,-0.00079895556,-0.00025844574,0.00016784668,-1.5258789e-05,-0.00015258789
-0.0121860625,0.0038111939,-0.20285857,-0.022735596,-0.25004578,9.802673,-5.418396,16.55426,-44.08264,-0.024704665,-0.24918327,9.803453,0.0026825164,-0.0016171634,-0.0019292831,0.000289917,0.00010681152,-3.0517578e-05
-0.012189361,0.0037757866,-0.20276947,-0.026794434,-0.24932861,9.803635,-6.2072754,15.116882,-44.267273,-0.024034256,-0.24910358,9.803457,0.0012956169,-0.0005007088,0.00045776367,-1.5258789e-05,4.5776367e-05,9.1552734e-05
-0.012192867,0.003824623,-0.20289667,-0.02607727,-0.24909973,9.8029175,-4.9697876,15.782166,-44.10858,-0.024925774,-0.24936828,9.803448,-0.0013983846,-0.0004760772,0.00030612946,0.00016784668,-7.6293945e-05,-0.00022888184
-0.012183858,0.0038307398,-0.20290753,-0.025604248,-0.25100708,9.804108,-5.1742554,16.4917,-43.351746,-0.025076326,-0.24921994,9.803452,-0.0012471657,-0.0003734976,0.0005235672,-1.5258789e-05,-7.6293945e-05,3.0517578e-05
-0.012191731,0.0038447904,-0.2029478,-0.024642944,-0.24717712,9.800522,-6.0195923,15.864563,-44.95392,-0.025304548,-0.24942802,9.803445,-5.6378543e-05,-0.00038169324,0.0009803772,0.00010681152,4.5776367e-05,-0.00016784668
-0.012181863,0.0038384092,-0.20292614,-0.02607727,-0.25172424,9.802673,-6.2820435,15.486145,-45.54901,-0.02522681,-0.24921264,9.803452,9.191036e-05,7.662177e-05,-0.0022192001,-7.6293945e-05,-1.5258789e-05,3.0517578e-05
-0.012213595,0.003859639,-0.20299761,-0.027282715,-0.2514801,9.800766,-5.8792114,15.362549,-44.8349,-0.02548992,-0.2499082,9.8034315,-0.0005900357,-0.00088109076,0.00076293945,4.5776367e-05,4.5776367e-05,-0.00015258789
-0.01222391,0.0038863742,-0.20307174,-0.024169922,-0.24909973,9.804108,-5.923462,16.009521,-44.023132,-0.025943296,-0.25021464,9.803423,-0.0006257612,-0.001299262,-0.0006160736,0.00012207031,0.0001373291,-0.0001373291
-0.012197445,0.0038619274,-0.20299484,-0.022018433,-0.25100708,9.803879,-6.8008423,16.166687,-43.65387,-0.025598893,-0.24960719,9.80344,0.0011826828,0.000486508,0.0010175705,0.00024414062,7.6293945e-05,-0.00033569336
-0.012223471,0.0038126435,-0.20288232,-0.024642944,-0.24957275,9.805313,-6.2805176,15.332031,-44.447327,-0.024577564,-0.24990788,9.803434,0.0020853002,-0.0003902614,0.000995636,-0.00012207031,1.5258789e-05,-0.0001373291
-0.012232429,0.0037957325,-0.20284371,-0.02368164,-0.25028992,9.802673,-6.9107056,15.655518,-44.657898,-0.024227014,-0.25001165,9.803432,5.9099868e-05,-0.0005016923,0.0022583008,0.00012207031,-0.0002746582,0.00021362305
-0.012217325,0.0037764339,-0.2027861,-0.024169922,-0.25004578,9.8033905,-6.060791,16.583252,-43.97583,-0.023931207,-0.24964347,9.803443,-0.00023839809,-0.00017012656,-0.0013723373,0.00024414062,-0.00016784668,-0.00019836426
-0.012226987,0.0037835306,-0.20280948,-0.024887085,-0.25004578,9.8033905,-6.05011,16.799927,-43.855286,-0.02402309,-0.24985778,9.803437,9.7701326e-05,-0.0009010881,3.71933e-05,6.1035156e-05,7.6293945e-05,-0.0001373291
-0.012224036,0.0037954175,-0.2028384,-0.025131226,-0.25053406,9.803162,-5.958557,15.281677,-44.396973,-0.024255723,-0.2498491,9.803436,-0.0006315131,-0.00044238567,-0.00045776367,0.00018310547,-4.5776367e-05,0.00016784668
-0.012216922,0.0038060977,-0.20286201,-0.025604248,-0.24909973,9.805542,-6.0012817,16.227722,-44.503784,-0.02448311,-0.24975559,9.803439,-0.00040391646,0.0001834184,0.00017261505,-0.00012207031,-4.5776367e-05,-0.0001373291
-0.012218129,0.0038230948,-0.20290628,-0.022964478,-0.25028992,9.802429,-5.6381226,15.531921,-45.79315,-0.024793414,-0.24984749,9.803435,-0.00081042387,0.00027887523,0.00028133392,-6.1035156e-05,7.6293945e-05,-0.00019836426
-0.012222965,0.003796124,-0.20283966,-0.024414062,-0.25028992,9.804108,-4.7943115,16.08429,-43.97888,-0.024273233,-0.2498314,9.803437,0.0013091825,3.4168363e-05,2.4795532e-05,6.1035156e-05,7.6293945e-05,-0.0001373291
-0.012239557,0.0038112488,-0.20288736,-0.025360107,-0.24908447,9.801239,-6.3674927,15.409851,-45.639038,-0.024485474,-0.25021133,9.803428,-0.00040033646,-0.00053858757,0.00065898895,-0.00018310547,-0.00016784668,-0.00032043457
-0.01220654,0.0038041698,-0.2028515,-0.023208618,-0.24861145,9.801956,-5.619812,15.591431,-43.818665,-0.024490083,-0.24954832,9.803444,-0.0006433558,0.0016314834,-0.0027532578,-6.1035156e-05,1.5258789e-05,-1.5258789e-05
-0.012212002,0.0038002026,-0.20284425,-0.026565552,-0.2498169,9.802673,-5.584717,16.622925,-45.12024,-0.024394015,-0.24963722,9.803442,0.00071066804,4.6998262e-05,0.00040531158,-6.1035156e-05,1.5258789e-05,4.5776367e-05
-0.012185936,0.0038213872,-0.20288464,-0.027282715,-0.24885559,9.803162,-4.547119,16.244507,-43.954468,-0.02489428,-0.24922203,9.803452,-0.0009555295,0.0008252263,0.00026988983,-0.00012207031,7.6293945e-05,-0.00039672852
-0.012206132,0.0038738213,-0.20303,-0.025848389,-0.25076294,9.8022,-6.0775757,16.293335,-44.410706,-0.025783725,-0.24982224,9.803434,-0.00197386,-0.00048558414,-0.00030231476,6.1035156e-05,-4.5776367e-05,-7.6293945e-05
-0.012211934,0.0038683831,-0.20301916,-0.024414062,-0.24645996,9.8033905,-4.8065186,16.020203,-45.274353,-0.025658948,-0.24991167,9.803431,5.2627176e-05,-0.0006425679,-0.00019550323,0.0,-4.5776367e-05,-0.0001373291
-0.0121709695,0.0038210626,-0.2028758,-0.027282715,-0.2514801,9.804108,-6.02417,15.869141,-45.63141,-0.024949862,-0.24893314,9.803458,0.00077706017,0.002444446,-0.00061511993,-0.00012207031,-9.1552734e-05,4.5776367e-05
-0.012208259,0.003868954,-0.20301865,-0.024414062,-0.24885559,9.802444,-5.1071167,16.279602,-43.774414,-0.02568468,-0.24984339,9.803433,-0.0020709317,-0.0018796474,0.0023050308,0.0,-9.1552734e-05,-7.6293945e-05
-0.012193808,0.0038393452,-0.20293494,-0.026321411,-0.2467041,9.804825,-5.0582886,15.859985,-45.446777,-0.025194988,-0.24944592,9.803445,0.0012681969,0.0010533482,-0.00085163116,0.0,-4.5776367e-05,-0.0001373291
-0.012169152,0.0038467208,-0.20294066,-0.02607727,-0.24717712,9.802444,-4.9057007,15.800476,-46.14563,-0.025433328,-0.249002,9.803455,-0.0011323597,0.0011063665,0.0007047653,6.1035156e-05,-0.00016784668,-7.6293945e-05
-0.012133068,0.0038371615,-0.2028968,-0.025131226,-0.24932861,9.805786,-6.021118,15.791321,-44.81659,-0.025404537,-0.24827,9.803474,-0.00020093471,0.00011961162,-0.00032901764,6.1035156e-05,7.6293945e-05,4.5776367e-05
-0.012153328,0.0038462472,-0.20293097,-0.024642944,-0.24932861,9.801727,-4.432678,17.208862,-44.973755,-0.025489694,-0.24869603,9.803463,-0.00011459924,-0.00015999377,0.0009059906,-6.1035156e-05,-4.5776367e-05,-1.5258789e-05
-0.012146645,0.0038351081,-0.20289882,-0.025360107,-0.24838257,9.803879,-5.4367065,16.191101,-44.381714,-0.025310555,-0.24852255,9.803468,-5.0669536e-05,-9.988248e-05,-0.000834465,6.1035156e-05,-0.00010681152,-1.5258789e-05
-0.01218163,0.0038320234,-0.20290963,-0.025131226,-0.25315857,9.801727,-4.6447754,16.029358,-44.976807,-0.025109308,-0.2491823,9.803452,0.00022227503,-0.0011071116,0.0008802414,-0.00012207031,1.5258789e-05,4.5776367e-05
-0.012242156,0.0038510272,-0.20299083,-0.023208618,-0.25100708,9.804825,-4.7683716,15.30304,-46.479797,-0.025212545,-0.25042215,9.80342,-0.00039122254,-0.0024875104,0.00027179718,0.0,1.5258789e-05,-0.00019836426
-0.012233212,0.0038050814,-0.20286813,-0.0236969,-0.24813843,9.804352,-5.935669,15.792847,-44.293213,-0.024397202,-0.25006446,9.803431,0.001906015,0.0002503097,-0.00014781952,0.00012207031,-0.00010681152,-7.6293945e-05
-0.012219228,0.003773427,-0.2027794,-0.021774292,-0.24789429,9.805557,-5.2215576,15.85083,-45.59326,-0.023867605,-0.2496679,9.803443,0.0006585177,0.0008074045,-0.00057697296,6.1035156e-05,1.5258789e-05,0.00010681152
-0.012176901,0.0037451747,-0.20268425,-0.024642944,-0.24957275,9.8033905,-5.6243896,15.596008,-44.496155,-0.023517603,-0.24874054,9.803467,0.0005389955,0.0018194914,0.0013751984,0.0,-0.00010681152,4.5776367e-05
-0.012208058,0.0037431556,-0.20269574,-0.022735596,-0.25076294,9.801239,-5.3863525,15.690613,-45.46814,-0.023352014,-0.24933103,9.803452,-9.94578e-05,-0.00094515085,0.00011539459,-6.1035156e-05,-0.00021362305,0.00010681152
-0.012252829,0.0037311711,-0.20268893,-0.0236969,-0.25172424,9.804108,-4.951477,16.600037,-46.05713,-0.022945568,-0.25014293,9.803432,0.00020913221,-0.0013463497,-0.0018339157,-0.00012207031,-4.5776367e-05,0.00021362305
-0.012254235,0.003754359,-0.20274921,-0.023925781,-0.24885559,9.799332,-6.237793,16.358948,-44.995117,-0.023369879,-0.25026354,9.803429,-0.000799682,-0.00026664138,0.0010156631,0.00018310547,1.5258789e-05,-7.6293945e-05
-0.012214891,0.003756744,-0.20273426,-0.02607727,-0.24980164,9.803635,-5.1467896,15.4800415,-44.31305,-0.023575978,-0.24951719,9.803447,-0.00035326742,0.0008690804,-0.0031633377,6.1035156e-05,0.0001373291,-7.6293945e-05
-0.012209854,0.0038058867,-0.20285769,-0.022262573,-0.24789429,9.805069,-5.9432983,15.951538,-46.07086,-0.024508292,-0.24961892,9.803442,-0.0018155426,-0.0006956756,0.00091838837,6.1035156e-05,-4.5776367e-05,-1.5258789e-05
-0.012176195,0.0037633488,-0.2027305,-0.023925781,-0.24813843,9.802673,-5.7662964,16.099548,-44.766235,-0.023857675,-0.24880035,9.803465,0.0018383544,0.001369834,0.0012521744,0.00018310547,0.0001373291,4.5776367e-05
-0.012157111,0.0037573483,-0.2027049,-0.025848389,-0.24932861,9.803162,-5.7632446,16.247559,-45.11566,-0.023824833,-0.24840944,9.803474,-0.00034439377,0.00027826428,0.0013084412,6.1035156e-05,-0.0002746582,4.5776367e-05
-0.012174475,0.0037739696,-0.20275684,-0.024887085,-0.25004578,9.8022,-6.134033,15.432739,-46.699524,-0.02406179,-0.24881019,9.803464,-0.0012990646,-0.0007702857,-0.001203537,6.1035156e-05,-4.5776367e-05,-0.0002593994
-0.012187207,0.0038009111,-0.20283279,-0.024887085,-0.24838257,9.804596,-6.2591553,15.99884,-45.59784,-0.024509203,-0.24916369,9.803454,-0.0008532312,-0.0011498779,-0.0012845993,0.0,1.5258789e-05,-3.0517578e-05
-0.012185068,0.0038214868,-0.20288444,-0.025360107,-0.24909973,9.803162,-4.067993,16.513062,-46.03424,-0.024899697,-0.24920574,9.803452,-0.0007049702,0.00034594536,0.0015382767,-6.1035156e-05,1.5258789e-05,9.1552734e-05
-0.012163019,0.0038170198,-0.20286117,-0.02607727,-0.24861145,9.804596,-4.725647,16.099548,-45.491028,-0.024907589,-0.24876402,9.803463,2.075173e-05,0.00087219477,0.00054740906,0.0,1.5258789e-05,3.0517578e-05
-0.012172614,0.003837114,-0.20291786,-0.024414062,-0.25125122,9.804108,-5.4656982,15.684509,-45.240784,-0.02524086,-0.24902965,9.803455,-0.00036285818,-0.0005378574,0.00020217896,-6.1035156e-05,1.5258789e-05,-0.0001373291
-0.012207064,0.0038178614,-0.20288692,-0.025848389,-0.24717712,9.804352,-6.4193726,15.986633,-45.365906,-0.0247419,-0.24961373,9.803442,0.00081603974,-0.0009211153,-0.0004940033,-6.1035156e-05,-4.5776367e-05,-7.6293945e-05
-0.012145581,0.0038462891,-0.20292692,-0.0236969,-0.25004578,9.803635,-4.904175,15.722656,-45.481873,-0.025522374,-0.24854736,9.803468,-0.0015140641,0.0016199201,0.001742363,0.00012207031,1.5258789e-05,0.00010681152
-0.012187076,0.0037939034,-0.20281474,-0.022018433,-0.24885559,9.804352,-4.672241,15.52124,-45.610046,-0.024379743,-0.24913281,9.803454,0.0023624543,-0.001389578,-0.00075244904,0.00018310547,7.6293945e-05,-1.5258789e-05
-0.012195821,0.0037843569,-0.20279492,-0.023925781,-0.25076294,9.804596,-4.58374,15.672302,-45.57953,-0.024166666,-0.2492623,9.8034525,0.0007163938,-0.00075782835,0.0010814667,0.00012207031,1.5258789e-05,0.00010681152
-0.012201095,0.0037650547,-0.20274821,-0.024414062,-0.25004578,9.803162,-4.48761,15.892029,-44.709778,-0.023786902,-0.2492857,9.803453,0.00082420744,-0.00026839972,-0.00055217743,6.1035156e-05,7.6293945e-05,-0.0001373291
-0.012198611,0.0038021647,-0.20284212,-0.025604248,-0.24861145,9.803162,-5.065918,15.715027,-45.77942,-0.024485525,-0.24938785,9.803448,-0.0006446969,-0.0008918196,-0.00068855286,0.00012207031,0.00019836426,4.5776367e-05
-0.01217887,0.003831629,-0.20290715,-0.025848389,-0.24885559,9.802673,-4.737854,15.882874,-45.606995,-0.025113355,-0.24912767,9.803453,-0.00096308254,0.00052447617,-0.00014400482,-6.1035156e-05,1.5258789e-05,-0.0001373291
-0.012182213,0.0038335368,-0.20291384,-0.024887085,-0.24861145,9.8033905,-4.18396,15.473938,-44.654846,-0.025134979,-0.24919964,9.803452,3.6396086e-06,0.00034292042,-0.00073337555,-6.1035156e-05,-4.5776367e-05,-1.5258789e-05
-0.012173485,0.0038078409,-0.20284322,-0.023208618,-0.25172424,9.804108,-5.366516,16.281128,-46.10443,-0.024694227,-0.24892803,9.803459,5.113706e-05,0.0005440116,-1.1444092e-05,0.0,-0.00010681152,4.5776367e-05
-0.0122259315,0.0038068297,-0.20286871,-0.025848389,-0.24813843,9.8029175,-5.7006836,15.888977,-45.491028,-0.024459599,-0.24993166,9.803434,0.00076341256,-0.0022583157,0.0006313324,0.00012207031,-4.5776367e-05,-0.0001373291
-0.012184466,0.0038191006,-0.202878,-0.025604248,-0.24742126,9.799088,-5.693054,16.035461,-45.462036,-0.024857907,-0.24918455,9.8034525,-0.0009906758,0.001044184,-0.000702858,0.0,1.5258789e-05,-0.0002593994
-0.012154768,0.0038656034,-0.2029814,-0.023208618,-0.25028992,9.800278,-4.8461914,16.964722,-45.23163,-0.02584285,-0.24880202,9.803459,-0.0014441889,-0.0005682111,0.00038051605,0.00012207031,7.6293945e-05,4.5776367e-05
-0.0121759195,0.0038152225,-0.20286347,-0.023208618,-0.2498169,9.801483,-5.065918,17.384338,-44.8349,-0.024821145,-0.24900462,9.803456,0.0023248736,-0.00086061656,-0.00054359436,0.00018310547,0.0001373291,-0.0002746582
-0.012190402,0.0038160651,-0.20287338,-0.026321411,-0.24909973,9.803635,-4.4921875,16.049194,-46.263123,-0.024777168,-0.2492863,9.80345,0.0006027948,-0.0008042604,0.0002670288,0.0,1.5258789e-05,-1.5258789e-05
-0.012186882,0.003835377,-0.20292105,-0.025848389,-0.24932861,9.801956,-5.3726196,15.829468,-44.384766,-0.0251499,-0.2492968,9.80345,-0.00045699254,-5.801022e-05,0.0014600754,0.0,3.0517578e-05,-0.00019836426
-0.012190903,0.0038408393,-0.20293722,-0.025604248,-0.24765015,9.803879,-5.26886,16.575623,-45.52002,-0.025234664,-0.24939613,9.803446,-0.00037200935,-0.00020058453,0.00016975403,-6.1035156e-05,-4.5776367e-05,4.5776367e-05
-0.012150718,0.0038313868,-0.20289144,-0.024887085,-0.24742126,9.8029175,-4.725647,16.099548,-45.489502,-0.025224753,-0.24858578,9.803467,-0.00038202852,0.0018566996,-3.71933e-05,6.1035156e-05,-4.5776367e-05,-1.5258789e-05
-0.012126684,0.0038294531,-0.20287362,-0.023925781,-0.24885559,9.802444,-4.486084,16.044617,-45.73517,-0.0252878,-0.24811615,9.803478,-0.00031801686,0.0004505962,0.0007648468,0.0,-4.5776367e-05,-0.0001373291
-0.012172424,0.0037920587,-0.20280217,-0.025131226,-0.25076294,9.803162,-5.1330566,15.924072,-45.129395,-0.024405811,-0.24884385,9.803462,0.00095141307,-0.0012186468,-0.0001296997,-0.00012207031,-0.00016784668,0.00010681152
-0.01217531,0.0038196084,-0.20287439,-0.023925781,-0.24813843,9.801483,-5.680847,16.252136,-45.039368,-0.024905017,-0.24901065,9.803456,-0.0007005818,-0.00057561696,0.0002374649,0.00024414062,-4.5776367e-05,4.5776367e-05
-0.012156113,0.0037863278,-0.20277873,-0.026565552,-0.24932861,9.8033905,-4.953003,16.37268,-44.89441,-0.0243666,-0.2485073,9.803472,0.00066656806,0.00033691525,-0.0014448166,6.1035156e-05,7.6293945e-05,-0.0001373291
-0.012162228,0.0038275302,-0.20288771,-0.025360107,-0.24717712,9.800995,-4.777527,16.525269,-44.34204,-0.025105828,-0.2487913,9.803461,-0.000974033,-0.001051262,0.00046730042,0.0,1.5258789e-05,-0.0001373291
-0.012133968,0.003831757,-0.20288342,-0.025604248,-0.24789429,9.801727,-5.177307,16.644287,-44.5282,-0.025300566,-0.24826545,9.803475,-0.0005517397,0.0020111948,-0.0009622574,-6.1035156e-05,1.5258789e-05,0.00010681152
-0.012144536,0.0038319097,-0.20288947,-0.024414062,-0.2514801,9.804825,-6.010437,16.009521,-44.85016,-0.025259899,-0.24846907,9.803469,-0.00010349043,-0.00041879714,0.00047779083,-0.00012207031,-0.00010681152,-7.6293945e-05
-0.012190157,0.0038231646,-0.20289147,-0.02130127,-0.24932861,9.800522,-4.1488647,16.429138,-45.368958,-0.024909874,-0.2493103,9.803449,0.0009827409,-0.0019544363,0.0014352798,0.00030517578,0.0001373291,-0.00021362305
-0.012201902,0.0037746946,-0.20277338,-0.0236969,-0.25028992,9.803162,-4.800415,16.392517,-46.33026,-0.023962405,-0.24934013,9.803452,0.0021850616,-0.00049322844,-0.0014371872,0.0,-4.5776367e-05,0.00016784668
-0.012220403,0.0037667616,-0.20276293,-0.023452759,-0.25125122,9.802673,-5.604553,16.184998,-45.133972,-0.023739126,-0.24966356,9.803443,0.0002839472,-0.0008959323,0.00047397614,6.1035156e-05,7.6293945e-05,-1.5258789e-05
-0.012232559,0.003761422,-0.20275573,-0.025360107,-0.25028992,9.803162,-4.3045044,16.567993,-45.863342,-0.02359007,-0.24987556,9.803438,-0.00033733808,-0.00067572296,0.0006284714,-6.1035156e-05,-0.00016784668,0.00016784668
-0.012247482,0.0037848179,-0.20282377,-0.022735596,-0.2498169,9.804596,-5.9692383,15.292358,-45.828247,-0.023962613,-0.25025678,9.803427,-0.00068183243,-0.0007659793,0.0001039505,6.1035156e-05,-4.5776367e-05,4.5776367e-05
-0.012225665,0.0037719058,-0.20277895,-0.024642944,-0.24885559,9.804352,-6.0043335,16.384888,-46.131897,-0.023812901,-0.24978544,9.80344,0.0003598705,0.0006828755,0.0010232925,0.0,7.6293945e-05,0.00010681152
-0.012210781,0.0037849832,-0.20280454,-0.025604248,-0.25004578,9.801483,-5.6274414,15.673828,-45.387268,-0.024116727,-0.24955226,9.803445,-0.00052625686,0.00069625676,0.00020599365,0.0,-4.5776367e-05,-3.0517578e-05
-0.012213716,0.0037956587,-0.2028335,-0.025131226,-0.24909973,9.802673,-5.6747437,16.3208,-44.49768,-0.024302669,-0.2496518,9.803442,-0.0008145403,-0.0004067272,-0.0009841919,0.0,-4.5776367e-05,-7.6293945e-05
-0.012204271,0.0038139634,-0.20287542,-0.024887085,-0.2498169,9.801483,-5.987549,16.139221,-42.481995,-0.02468109,-0.24954431,9.803444,-0.0009238478,0.0004376024,0.0004644394,0.0,1.5258789e-05,4.5776367e-05
-0.012202583,0.003814136,-0.20287496,-0.025360107,-0.25076294,9.804596,-6.211853,16.485596,-42.251587,-0.024691235,-0.24951257,9.803444,0.00027306005,-0.00010176003,-0.0027236938,6.1035156e-05,-0.00010681152,-7.6293945e-05
-0.012204771,0.0038246312,-0.20290306,-0.024642944,-0.2498169,9.803162,-4.0405273,16.867065,-44.2276,-0.024979213,-0.24997306,9.8034315,-0.00015124865,-0.0005533546,0.0013380051,0.00012207031,-0.00010681152,-1.5258789e-05
-0.012196716,0.0038274692,-0.20290603,-0.027755737,-0.24836731,9.8033905,-5.6137085,15.966797,-45.178223,-0.02496272,-0.24945377,9.803446,-0.00016927905,0.00083458424,-0.0011854172,6.1035156e-05,-0.00010681152,-0.00021362305
-0.012175018,0.003861226,-0.20298101,-0.024642944,-0.24885559,9.8022,-4.8309326,15.509033,-45.303345,-0.025678253,-0.2491734,9.803451,-0.0016044173,7.4103475e-05,0.00063991547,0.00012207031,7.6293945e-05,-0.0001373291
-0.012167945,0.003854892,-0.20296097,-0.024169922,-0.24813843,9.8033905,-4.88739,15.861511,-44.322205,-0.025589883,-0.24901184,9.803454,0.0007004831,0.00013373792,-0.0018024445,6.1035156e-05,7.6293945e-05,-1.5258789e-05
-0.012150666,0.0038224075,-0.20286837,-0.025360107,-0.25004578,9.8029175,-5.1834106,16.499329,-44.558716,-0.02505838,-0.24854845,9.803468,0.00088788755,0.00089263916,0.0013513565,0.0,-4.5776367e-05,-0.00021362305
-0.012199109,0.0038180153,-0.20288305,-0.023925781,-0.25028992,9.801956,-5.204773,15.988159,-44.509888,-0.024777502,-0.24946152,9.803446,0.00036206096,-0.0022765994,-0.00069999695,0.00012207031,7.6293945e-05,-1.5258789e-05
-0.0121855745,0.0038136374,-0.20286457,-0.022491455,-0.25028992,9.805557,-3.868103,15.350342,-44.92035,-0.024752,-0.24918374,9.8034525,0.00010788627,0.00031636655,0.00017261505,0.0,-0.00016784668,-7.6293945e-05
-0.012239665,0.0037649055,-0.20276847,-0.02130127,-0.2524414,9.801712,-6.1660767,16.143799,-44.73877,-0.023625448,-0.25002617,9.803434,0.0018508006,-0.0017018616,0.00059223175,0.0,-4.5776367e-05,0.00016784668
-0.01228811,0.0037348655,-0.2027173,-0.023925781,-0.24932861,9.806747,-5.303955,15.771484,-45.532227,-0.02286896,-0.25083575,9.803415,0.0013378356,-0.0013721585,-0.00056934357,0.0,-0.00010681152,-0.0001373291
-0.012243185,0.0037191221,-0.20265286,-0.022491455,-0.24932861,9.800995,-6.047058,16.95404,-44.50531,-0.022761734,-0.24990903,9.803439,-0.00021593086,0.0015492141,0.0026597977,0.00012207031,-4.5776367e-05,4.5776367e-05
-0.01223156,0.0037346466,-0.20268647,-0.022491455,-0.24742126,9.799805,-4.1656494,16.065979,-45.594788,-0.023097511,-0.24974826,9.803441,-0.00082992204,0.0004017949,-0.0031805038,-6.1035156e-05,-4.5776367e-05,0.00021362305
-0.012196737,0.0037133296,-0.20261313,-0.023452759,-0.2498169,9.802429,-5.44281,16.119385,-44.773865,-0.022845246,-0.2489932,9.803462,0.00010644272,0.0013080984,-0.0013189316,6.1035156e-05,-0.00010681152,4.5776367e-05
-0.012182846,0.003709665,-0.2025963,-0.025360107,-0.24932861,9.8022,-5.467224,15.762329,-45.977783,-0.022834362,-0.24871153,9.80347,-0.00014774315,-0.00039875507,0.0007095337,0.00012207031,-0.00010681152,3.0517578e-05
-0.012217088,0.0037597637,-0.20274319,-0.024642944,-0.25053406,9.804108,-5.810547,15.304565,-46.058655,-0.023622956,-0.2495716,9.803446,-0.001740532,-0.0009981841,-0.0008029938,0.0,1.5258789e-05,0.00010681152
-0.012225309,0.003798463,-0.20284691,-0.026321411,-0.24861145,9.804596,-6.4224243,15.989685,-45.81909,-0.024306968,-0.2498859,9.803436,-0.0010548886,-0.0006661564,0.0013771057,-0.00012207031,0.0001373291,0.00016784668
-0.012180525,0.0038256333,-0.20289265,-0.022964478,-0.24957275,9.802673,-5.027771,16.363525,-44.439697,-0.024995321,-0.24913523,9.803453,-0.0010820031,0.0009962618,0.0013923645,0.00012207031,1.5258789e-05,4.5776367e-05
-0.012190309,0.0037970853,-0.20282464,-0.024414062,-0.24957275,9.803162,-5.256653,16.714478,-44.737244,-0.024425464,-0.24920781,9.8034525,0.0012159627,-0.00012981892,-0.0006685257,0.00018310547,7.6293945e-05,0.00022888184
-0.012185687,0.0037887103,-0.20280066,-0.023925781,-0.24861145,9.804352,-6.2469482,16.137695,-44.813538,-0.024289122,-0.24908517,9.803456,0.00059178285,-3.8146973e-06,0.00035572052,0.00012207031,7.6293945e-05,0.00022888184
-0.012170965,0.0038016774,-0.20282605,-0.02607727,-0.2514801,9.800278,-5.5374146,15.823364,-44.830322,-0.024590256,-0.24885468,9.803461,-0.0002973769,-0.00047945976,-9.6321106e-05,0.0,1.5258789e-05,-1.5258789e-05
-0.012191922,0.0038253546,-0.20289804,-0.024642944,-0.24813843,9.801956,-6.095886,16.081238,-45.51239,-0.024943229,-0.24935308,9.803448,-0.00066322833,-0.0014319569,-0.0013399124,6.1035156e-05,1.5258789e-05,-0.0001373291
-0.0122054685,0.0038160875,-0.20288152,-0.0236969,-0.24836731,9.8029175,-4.9728394,15.934753,-45.133972,-0.024715561,-0.24957591,9.803443,-0.00017263554,0.0002360642,0.0008621216,-6.1035156e-05,-0.00010681152,0.0002746582
-0.012168476,0.0037992704,-0.20281856,-0.024169922,-0.24861145,9.80484,-5.1116943,16.360474,-44.73877,-0.024555843,-0.24879715,9.803463,0.0006272327,0.0015913546,-0.0013380051,0.00012207031,7.6293945e-05,0.00022888184
-0.012166476,0.0037713787,-0.20274591,-0.022964478,-0.25028992,9.805069,-5.332947,16.783142,-44.644165,-0.02404662,-0.24864602,9.803468,0.0010816045,-0.00021514297,0.0018205643,0.0,-4.5776367e-05,-3.0517578e-05
-0.0122118145,0.0037681996,-0.20276202,-0.025848389,-0.24957275,9.800049,-6.2683105,15.701294,-45.12787,-0.023801139,-0.24950433,9.803447,-0.00012441911,-0.0015004128,0.00058460236,0.0,-0.00016784668,0.00039672852
-0.012190952,0.0038018553,-0.20283721,-0.024887085,-0.2498169,9.801712,-5.555725,15.533447,-45.343018,-0.0245113,-0.24923941,9.803451,-0.0013395697,-0.00035856664,-0.0021810532,0.00018310547,7.6293945e-05,0.00010681152
-0.012183336,0.003808133,-0.20284925,-0.025360107,-0.25100708,9.804596,-5.683899,16.329956,-45.703125,-0.024659108,-0.24911848,9.803454,1.4049932e-05,-2.6226044e-06,0.0003042221,0.0,1.5258789e-05,0.00010681152
-0.012210753,0.0038323186,-0.202926,-0.024414062,-0.24885559,9.8033905,-5.859375,15.875244,-45.10956,-0.024994876,-0.24974309,9.803438,-0.0006104093,-0.00080133975,0.00084781647,-6.1035156e-05,7.6293945e-05,4.5776367e-05
-0.0122154085,0.0038151604,-0.20288445,-0.025604248,-0.24909973,9.799332,-5.4351807,14.672852,-45.82672,-0.024657441,-0.24976315,9.803438,0.0007311385,0.00018508732,0.0004043579,-0.00012207031,1.5258789e-05,4.5776367e-05
-0.012222809,0.0038309714,-0.20292899,-0.024169922,-0.24909973,9.800522,-5.415344,16.551208,-43.70575,-0.024920244,-0.24996924,9.8034315,-0.0004436951,0.0003580451,-0.0025930405,-0.00018310547,7.6293945e-05,0.00010681152
-0.012183315,0.0038141874,-0.20286477,-0.023208618,-0.25004578,9.805069,-5.935669,15.867615,-44.58008,-0.024771506,-0.24914254,9.803453,0.0005971566,0.0009595752,-0.00046253204,0.00018310547,7.6293945e-05,0.00010681152
-0.012212207,0.0037897248,-0.20281747,-0.021774292,-0.24861145,9.802444,-5.805969,16.816711,-43.710327,-0.024198812,-0.24959883,9.803444,0.0009876806,-0.0007169992,0.0014533997,-6.1035156e-05,-0.00010681152,0.00016784668
-0.012213336,0.0037646506,-0.20275372,-0.023452759,-0.24957275,9.8033905,-4.7927856,16.157532,-44.265747,-0.023729043,-0.24951924,9.803447,0.0012349337,0.00016273558,-0.00014972687,6.1035156e-05,7.6293945e-05,0.00010681152
-0.012233575,0.0037583262,-0.20274833,-0.025131226,-0.24861145,9.801239,-4.6569824,17.32788,-43.5791,-0.023528468,-0.24988258,9.803438,-0.00015344471,-0.00041022897,0.00030994415,6.1035156e-05,-4.5776367e-05,4.5776367e-05
-0.012202619,0.0037644429,-0.20274746,-0.026321411,-0.24813843,9.8022,-5.9158325,16.305542,-44.493103,-0.023769278,-0.24931248,9.803452,-0.00087467954,0.00091928244,-0.0005893707,-0.00012207031,-0.00010681152,0.00010681152
-0.012167903,0.0037993672,-0.2028185,-0.023208618,-0.2498169,9.803635,-6.3980103,16.26892,-44.100952,-0.024560004,-0.24878652,9.803464,-0.001520237,0.0010910183,-0.0015115738,0.0,7.6293945e-05,-1.5258789e-05
-0.012208234,0.003772503,-0.20277114,-0.020584106,-0.25076294,9.801956,-4.5455933,16.395569,-44.529724,-0.023895698,-0.2494529,9.803448,0.0014021173,-0.0018205047,0.00058555603,0.00018310547,-4.5776367e-05,0.00016784668
-0.012221009,0.0037213806,-0.20264678,-0.024887085,-0.24813843,9.801727,-6.5704346,16.194153,-45.166016,-0.022894822,-0.24949203,9.80345,0.0015925337,-0.00033597648,0.0008659363,0.00012207031,-0.00010681152,0.00010681152
-0.012192567,0.003748067,-0.20270005,-0.025360107,-0.24957275,9.800995,-5.6777954,16.401672,-45.53833,-0.023506835,-0.2490532,9.803458,-0.0013821628,0.0008944869,-0.0007047653,-0.00012207031,-4.5776367e-05,0.0002746582
-0.012191637,0.0037833198,-0.20279002,-0.023925781,-0.24885559,9.803162,-4.7180176,16.091919,-44.358826,-0.024164638,-0.2491777,9.803453,-0.0016880464,-0.00043936074,-0.001906395,0.00012207031,-0.00010681152,0.00016784668
-0.012181959,0.0037822372,-0.20278206,-0.022964478,-0.24909973,9.801712,-5.4504395,15.899658,-44.51599,-0.024184374,-0.24898736,9.803458,0.00025586225,0.000347808,0.001282692,0.00012207031,0.0001373291,0.00010681152
-0.012189982,0.0037377386,-0.20267217,-0.023452759,-0.2514801,9.804596,-4.9453735,16.444397,-44.65332,-0.023325855,-0.2489619,9.803462,0.001792768,-0.00088633597,-0.00027179718,0.00012207031,1.5258789e-05,0.00010681152
-0.012203909,0.0037613935,-0.20274033,-0.023925781,-0.24765015,9.802444,-5.484009,16.989136,-44.371033,-0.023707401,-0.24932496,9.803452,-0.00070828013,-0.0012261122,0.0010967255,0.00012207031,1.5258789e-05,-7.6293945e-05
-0.012200401,0.0037611392,-0.2027378,-0.021774292,-0.24789429,9.800766,-6.4605713,16.55426,-43.737793,-0.023717117,-0.2492565,9.8034525,3.3374876e-05,0.00062295794,-0.00038433075,-0.00024414062,1.5258789e-05,-1.5258789e-05
-0.012181401,0.0037231343,-0.2026301,-0.022735596,-0.25053406,9.802429,-5.7647705,15.945435,-43.815613,-0.023090193,-0.24873807,9.803468,0.001312755,0.0015270412,-0.00089359283,0.0,1.5258789e-05,-1.5258789e-05
-0.012202195,0.0037350596,-0.20267183,-0.023208618,-0.24693298,9.805069,-6.137085,16.57257,-43.36853,-0.023225935,-0.2491857,9.803455,1.4422461e-05,-0.0011352897,0.00019550323,6.1035156e-05,7.6293945e-05,-0.0001373291
-0.012182409,0.0037181128,-0.20261775,-0.023452759,-0.25053406,9.805313,-5.1086426,16.435242,-45.025635,-0.022992888,-0.24873717,9.803468,0.00074565224,0.0005995929,0.0025291443,0.00012207031,7.6293945e-05,-1.5258789e-05
-0.012184132,0.0037406844,-0.2026766,-0.024414062,-0.2476654,9.801483,-6.1706543,15.9210205,-44.10553,-0.023404565,-0.24886134,9.803464,-0.0007655304,-0.000713259,-0.00022983551,6.1035156e-05,1.5258789e-05,4.5776367e-05
-0.0121695725,0.0037352105,-0.20265476,-0.02368164,-0.25004578,9.800278,-4.5928955,15.45105,-45.472717,-0.023362873,-0.2485595,9.803472,-9.1575086e-05,-6.993115e-05,-0.0012788773,0.00024414062,-4.5776367e-05,-1.5258789e-05
-0.012162467,0.0037578624,-0.20270908,-0.025131226,-0.24957275,9.8022,-6.1691284,15.9210205,-44.104004,-0.023812348,-0.24851444,9.8034725,-0.000588825,-0.0003658682,-0.00054073334,0.00012207031,1.5258789e-05,0.00022888184
-0.012186763,0.0037708532,-0.20275542,-0.022018433,-0.24932861,9.803635,-5.870056,15.582275,-44.94171,-0.023953423,-0.2490337,9.803458,-0.00069171935,-0.001279071,0.00011539459,0.0,-0.00010681152,-7.6293945e-05
-0.012181983,0.0037416862,-0.20267801,-0.023208618,-0.2514801,9.803162,-5.4092407,16.773987,-43.963623,-0.023431985,-0.2488241,9.803465,0.0006943252,-5.3420663e-05,7.247925e-05,6.1035156e-05,-9.1552734e-05,0.00010681152
-0.012234679,0.0037509094,-0.20272988,-0.021057129,-0.24789429,9.803162,-5.8273315,16.531372,-44.750977,-0.023386344,-0.24987386,9.803438,-6.854534e-05,-0.0016290247,-0.0001001358,-0.00012207031,1.5258789e-05,0.00010681152
-0.012229108,0.0036917694,-0.20257512,-0.022735596,-0.24885559,9.805786,-5.4718018,15.461731,-44.75708,-0.022312215,-0.24952826,9.80345,0.0017270558,0.0009050369,0.0008916855,0.00012207031,-0.00010681152,-1.5258789e-05
-0.012192507,0.003688085,-0.20254609,-0.0236969,-0.24957275,9.802429,-5.4504395,15.974426,-44.87915,-0.022394283,-0.24881016,9.803468,-0.0003402643,0.00068336725,0.0018596649,6.1035156e-05,1.5258789e-05,3.0517578e-05
-0.012217518,0.0037311078,-0.20266987,-0.0236969,-0.25053406,9.804108,-5.57251,16.764832,-44.26117,-0.023089616,-0.2494642,9.80345,-0.0010799859,-0.0008222461,-0.0006685257,-0.00012207031,-4.5776367e-05,4.5776367e-05
-0.012223898,0.0037487831,-0.20271866,-0.023925781,-0.2536316,9.806503,-5.291748,15.910339,-44.596863,-0.023391254,-0.24965814,9.803444,-0.0005341526,-0.00015479326,3.4332275e-05,-0.00012207031,7.6293945e-05,0.00016784668
-0.012305488,0.003781627,-0.20284665,-0.022491455,-0.24838257,9.803879,-5.36499,15.975952,-44.429016,-0.023664663,-0.2513584,9.803399,-2.9802322e-05,-0.0032086372,0.0016222,0.00012207031,0.0001373291,9.1552734e-05
-0.0122346785,0.0037336345,-0.20268555,-0.023925781,-0.24838257,9.800278,-6.958008,16.45813,-44.94629,-0.023065912,-0.24980411,9.80344,0.0012942422,0.0021671206,0.00026988983,0.00024414062,1.5258789e-05,0.00022888184
-0.012204803,0.003765045,-0.20275018,-0.025131226,-0.24909973,9.803635,-6.47583,16.11023,-43.148804,-0.023771465,-0.24935687,9.803451,-0.0008720495,0.00025117397,-0.00269413,6.1035156e-05,0.0001373291,-1.5258789e-05
-0.012183517,0.0037856118,-0.20279156,-0.024642944,-0.24932861,9.802673,-6.4193726,15.83252,-44.415283,-0.02424057,-0.24903093,9.803457,-0.0006469637,0.00041489303,0.00011444092,0.00012207031,7.6293945e-05,3.0517578e-05
-0.012185208,0.003786253,-0.2027941,-0.022735596,-0.25125122,9.800766,-5.8395386,16.011047,-43.421936,-0.024245514,-0.24906603,9.803457,-0.0001700744,-0.0005224049,-0.0008840561,0.00018310547,-0.00016784668,0.00016784668
-0.012223341,0.0037697835,-0.20277226,-0.025360107,-0.24957275,9.802673,-5.6030273,15.957642,-43.89496,-0.023783095,-0.2497322,9.803441,0.00032740086,-0.0013057142,-0.0012207031,-0.00018310547,-4.5776367e-05,0.00033569336
-0.012262454,0.003803176,-0.2028789,-0.024398804,-0.25053406,9.803162,-5.659485,16.53595,-43.927002,-0.024241477,-0.25061864,9.803417,-0.00015861727,-0.00087478757,0.00121212,-0.00012207031,7.6293945e-05,-1.5258789e-05
-0.01224198,0.003772809,-0.20278999,-0.027999878,-0.24957275,9.8022,-6.1584473,16.288757,-44.56024,-0.023762519,-0.25010255,9.8034315,0.0007828567,0.0010035932,0.0011339188,6.1035156e-05,-0.00010681152,0.00010681152
-0.012207283,0.003838216,-0.20293926,-0.023452759,-0.24908447,9.802673,-4.1671753,15.838623,-44.432068,-0.025118558,-0.24970026,9.803439,-0.0028829481,0.0005996078,-0.0013208389,6.1035156e-05,1.5258789e-05,-7.6293945e-05
-0.012216284,0.0038240298,-0.20290768,-0.025604248,-0.24932861,9.8022,-5.836487,16.311646,-44.644165,-0.024818355,-0.24981582,9.803436,0.0008914694,-0.00024108589,0.00039100647,6.1035156e-05,7.6293945e-05,0.0002746582
-0.012209268,0.0038380201,-0.20293982,-0.027755737,-0.24789429,9.801483,-5.670166,16.395569,-44.633484,-0.025106743,-0.2497376,9.803437,-0.00025477074,0.00039499998,-0.00021457672,-0.00012207031,1.5258789e-05,0.00022888184
-0.01216843,0.0038653342,-0.20298803,-0.023208618,-0.25028992,9.805313,-6.7718506,16.751099,-43.460083,-0.025781592,-0.24906343,9.8034525,-0.001747977,0.001371786,-0.00093746185,0.00012207031,-0.00010681152,0.00015258789
-0.012181097,0.0038448642,-0.2029423,-0.025604248,-0.24861145,9.800278,-5.693054,15.72876,-43.634033,-0.0253497,-0.24922399,9.80345,0.0007061716,-0.00059863925,0.0016012192,-6.1035156e-05,1.5258789e-05,4.5776367e-05
-0.0122008985,0.003842056,-0.2029457,-0.026565552,-0.25076294,9.802673,-4.966736,17.675781,-44.099426,-0.025216075,-0.24959311,9.803441,0.00032713823,-0.00024209917,-0.0009937286,-0.00012207031,1.5258789e-05,-1.5258789e-05
-0.012218234,0.0038585581,-0.20299733,-0.02368164,-0.24765015,9.803879,-6.0699463,16.43982,-44.38324,-0.025450764,-0.249993,9.803431,-0.0003997106,-0.00056155026,-0.0001821518,-6.1035156e-05,1.5258789e-05,0.00016784668
-0.012180751,0.0038242948,-0.20288934,-0.025360107,-0.24742126,9.801483,-5.7647705,16.096497,-44.6167,-0.024969557,-0.24913417,9.803453,0.0010421202,0.0019405335,0.00035858154,0.0,1.5258789e-05,0.00039672852
-0.012163981,0.0038252666,-0.20288284,-0.025131226,-0.24957275,9.804825,-5.9768677,16.586304,-43.75,-0.02505662,-0.24881588,9.803462,-0.00055024214,0.00065150857,-0.0007276535,-6.1035156e-05,-0.00010681152,0.00022888184
-0.012160588,0.0038226624,-0.20287435,-0.025604248,-0.24813843,9.8029175,-3.9108276,16.072083,-44.16809,-0.025022274,-0.24874012,9.803463,0.00013440661,0.00034977496,0.0014390945,0.0,1.5258789e-05,0.00010681152
-0.012172365,0.0038369023,-0.20291719,-0.025360107,-0.25053406,9.8022,-5.0964355,16.423035,-43.292236,-0.025237959,-0.249024,9.803455,-0.00036747195,-0.0005604178,-0.00032234192,-0.00012207031,1.5258789e-05,-1.5258789e-05
-0.012178574,0.0038548845,-0.20296665,-0.02609253,-0.24789429,9.8033905,-5.5740356,16.612244,-43.61267,-0.025545975,-0.24921608,9.803451,-0.0003043022,9.793043e-05,-0.00052547455,0.0,0.0001373291,0.00022888184
-0.012162493,0.0038619298,-0.20297611,-0.024642944,-0.24813843,9.802673,-6.2438965,15.983582,-43.48755,-0.025742888,-0.2489356,9.803456,0.0001372993,0.0007841885,0.0004453659,-6.1035156e-05,0.0001373291,-1.5258789e-05
-0.01215692,0.0038463909,-0.20293325,-0.024414062,-0.25028992,9.8029175,-6.1035156,15.635681,-44.319153,-0.025477575,-0.24876565,9.803462,0.0008320268,0.00012879074,-0.0009765625,0.0,0.0001373291,0.00022888184
-0.012186603,0.0038303721,-0.20290805,-0.022247314,-0.24838257,9.802673,-6.3720703,16.778564,-43.847656,-0.025058204,-0.24927114,9.803449,0.0016039051,-0.0005610883,0.000787735,0.0,-0.00010681152,-0.0001373291
-0.012192785,0.003787973,-0.20280257,-0.025360107,-0.25172424,9.802444,-6.4727783,16.337585,-44.0094,-0.024246238,-0.24921855,9.8034525,0.0007924475,-0.00060895085,0.00035572052,6.1035156e-05,-4.5776367e-05,0.00015258789
-0.012215423,0.003810699,-0.20287302,-0.024642944,-0.25028992,9.80603,-5.3207397,15.405273,-45.60547,-0.024574628,-0.24974538,9.803438,-0.0005581025,-0.001048103,-0.0003938675,0.0,1.5258789e-05,0.00016784668
-0.012204331,0.0038062488,-0.20285566,-0.025131226,-0.24932861,9.801239,-5.290222,15.908813,-44.4458,-0.02453774,-0.24951428,9.803445,0.00036816671,0.00018921494,0.0014848709,0.00030517578,7.6293945e-05,3.0517578e-05
-0.012202583,0.0038218603,-0.20289478,-0.022964478,-0.24957275,9.804596,-5.622864,15.745544,-45.069885,-0.02483452,-0.2495438,9.803443,-0.00077012554,-0.00075009465,-0.0006132126,6.1035156e-05,-4.5776367e-05,-1.5258789e-05
-0.012191959,0.00379576,-0.20282212,-0.023452759,-0.2514801,9.8022,-5.783081,15.658569,-44.55414,-0.024394091,-0.24923417,9.8034525,0.0011851545,0.00014643371,6.580353e-05,0.0,7.6293945e-05,0.00022888184
-0.0122356545,0.0037942189,-0.20284157,-0.024169922,-0.24957275,9.804596,-5.4382324,16.192627,-44.683838,-0.024185669,-0.2500675,9.8034315,0.00073231384,-0.00166291,-0.00027179718,6.1035156e-05,7.6293945e-05,0.00010681152
-0.0122292815,0.0038023521,-0.20285901,-0.024642944,-0.25172424,9.8022,-4.9713135,15.704346,-43.66913,-0.02436276,-0.24997793,9.803433,-5.1148236e-05,0.00016261637,0.0006122589,0.0,7.6293945e-05,0.00010681152
-0.012259058,0.0038061899,-0.20288482,-0.025848389,-0.25028992,9.801483,-4.8553467,16.592407,-44.25049,-0.024311354,-0.25056556,9.803418,0.0003848914,-0.0009215772,-0.0006980896,-6.1035156e-05,7.6293945e-05,-0.0001373291
-0.012169971,0.0038577956,-0.2029695,-0.025848389,-0.25053406,9.800995,-6.098938,15.855408,-44.577026,-0.025635399,-0.24906252,9.8034525,-0.0011599585,0.0018764287,0.0010070801,-6.1035156e-05,7.6293945e-05,-0.00021362305
-0.012209557,0.0038536922,-0.20298019,-0.026794434,-0.24932861,9.802673,-5.3009033,15.692139,-44.792175,-0.025396252,-0.24980654,9.803434,0.00050690025,-0.0012228489,-0.0010766983,-6.1035156e-05,1.5258789e-05,-0.00019836426
-0.012203366,0.003886664,-0.20306148,-0.025131226,-0.25172424,9.8022,-4.6875,16.670227,-43.637085,-0.026033329,-0.2498211,9.803433,-0.0007637441,-2.1114945e-05,-0.00023937225,-6.1035156e-05,7.6293945e-05,-0.00019836426
-0.012222458,0.0038756558,-0.20304346,-0.023452759,-0.24980164,9.804596,-5.6991577,17.407227,-43.595886,-0.025750482,-0.25014332,9.803425,0.00038778968,-0.00064471364,2.861023e-06,0.00018310547,1.5258789e-05,4.5776367e-05
-0.012222075,0.0038480978,-0.20297255,-0.021057129,-0.25149536,9.803146,-7.1502686,15.713501,-44.561768,-0.025240928,-0.25002444,9.80343,0.001314247,-3.0249357e-05,0.0012712479,0.00012207031,7.6293945e-05,-7.6293945e-05
-0.012250612,0.0037756378,-0.20280188,-0.025131226,-0.24957275,9.802444,-5.345154,16.33606,-43.678284,-0.023779469,-0.2502798,9.803427,0.0034387354,-0.0014525056,3.6239624e-05,0.00012207031,7.6293945e-05,-7.6293945e-05
-0.012223148,0.0037909993,-0.2028266,-0.024169922,-0.2498169,9.801956,-5.1254272,16.070557,-44.950867,-0.024177426,-0.2498142,9.803438,-0.0009549614,0.00070244074,-0.00029277802,6.1035156e-05,-0.00016784668,9.1552734e-05
-0.012231536,0.0037735694,-0.20278636,-0.026321411,-0.25028992,9.805313,-6.7596436,15.371704,-44.19403,-0.023819596,-0.24990496,9.803436,0.00012094155,-0.00040337443,-0.0005130768,0.00012207031,1.5258789e-05,-1.5258789e-05
-0.012215179,0.0038417096,-0.20295246,-0.026565552,-0.24861145,9.802444,-5.480957,16.911316,-43.782043,-0.02515084,-0.24986611,9.803434,-0.0023609865,-0.0004260838,0.0012512207,0.0,1.5258789e-05,0.00022888184
-0.012207417,0.0038536927,-0.20297904,-0.026321411,-0.24932861,9.803162,-5.215454,15.768433,-44.552612,-0.025405077,-0.24976544,9.803436,-0.0009165462,0.00090776384,3.6239624e-05,-0.00018310547,-4.5776367e-05,-1.5258789e-05
-0.012188734,0.0038672173,-0.20300373,-0.022262573,-0.24861145,9.803162,-4.9072266,15.498352,-44.773865,-0.025732897,-0.24946119,9.803443,-0.00034477934,0.000845775,-0.00012588501,0.00012207031,7.6293945e-05,0.00010681152
-0.0121783195,0.003811874,-0.20285615,-0.027038574,-0.25053406,9.804352,-4.6905518,16.751099,-44.602966,-0.02474915,-0.2490372,9.803456,0.0022561643,0.00016622245,-0.00089359283,6.1035156e-05,7.6293945e-05,-1.5258789e-05
-0.012213625,0.0038618133,-0.20300321,-0.022247314,-0.24885559,9.800766,-5.654907,16.682434,-44.047546,-0.02553013,-0.24991761,9.803432,-0.0015082527,-0.0015606284,0.0013189316,-0.00012207031,-4.5776367e-05,4.5776367e-05
-0.01218391,0.0037804747,-0.20277858,-0.024169922,-0.2498169,9.802673,-5.809021,16.818237,-44.01245,-0.024143651,-0.24901775,9.803458,0.0023682155,0.001355812,-0.0010375977,0.00024414062,-0.00010681152,-1.5258789e-05
-0.012201407,0.0037856963,-0.20280135,-0.024642944,-0.25125122,9.802444,-5.5023193,16.397095,-43.50586,-0.024168529,-0.24937505,9.80345,-3.1534582e-06,-0.0014060736,-0.0005350113,0.00030517578,7.6293945e-05,-0.00019836426
-0.012213663,0.0037853231,-0.20280695,-0.024642944,-0.25100708,9.803879,-4.473877,16.181946,-44.651794,-0.024111168,-0.24960904,9.803444,-0.0005333591,-0.00094141066,0.00011730194,-6.1035156e-05,-0.00021362305,4.5776367e-05
-0.012238283,0.0038061282,-0.20287353,-0.020584106,-0.25053406,9.805069,-5.743408,16.305542,-42.990112,-0.024395742,-0.25016615,9.803429,-0.0004934054,-0.0011062324,-0.00039958954,-6.1035156e-05,0.0001373291,4.5776367e-05
-0.012254445,0.0037547622,-0.20275036,-0.022247314,-0.24909973,9.8033905,-5.621338,15.667725,-44.48242,-0.023376495,-0.2502692,9.803429,0.002792744,-1.6897917e-05,0.0019636154,6.1035156e-05,0.0001373291,-1.5258789e-05
-0.012237366,0.0037190488,-0.20264955,-0.022247314,-0.24813843,9.804596,-5.340576,16.410828,-43.81256,-0.022784304,-0.24979693,9.803442,0.001483405,0.0004723668,3.33786e-05,0.0,3.0517578e-05,-0.0001373291
-0.012207698,0.0037207892,-0.20263815,-0.022735596,-0.24932861,9.8033905,-6.17218,17.514038,-42.95044,-0.022938576,-0.24923389,9.803455,0.0002039019,0.0013496131,0.00050258636,0.0,7.6293945e-05,4.5776367e-05
-0.012196202,0.003724441,-0.20264137,-0.025848389,-0.25004578,9.804352,-6.793213,16.314697,-43.77289,-0.023053586,-0.24902771,9.80346,-0.0008716304,-5.0649047e-05,-0.00030994415,6.1035156e-05,-0.00016784668,4.5776367e-05
-0.012218777,0.0037348163,-0.20268007,-0.024169922,-0.24765015,9.8029175,-4.5410156,16.468811,-44.514465,-0.02315323,-0.24950334,9.803448,-0.0014869086,-0.0010004789,0.0018672943,6.1035156e-05,-0.0002746582,4.5776367e-05
-0.012185748,0.0037639383,-0.20273714,-0.027282715,-0.25053406,9.804596,-7.084656,15.351868,-44.485474,-0.02382932,-0.24898627,9.80346,-0.0015306808,0.0010930896,-0.0022649765,0.00012207031,1.5258789e-05,-1.5258789e-05
-0.012188266,0.0038189995,-0.20287977,-0.022491455,-0.25053406,9.80603,-5.1361084,15.85083,-45.143127,-0.024840394,-0.24925713,9.803451,-0.0017247014,-0.0007840544,0.00024795532,0.0,7.6293945e-05,4.5776367e-05
-0.012211523,0.003787094,-0.20281035,-0.0236969,-0.24909973,9.802673,-5.458069,15.603638,-43.971252,-0.02415283,-0.24957506,9.803445,0.0014204588,-0.00092567503,0.0022382736,0.0,-4.5776367e-05,-1.5258789e-05
-0.01221462,0.0037937504,-0.2028291,-0.024169922,-0.25172424,9.803879,-5.192566,16.279602,-44.299316,-0.024263555,-0.24966143,9.803441,0.00033930317,-0.00013974309,-0.0013856888,0.0,0.00019836426,0.00010681152
-0.012235131,0.0038060015,-0.20287152,-0.02607727,-0.25053406,9.804108,-5.378723,17.507935,-44.418335,-0.02440637,-0.25010508,9.803431,-0.00023536384,-0.0006454587,-0.00028133392,-6.1035156e-05,1.5258789e-05,-9.1552734e-05
-0.012239489,0.003820774,-0.20291176,-0.023452759,-0.24932861,9.8033905,-5.595398,16.32843,-44.802856,-0.024662422,-0.25024852,9.803426,-0.00022387132,-0.00027748942,-0.00034999847,0.0,7.6293945e-05,-0.00019836426
-0.0122292135,0.003810183,-0.20287907,-0.022979736,-0.24932861,9.804596,-5.2093506,15.991211,-45.036316,-0.024508284,-0.25000826,9.8034315,0.00058417395,0.0006966889,0.0007247925,0.0,7.6293945e-05,-7.6293945e-05
-0.012213802,0.0037713258,-0.20277111,-0.024642944,-0.24932861,9.801712,-5.5740356,14.944458,-44.7052,-0.023850948,-0.24955514,9.803445,0.0011156071,0.0007022321,-0.0011053085,-6.1035156e-05,-4.5776367e-05,-0.00033569336
-0.012231751,0.0037864791,-0.2028196,-0.026321411,-0.25100708,9.804108,-5.155945,16.929626,-43.338013,-0.024058169,-0.24996124,9.803434,-0.00035613775,-0.0003312081,-0.00041770935,-0.00012207031,1.5258789e-05,0.00010681152
-0.012196822,0.0038183567,-0.2028827,-0.025848389,-0.25076294,9.803635,-5.3710938,15.829468,-44.15741,-0.024793245,-0.24941893,9.803446,0.00037732348,0.00078876317,-0.0019454956,0.00024414062,7.6293945e-05,0.00016784668
-0.012192655,0.003829036,-0.20290788,-0.025360107,-0.24836731,9.8033905,-5.644226,16.97998,-44.51599,-0.025008496,-0.24938206,9.803447,-0.0005960148,-0.0004374534,0.0012521744,0.0,-0.00010681152,0.000289917
-0.012185288,0.0038179185,-0.2028754,-0.022735596,-0.24861145,9.801956,-5.522156,15.962219,-43.896484,-0.024832595,-0.24919553,9.803452,0.00019022264,0.00058983266,0.00067424774,-0.00012207031,1.5258789e-05,0.00016784668
-0.012205348,0.0037989598,-0.2028375,-0.023452759,-0.25053406,9.80603,-6.411743,15.98053,-44.46106,-0.024398344,-0.24950437,9.803446,0.0009433329,-9.138882e-05,-0.0022630692,0.00012207031,-4.5776367e-05,-1.5258789e-05
-0.01219153,0.00376709,-0.20274831,-0.022979736,-0.25125122,9.8029175,-6.149292,16.586304,-45.028687,-0.023863995,-0.2491101,9.803456,0.00088488124,-0.00021201372,0.0023183823,0.00024414062,-4.5776367e-05,-0.0001373291
-0.01223106,0.003756383,-0.202742,-0.023925781,-0.25004578,9.804596,-5.415344,16.551208,-43.70575,-0.023502765,-0.24982642,9.803439,0.0007677749,-0.00213553,-5.722046e-05,6.1035156e-05,7.6293945e-05,-1.5258789e-05
-0.01221413,0.0037740667,-0.20277831,-0.024642944,-0.24885559,9.802673,-4.8828125,15.779114,-43.13202,-0.023900446,-0.24957252,9.803445,-0.0005116835,-0.00022418797,0.001074791,0.00012207031,7.6293945e-05,3.0517578e-05
-0.012209688,0.003778698,-0.20278783,-0.024169922,-0.24908447,9.804596,-4.776001,16.523743,-44.041443,-0.024004629,-0.24950588,9.803446,0.00032287836,0.00017611682,-0.0016736984,0.00012207031,7.6293945e-05,-0.0001373291
-0.012187762,0.0037861369,-0.20279518,-0.024414062,-0.24957275,9.801956,-6.072998,16.287231,-43.658447,-0.02423284,-0.24911463,9.803455,-0.00040865876,0.00051803887,0.0012731552,-6.1035156e-05,7.6293945e-05,-9.1552734e-05
-0.012189769,0.003799732,-0.20283113,-0.024887085,-0.24813843,9.802444,-6.491089,15.896606,-43.72101,-0.024476787,-0.24920812,9.8034525,-0.00016741455,-0.00013329089,-0.0021829605,6.1035156e-05,1.5258789e-05,-1.5258789e-05
-0.012151184,0.003795108,-0.20279862,-0.023925781,-0.2457428,9.801956,-6.085205,16.075134,-44.456482,-0.024549775,-0.24844804,9.803472,-0.00033764727,0.0012675226,0.00077056885,6.1035156e-05,1.5258789e-05,0.00010681152
-0.0121353585,0.0037903946,-0.20277806,-0.02130127,-0.25076294,9.802444,-5.5999756,16.333008,-45.329285,-0.024527432,-0.24812493,9.80348,0.0005995538,0.00020942092,-0.0014028549,0.00012207031,0.0001373291,0.00021362305
-0.012170726,0.0037455054,-0.2026818,-0.024887085,-0.24885559,9.8022,-5.0338745,16.139221,-43.95752,-0.023549126,-0.24862322,9.80347,0.0020158608,-0.00073827803,-0.00093364716,-0.00012207031,1.5258789e-05,-7.6293945e-05
-0.012179829,0.00378121,-0.20277828,-0.02368164,-0.2498169,9.803162,-6.503296,17.347717,-43.04657,-0.024174083,-0.2489423,9.80346,-0.00095951743,-0.00065489113,0.0006494522,0.00018310547,7.6293945e-05,-7.6293945e-05
-0.01218659,0.0037625632,-0.20273405,-0.025131226,-0.24621582,9.803162,-5.534363,15.821838,-44.5282,-0.023800347,-0.24899688,9.803459,0.0003455989,-0.00035256147,0.00027751923,-6.1035156e-05,-0.00010681152,0.00010681152
-0.012147288,0.0037616007,-0.20271055,-0.024398804,-0.25172424,9.803879,-5.5160522,16.105652,-43.717957,-0.023944134,-0.24823786,9.803479,-0.00047175214,0.001514867,0.00018501282,0.0,-4.5776367e-05,4.5776367e-05
-0.012175477,0.00379472,-0.20281062,-0.027038574,-0.24957275,9.803162,-5.41687,16.552734,-43.85681,-0.024442619,-0.24891326,9.80346,-0.0009181537,-0.0016123354,0.00091457367,0.00012207031,1.5258789e-05,0.00015258789
-0.012207169,0.003836256,-0.20293418,-0.024169922,-0.2514801,9.804108,-6.1050415,15.562439,-44.180298,-0.025082666,-0.24969015,9.803439,-0.0009950716,-0.0013216138,0.00013446808,-0.00012207031,7.6293945e-05,-1.5258789e-05
-0.012226641,0.0038296466,-0.20292765,-0.023208618,-0.24957275,9.805313,-5.986023,16.288757,-43.13202,-0.024879891,-0.25003755,9.803431,0.0004665181,-0.0007184744,0.00089359283,6.1035156e-05,1.5258789e-05,-7.6293945e-05
-0.012219389,0.0037859695,-0.20281167,-0.025131226,-0.2498169,9.8033905,-5.630493,17.346191,-44.670105,-0.024099598,-0.24972166,9.803441,0.0016093329,-8.289516e-05,0.0004272461,0.00012207031,-4.5776367e-05,-1.5258789e-05
-0.012214225,0.0038170223,-0.2028886,-0.024414062,-0.2498169,9.800049,-5.2764893,16.200256,-44.311523,-0.024696855,-0.24974792,9.803438,-0.0013790373,-5.502999e-05,0.00012207031,6.1035156e-05,-4.5776367e-05,-0.00019836426
-0.012202733,0.0038060287,-0.20285423,-0.020095825,-0.24909973,9.804596,-5.0613403,17.228699,-43.354797,-0.024540234,-0.24948269,9.803446,-0.00010483526,0.00013247132,-0.0027914047,0.0,-4.5776367e-05,-1.5258789e-05
-0.01222554,0.0037236915,-0.20265514,-0.021530151,-0.24957275,9.80101,-5.7113647,15.518188,-44.66095,-0.022919051,-0.24958843,9.803447,0.003539009,0.00024478137,0.0005340576,-0.00012207031,1.5258789e-05,0.00016784668
-0.012238285,0.0037035353,-0.20261022,-0.025131226,-0.25125122,9.803635,-5.5740356,16.61377,-43.762207,-0.02249275,-0.249752,9.803443,0.00047246367,-8.547306e-05,-0.00043582916,-6.1035156e-05,-4.5776367e-05,0.00016784668
-0.012255263,0.0037639993,-0.2027745,-0.022964478,-0.2534027,9.804596,-5.282593,16.055298,-44.34204,-0.023544462,-0.2503222,9.803427,-0.0018163659,-0.0011655688,0.0009813309,0.00012207031,-4.5776367e-05,-1.5258789e-05
-0.012282712,0.003769156,-0.20280243,-0.027038574,-0.24885559,9.803162,-5.4244995,16.331482,-43.600464,-0.023527136,-0.25087044,9.803412,7.663295e-05,-0.00179106,0.00096035004,0.0,-4.5776367e-05,0.00016784668
-0.012245048,0.0038041389,-0.20287205,-0.025848389,-0.24957275,9.804352,-4.7958374,16.009521,-43.766785,-0.024330992,-0.25028807,9.803425,-0.0019897055,0.0011956692,-0.001282692,6.1035156e-05,-0.00010681152,0.00010681152
-0.012234212,0.0038342124,-0.20294341,-0.026321411,-0.24932861,9.802444,-5.415344,16.625977,-43.992615,-0.024933401,-0.25020146,9.803426,-0.0011426043,0.00039726496,0.00042819977,-0.00012207031,1.5258789e-05,0.00022888184
-0.012221458,0.0038664856,-0.2030194,-0.023208618,-0.25053406,9.804825,-5.554199,15.2282715,-43.592834,-0.025584519,-0.25008702,9.803428,-0.0009816512,0.00026407838,-0.0014638901,0.0,0.00019836426,-1.5258789e-05
-0.012218143,0.0038367289,-0.20294127,-0.024887085,-0.25076294,9.804352,-6.260681,15.6188965,-43.711853,-0.02504625,-0.2499029,9.803433,0.0015946813,9.790063e-05,0.0014133453,0.0,7.6293945e-05,0.00022888184
-0.012248761,0.003838123,-0.20296125,-0.022735596,-0.25028992,9.802444,-5.0857544,16.71753,-43.458557,-0.02494601,-0.25049683,9.803418,0.0005333368,-0.0007251799,0.00014305115,-0.00012207031,1.5258789e-05,0.00033569336
-0.012253284,0.0037633234,-0.20277171,-0.021530151,-0.25076294,9.802673,-5.534363,15.893555,-44.59076,-0.023540063,-0.25028145,9.803428,0.0020093936,0.0007031858,-0.0015001297,-6.1035156e-05,-0.0002746582,0.00010681152
-0.012292864,0.0037505128,-0.20276001,-0.022247314,-0.25004578,9.805313,-5.760193,16.093445,-44.08722,-0.023139603,-0.2509902,9.803411,0.00040423125,-0.0007316172,0.00060272217,-0.00012207031,-0.00016784668,0.00010681152
-0.012275711,0.0037115212,-0.20265074,-0.025604248,-0.2498169,9.803864,-5.6777954,16.171265,-44.14978,-0.022486994,-0.2505033,9.803424,0.0009582341,0.00047302246,0.0010385513,0.00012207031,7.6293945e-05,4.5776367e-05
-0.012221248,0.003773437,-0.20278051,-0.024887085,-0.24932861,9.805069,-5.4138184,16.551208,-43.556213,-0.023859477,-0.24970673,9.803441,-0.0024598502,0.0013459623,0.0005273819,0.00018310547,1.5258789e-05,-7.6293945e-05
-0.012222899,0.0037721344,-0.20277806,-0.024414062,-0.25028992,9.802444,-4.3060303,16.340637,-44.625854,-0.02382852,-0.24973318,9.80344,-0.00033926778,-0.00029022992,3.33786e-05,-0.00012207031,-4.5776367e-05,0.00016784668
-0.012228489,0.0037933113,-0.2028354,-0.022735596,-0.24789429,9.803879,-5.735779,16.603088,-43.75763,-0.024198325,-0.24992613,9.803434,-0.00044418685,-0.000115171075,-0.0014095306,-6.1035156e-05,7.6293945e-05,-7.6293945e-05
-0.012202032,0.0037703912,-0.20276241,-0.022735596,-0.25100708,9.8033905,-6.323242,16.20636,-44.570923,-0.023882039,-0.2493252,9.803451,0.000918353,0.0011950284,0.00033187866,6.1035156e-05,7.6293945e-05,-0.0001373291
-0.012224415,0.0037644033,-0.20275903,-0.021530151,-0.24932861,9.801956,-5.432129,16.415405,-45.24231,-0.023678876,-0.24973111,9.803441,0.00047056936,-0.0012726933,-0.0004234314,0.00012207031,-4.5776367e-05,0.00015258789
-0.012217264,0.0037293863,-0.20266533,-0.025131226,-0.24885559,9.803879,-6.5963745,16.670227,-40.841675,-0.023058724,-0.24945237,9.80345,0.0015275907,0.0005861521,-0.0010757446,6.1035156e-05,0.0001373291,-7.6293945e-05
-0.012220792,0.0037599124,-0.20274556,-0.021057129,-0.25004578,9.802673,-6.0684204,16.360474,-43.717957,-0.02361048,-0.24964337,9.803444,-0.00080331415,-0.00064371526,0.0010404587,0.0,0.0001373291,-1.5258789e-05
-0.012215904,0.0037224016,-0.20264667,-0.023925781,-0.24957275,9.806747,-5.819702,16.67633,-44.421387,-0.022934744,-0.24939805,9.803451,0.0018762406,0.000527516,-0.0013809204,6.1035156e-05,1.5258789e-05,-0.0001373291
-0.012221763,0.0037421926,-0.2027006,-0.02130127,-0.25028992,9.802444,-6.083679,15.995789,-43.64319,-0.023277787,-0.24959049,9.803446,-0.0006464999,-0.0002103895,0.0024280548,-0.00018310547,7.6293945e-05,-0.0001373291
-0.012249623,0.003706283,-0.20262334,-0.022735596,-0.24932861,9.806747,-5.340576,16.485596,-44.026184,-0.022497103,-0.24998094,9.803437,0.0011967663,-0.00029861927,-0.0004529953,-6.1035156e-05,-0.00010681152,-7.6293945e-05
-0.012230888,0.0037158062,-0.20263776,-0.025604248,-0.25004578,9.804352,-6.340027,15.765381,-44.28253,-0.022750791,-0.24965939,9.803446,-0.00045465678,0.0005944371,0.0019359589,6.1035156e-05,1.5258789e-05,-7.6293945e-05
-0.012224702,0.0037751626,-0.20278679,-0.025604248,-0.24861145,9.805542,-5.8563232,15.872192,-44.58313,-0.023877274,-0.2497801,9.80344,-0.0021964367,-0.00071670115,0.00016784668,6.1035156e-05,-4.5776367e-05,4.5776367e-05
-0.012184191,0.0037895518,-0.20280203,-0.022979736,-0.24909973,9.805313,-5.5389404,15.898132,-45.269775,-0.024310892,-0.24905981,9.803457,-0.0010454897,0.001203686,0.00010967255,6.1035156e-05,-0.00010681152,4.5776367e-05
-0.012220888,0.0037534728,-0.20272908,-0.023925781,-0.25125122,9.8033905,-5.2581787,16.63971,-44.525146,-0.023490628,-0.2496192,9.803444,0.0014755297,-0.0008794069,-0.00024032593,-0.00012207031,7.6293945e-05,4.5776367e-05
-0.012214759,0.0037780313,-0.20278883,-0.023925781,-0.2498169,9.80603,-5.116272,16.215515,-44.692993,-0.023971401,-0.24960062,9.803444,-0.0006693229,0.0002951324,-0.0009622574,-6.1035156e-05,1.5258789e-05,-1.5258789e-05
-0.012225179,0.00378077,-0.20280144,-0.023452759,-0.24861145,9.801727,-5.593872,16.481018,-45.45288,-0.023979325,-0.24981192,9.803439,5.674921e-05,-0.00044459105,0.00079250336,0.0,7.6293945e-05,0.00010681152
-0.012206682,0.003771971,-0.20276895,-0.0236969,-0.24861145,9.804108,-5.734253,16.601562,-43.45703,-0.023892215,-0.24942094,9.803449,0.0009290334,0.00082302094,-0.0015363693,0.0,0.0001373291,-7.6293945e-05
-0.012194311,0.0037622682,-0.20273744,-0.025360107,-0.25076294,9.804352,-5.2093506,15.838623,-44.010925,-0.02376311,-0.24914408,9.803456,6.778352e-05,0.0005491078,0.00024700165,0.0,1.5258789e-05,-1.5258789e-05
-0.012237268,0.0038271877,-0.20292702,-0.021530151,-0.25125122,9.805786,-4.649353,15.72876,-43.980408,-0.024790525,-0.25023177,9.803426,-0.0015287679,-0.0017152131,0.00033187866,-0.00012207031,1.5258789e-05,-0.00019836426
-0.012264996,0.0037543983,-0.20275506,-0.024169922,-0.24980164,9.802673,-5.2963257,15.765381,-44.54956,-0.023326335,-0.25047043,9.803423,0.002272416,-0.00050216913,0.0010137558,0.00018310547,-0.00021362305,-1.5258789e-05
-0.01222764,0.0037412732,-0.20270139,-0.0236969,-0.25004578,9.8022,-5.7907104,15.359497,-43.707275,-0.023236558,-0.2496997,9.803443,-0.00045902468,0.0013465285,-0.0015544891,-0.00012207031,-4.5776367e-05,0.00010681152
-0.01225072,0.003764287,-0.20277281,-0.024642944,-0.25004578,9.801239,-5.558777,15.156555,-43.90869,-0.023568492,-0.25023606,9.803429,-0.0006022621,-0.0014970303,-0.0018434525,0.00012207031,7.6293945e-05,-1.5258789e-05
-0.012274195,0.0037676997,-0.20279413,-0.022491455,-0.24742126,9.803635,-6.6604614,15.893555,-44.847107,-0.023535179,-0.25070092,9.803417,8.100271e-05,-0.0012825727,0.0005636215,0.00012207031,7.6293945e-05,-0.00015258789
-0.012219278,0.0037372073,-0.20268647,-0.021530151,-0.24861145,9.806503,-4.722595,15.867615,-43.647766,-0.023195526,-0.24952263,9.803448,0.001420781,0.0018676221,0.0008506775,0.0,0.0001373291,-0.00021362305
-0.012191771,0.0037064713,-0.20259288,-0.024642944,-0.2498169,9.804825,-5.2764893,16.200256,-44.38629,-0.022738427,-0.24887013,9.803466,0.00072257966,0.0010041296,0.0026407242,6.1035156e-05,-4.5776367e-05,-9.1552734e-05
-0.012198688,0.0037514651,-0.20271204,-0.023925781,-0.25076294,9.801956,-6.0150146,15.858459,-44.200134,-0.023544697,-0.24918456,9.803455,-0.0010964964,-0.00084267557,-0.0007944107,-6.1035156e-05,0.0001373291,-0.0002593994
-0.012218073,0.0037720825,-0.20277533,-0.021774292,-0.25004578,9.804596,-6.8756104,15.852356,-41.371155,-0.023847416,-0.24964026,9.803443,-0.00032212958,-0.000645712,-0.001168251,0.0,7.6293945e-05,-1.5258789e-05
-0.012249357,0.0037340268,-0.20269442,-0.022491455,-0.24885559,9.801956,-4.9697876,15.931702,-44.607544,-0.023012817,-0.25008774,9.803433,0.001712326,-0.00066673756,0.00034236908,-0.00012207031,7.6293945e-05,-0.00015258789
-0.012226006,0.0037245585,-0.20265761,-0.023452759,-0.24836731,9.803635,-5.7769775,15.805054,-44.447327,-0.022933219,-0.24960086,9.803446,0.00019789487,0.0012212396,-0.0004005432,0.0,-4.5776367e-05,-0.00019836426
-0.0122193,0.0037332287,-0.20267628,-0.020812988,-0.24813843,9.804352,-6.248474,16.140747,-45.039368,-0.02312163,-0.24950698,9.803448,-8.6857006e-05,0.00042390823,-0.00011253357,-6.1035156e-05,7.6293945e-05,-7.6293945e-05
-0.012195915,0.0036918914,-0.20255768,-0.025848389,-0.24957275,9.805542,-5.343628,16.488647,-44.55414,-0.022450903,-0.24889098,9.803466,0.0013937801,0.0009967387,-7.724762e-05,6.1035156e-05,1.5258789e-05,4.5776367e-05
-0.012163374,0.0037598202,-0.20271459,-0.023208618,-0.24932861,9.801956,-5.1879883,16.349792,-44.059753,-0.023844944,-0.24853972,9.803471,-0.0027185325,0.00042292476,0.0017061234,6.1035156e-05,-4.5776367e-05,0.00010681152
-0.012214278,0.0037434977,-0.20269994,-0.022735596,-0.24861145,9.803864,-5.683899,16.1026,-44.692993,-0.023332777,-0.24945192,9.803449,0.00084191374,-0.0017929524,-0.001253128,6.1035156e-05,1.5258789e-05,-0.0001373291
-0.012182111,0.003730777,-0.20265009,-0.022018433,-0.24885559,9.8022,-6.188965,15.559387,-44.55414,-0.023229064,-0.24878256,9.803467,0.0002488792,0.0011275858,-0.00084781647,0.00012207031,1.5258789e-05,-7.6293945e-05
-0.012177975,0.0037177939,-0.20261456,-0.025360107,-0.24957275,9.804825,-5.718994,16.967773,-43.53485,-0.023005202,-0.2486507,9.803471,0.0007573571,-0.00043950975,-8.2969666e-05,0.00012207031,7.6293945e-05,0.00010681152
-0.012183689,0.0037628599,-0.20273326,-0.022491455,-0.24957275,9.804825,-5.8654785,17.401123,-44.34662,-0.02381778,-0.24894236,9.803461,-0.0013122875,-0.0010913163,0.0013751984,6.1035156e-05,7.6293945e-05,0.00022888184
-0.012183006,0.0037355078,-0.2026627,-0.0236969,-0.24836731,9.803162,-6.147766,16.357422,-43.789673,-0.023313154,-0.24881881,9.803465,0.00082371756,0.00022891164,0.0007543564,-0.00012207031,-0.00010681152,-7.6293945e-05
-0.01219485,0.0037632363,-0.2027402,-0.022262573,-0.25028992,9.805542,-5.3710938,15.675354,-43.434143,-0.023778858,-0.24915831,9.803455,-0.00063503906,-0.00016856194,-0.0015678406,-6.1035156e-05,0.0001373291,4.5776367e-05
-0.012214571,0.0037197298,-0.2026391,-0.0236969,-0.25028992,9.804108,-6.0562134,16.654968,-43.73474,-0.022890665,-0.24936168,9.8034525,0.0020792354,-0.00043822825,0.0011930466,0.00012207031,-4.5776367e-05,0.00010681152
-0.012229391,0.003742978,-0.2027067,-0.023452759,-0.25004578,9.807465,-6.478882,16.419983,-45.27588,-0.023260977,-0.24974024,9.803442,-0.0009069573,-0.0010013431,0.0003156662,6.1035156e-05,-4.5776367e-05,0.00010681152
-0.012213426,0.0037355737,-0.20267916,-0.02154541,-0.2498169,9.804596,-5.26886,16.270447,-43.844604,-0.02318929,-0.2494036,9.803451,-0.00025822595,0.00013136864,0.0027589798,-6.1035156e-05,-4.5776367e-05,0.00010681152
-0.012239684,0.0036999497,-0.20260176,-0.021057129,-0.24813843,9.805069,-5.935669,15.792847,-44.293213,-0.02242049,-0.24976446,9.803444,0.0013676211,-0.00023384392,-0.00071048737,0.0,-4.5776367e-05,4.5776367e-05
-0.012228105,0.0036781554,-0.20253964,-0.022964478,-0.24885559,9.80722,-5.7525635,16.467285,-45.07141,-0.022063784,-0.24945411,9.803452,0.00053709,0.0006376058,-0.00063610077,6.1035156e-05,-4.5776367e-05,4.5776367e-05
-0.012199819,0.0036979627,-0.20257534,-0.022491455,-0.25172424,9.803635,-5.2749634,16.27655,-44.674683,-0.022547496,-0.24899046,9.803463,-0.0009005815,0.00043067336,0.0010061264,0.0,7.6293945e-05,4.5776367e-05
-0.012245744,0.0037036405,-0.20261449,-0.019866943,-0.25172424,9.804108,-6.3186646,16.201782,-43.891907,-0.022464037,-0.24989574,9.803439,0.00022037514,-0.0017878562,-0.00092601776,0.0,1.5258789e-05,-7.6293945e-05
-0.012287732,0.0036717153,-0.20255499,-0.022735596,-0.25004578,9.803635,-6.3064575,16.419983,-43.77289,-0.021699252,-0.25057384,9.803424,0.0016062949,-0.00087311864,-0.0006132126,0.00012207031,1.5258789e-05,0.00022888184
-0.012259149,0.0036849168,-0.20257358,-0.024414062,-0.25004578,9.804108,-4.5959473,16.819763,-43.081665,-0.02206162,-0.25007787,9.803437,-0.00042720512,6.1929226e-05,-0.00025367737,6.1035156e-05,1.5258789e-05,-1.5258789e-05
-0.012245616,0.0037081176,-0.2026259,-0.022491455,-0.24932861,9.8033905,-5.760193,16.168213,-44.374084,-0.022547616,-0.24991134,9.803439,-0.0011475254,-0.000114932656,-0.0008134842,0.00018310547,7.6293945e-05,4.5776367e-05
-0.012217999,0.0037107526,-0.2026179,-0.021774292,-0.24789429,9.8033905,-6.7214966,16.174316,-43.8797,-0.022710033,-0.24939133,9.803452,-2.370216e-05,0.00080031157,9.6321106e-05,0.0,-4.5776367e-05,-1.5258789e-05
-0.012210659,0.0037021304,-0.20259184,-0.022247314,-0.2524414,9.803635,-4.9972534,15.274048,-44.51294,-0.02258026,-0.24921554,9.803457,0.0003186725,0.0003708303,-0.0007390976,0.0,7.6293945e-05,4.5776367e-05
-0.012255944,0.0037161333,-0.202652,-0.022979736,-0.24957275,9.803635,-5.580139,16.619873,-44.517517,-0.022653826,-0.25014213,9.803433,-8.183904e-05,-0.002300024,-0.00097465515,0.00012207031,-4.5776367e-05,0.00010681152
-0.0122390995,0.0037062506,-0.20261763,-0.022018433,-0.24765015,9.801483,-4.470825,16.029358,-43.623352,-0.022539772,-0.24977863,9.803443,0.00029382855,0.000694111,0.0012731552,6.1035156e-05,7.6293945e-05,4.5776367e-05
-0.012199372,0.003684953,-0.20254172,-0.026565552,-0.25028992,9.804108,-5.9921265,16.29486,-43.96057,-0.022307971,-0.24892943,9.803465,0.0002890993,0.001503259,-0.0015439987,6.1035156e-05,-4.5776367e-05,-1.5258789e-05
-0.012218421,0.0037217368,-0.20264632,-0.022491455,-0.2498169,9.803162,-6.164551,16.29486,-45.3125,-0.022912065,-0.24944375,9.803451,0.00042092055,-0.00059863925,0.0005235672,6.1035156e-05,-0.00010681152,0.00022888184
-0.0122412965,0.0037207704,-0.20265608,-0.020584106,-0.24932861,9.803879,-4.525757,16.911316,-45.103455,-0.022800071,-0.24987938,9.803439,0.00030935556,-0.0006465912,0.00035095215,-6.1035156e-05,-0.00010681152,0.00016784668
-0.012258803,0.0036699737,-0.20253505,-0.022491455,-0.24765015,9.805786,-5.24292,16.854858,-43.878174,-0.021785859,-0.25001097,9.803438,0.0009734761,0.0004451573,-7.6293945e-05,-0.00018310547,-0.00016784668,-1.5258789e-05
-0.012212539,0.003673102,-0.20251834,-0.022735596,-0.24932861,9.8029175,-6.0028076,16.001892,-43.644714,-0.022034,-0.24913467,9.80346,-0.00021173246,0.0017313063,0.0009050369,6.1035156e-05,1.5258789e-05,-1.5258789e-05
-0.012211117,0.003694924,-0.20257358,-0.022735596,-0.2514801,9.805542,-5.415344,16.625977,-43.992615,-0.022444684,-0.24919528,9.803457,-0.0005178377,-0.00059990585,0.00028419495,6.1035156e-05,0.0001373291,4.5776367e-05
-0.012231429,0.0036888642,-0.2025689,-0.021530151,-0.24932861,9.8022,-5.055237,15.704346,-44.348145,-0.022248784,-0.24956113,9.803449,0.0002318006,-0.00095666945,-0.0004529953,6.1035156e-05,-4.5776367e-05,0.00039672852
-0.012227658,0.0036893834,-0.20256822,-0.02130127,-0.25076294,9.805313,-5.7495117,16.464233,-44.692993,-0.022273913,-0.24949078,9.803451,0.0002560448,-7.5638294e-05,-0.00078201294,6.1035156e-05,-0.00010681152,-1.5258789e-05
-0.012265582,0.0036699662,-0.20253865,-0.022018433,-0.2514801,9.803162,-5.69458,15.884399,-44.737244,-0.021757858,-0.2501412,9.803435,0.00022930093,-0.0010916591,0.00091457367,-6.1035156e-05,-4.5776367e-05,0.00015258789
-0.01227979,0.0036740424,-0.20255671,-0.023208618,-0.24932861,9.802673,-6.5811157,15.821838,-44.335938,-0.02177507,-0.25043064,9.803429,0.0002457872,-9.343028e-05,-0.0006570816,-0.00012207031,-0.00016784668,-1.5258789e-05
-0.012276246,0.0036973397,-0.20261462,-0.02130127,-0.25196838,9.804108,-5.74646,16.462708,-44.392395,-0.022221752,-0.25045642,9.803426,-0.0017031003,0.00042113662,4.2915344e-05,-6.1035156e-05,1.5258789e-05,4.5776367e-05
-0.012304003,0.003670884,-0.20256156,-0.021774292,-0.2498169,9.8029175,-5.5511475,17.277527,-44.5343,-0.021616949,-0.25088313,9.803416,0.0010330919,-0.0008381903,-0.0006122589,0.0,-4.5776367e-05,4.5776367e-05
-0.012295668,0.0036811791,-0.20258352,-0.023452759,-0.25219727,9.806992,-6.237793,16.281128,-44.33136,-0.021842165,-0.25076446,9.803419,-0.0004050117,0.0004761219,-9.059906e-05,-0.00012207031,-4.5776367e-05,-9.1552734e-05
-0.012318335,0.003703411,-0.20265274,-0.022735596,-0.25125122,9.803635,-5.177307,16.493225,-43.65387,-0.022161279,-0.25128958,9.803405,-0.00081564486,-0.00087580085,0.0023422241,-6.1035156e-05,1.5258789e-05,-1.5258789e-05
-0.0123077715,0.0037299634,-0.20271525,-0.020584106,-0.2524414,9.8022,-6.045532,16.871643,-43.540955,-0.02269716,-0.2511937,9.803406,-0.00075387396,0.00044986606,-0.0009899139,6.1035156e-05,-4.5776367e-05,0.00033569336
-0.012354507,0.0036708983,-0.2025886,-0.022018433,-0.25268555,9.804596,-5.3207397,17.074585,-44.735718,-0.021409579,-0.25185356,9.803392,0.0017873589,-0.0012981594,-0.0009860992,0.0,-0.00010681152,0.00033569336
-0.012351909,0.003691103,-0.2026391,-0.021057129,-0.2498169,9.804108,-4.772949,16.52069,-43.66455,-0.021794938,-0.25188506,9.8033905,-0.000695752,-0.00030335784,0.00014400482,-6.1035156e-05,-0.00010681152,0.00010681152
-0.012339185,0.0036548052,-0.20253909,-0.019866943,-0.25125122,9.805313,-4.942322,16.43982,-44.125366,-0.02117413,-0.25149435,9.803402,0.0010799747,0.0012242794,0.00089359283,-6.1035156e-05,1.5258789e-05,0.00010681152
-0.012330099,0.003656125,-0.20253761,-0.024414062,-0.24980164,9.803162,-5.4626465,15.606689,-44.42444,-0.02123595,-0.25132507,9.803406,0.00018063001,-0.00037780404,0.000111579895,6.1035156e-05,7.6293945e-05,6.1035156e-05
-0.012280168,0.003707101,-0.20264179,-0.022018433,-0.25028992,9.807465,-5.7891846,17.332458,-44.288635,-0.022386681,-0.25057113,9.803423,-0.002025431,0.0015085042,7.43866e-05,0.00012207031,0.0001373291,-0.00030517578
-0.012266745,0.0037023262,-0.20262234,-0.022247314,-0.25172424,9.8029175,-4.79126,16.082764,-43.678284,-0.02235331,-0.25029397,9.80343,0.0005824622,0.00028672814,0.0013189316,6.1035156e-05,1.5258789e-05,0.00024414062
-0.01229763,0.003692908,-0.2026147,-0.022735596,-0.25172424,9.802673,-4.6417236,16.026306,-44.67621,-0.02205163,-0.25084943,9.803416,3.5647303e-05,-0.0010911226,-0.00087070465,0.0,-9.1552734e-05,1.5258789e-05
-0.012294863,0.0037024654,-0.20263775,-0.021774292,-0.24957275,9.803635,-5.503845,16.400146,-43.884277,-0.02224027,-0.2508348,9.803416,-0.00049478747,0.0003068149,-0.0016975403,-0.00012207031,1.5258789e-05,-0.00010681152
-0.012256963,0.003682206,-0.20256546,-0.021057129,-0.24813843,9.804596,-5.093384,16.725159,-44.59076,-0.022020318,-0.2500249,9.803437,0.0007193275,0.0006994903,-0.00017166138,0.00012207031,7.6293945e-05,1.5258789e-05
-0.012199968,0.0036749067,-0.20251626,-0.021530151,-0.24836731,9.806976,-5.987549,16.368103,-43.94684,-0.022119135,-0.2489004,9.803466,-0.00037078373,0.0019847304,0.00116539,-6.1035156e-05,-0.00010681152,0.00012207031
-0.012192028,0.0036609317,-0.20247614,-0.022964478,-0.24694824,9.805313,-6.1523438,16.207886,-43.292236,-0.021892484,-0.24869154,9.8034725,-0.00012216158,0.0008402765,0.0020523071,-6.1035156e-05,-4.5776367e-05,0.00018310547
-0.012177613,0.0036827011,-0.2025243,-0.023208618,-0.24957275,9.8029175,-5.281067,16.053772,-44.19098,-0.022355607,-0.24850227,9.803476,-0.0006061811,0.000637874,-0.0010204315,-0.00012207031,7.6293945e-05,0.00018310547
-0.012210271,0.0036938982,-0.2025705,-0.0236969,-0.25123596,9.803879,-5.1239014,15.916443,-43.922424,-0.02242913,-0.24917491,9.803458,-0.00053320266,-0.001335308,-0.00051784515,6.1035156e-05,-0.00015258789,0.00036621094
-0.012224958,0.0037166225,-0.20263669,-0.023452759,-0.25004578,9.802673,-6.3934326,16.342163,-44.085693,-0.02279031,-0.24954872,9.803448,-0.0006613843,-0.0009584427,-0.0009880066,0.0,7.6293945e-05,-6.1035156e-05
-0.012243782,0.0037470858,-0.20272495,-0.024887085,-0.25125122,9.8033905,-5.8044434,16.967773,-44.284058,-0.023277976,-0.25003332,9.803434,-0.000891421,-0.0007239878,-0.0004940033,0.0,-0.00015258789,0.00036621094
-0.012260255,0.0037485983,-0.20273764,-0.021774292,-0.25004578,9.8033905,-5.7678223,15.948486,-44.2688,-0.02323826,-0.25035596,9.803427,-0.0009313356,-0.0001746118,-0.00017356873,-0.00018310547,-0.0002746582,0.00036621094
-0.012264032,0.0037044308,-0.20262629,-0.022018433,-0.24908447,9.8029175,-5.833435,16.537476,-45.50476,-0.022403505,-0.25025034,9.8034315,0.00062957034,0.00020855665,4.673004e-05,0.0,-0.00015258789,0.0001373291
-0.012235147,0.0037053486,-0.2026132,-0.022491455,-0.24957275,9.806747,-6.642151,16.18042,-43.959045,-0.022539288,-0.24969904,9.803445,4.8192218e-05,0.0013357252,3.33786e-05,-6.1035156e-05,1.5258789e-05,0.00030517578
-0.012247785,0.003709001,-0.20262933,-0.022262573,-0.24838257,9.8029175,-6.489563,16.123962,-44.95697,-0.022555083,-0.24995661,9.803439,-0.00042260252,-0.0005547255,0.0014562607,6.1035156e-05,1.5258789e-05,0.0001373291
-0.012211672,0.0036921538,-0.20256677,-0.022018433,-0.24909973,9.8033905,-6.1691284,16.070557,-44.75403,-0.022391016,-0.24919479,9.803458,0.0008615926,0.0015527457,-0.0011034012,6.1035156e-05,7.6293945e-05,0.00018310547
-0.012222934,0.0036893368,-0.20256557,-0.024642944,-0.25053406,9.805069,-5.091858,16.723633,-44.213867,-0.022292469,-0.24939983,9.803453,0.0002744831,-0.00064095855,-0.0002593994,0.0,1.5258789e-05,6.1035156e-05
-0.012226022,0.003724992,-0.20265873,-0.021774292,-0.25076294,9.803879,-5.834961,16.156006,-43.467712,-0.022941198,-0.24960293,9.803447,-0.0014709029,-0.0009098053,0.0012578964,6.1035156e-05,1.5258789e-05,-6.1035156e-05
-0.012247611,0.0036971313,-0.20259877,-0.022262573,-0.25172424,9.804352,-5.769348,15.950012,-44.418335,-0.022335619,-0.24990536,9.803439,0.0010363255,-0.00060658157,4.4822693e-05,6.1035156e-05,-0.00021362305,0.0001373291
-0.012269033,0.0037058706,-0.20263267,-0.023208618,-0.2476654,9.803162,-5.2734375,16.197205,-44.0094,-0.022409646,-0.25035223,9.803429,-0.0005687773,-0.0011131763,-0.0006132126,0.00018310547,7.6293945e-05,-0.00010681152
-0.012209697,0.0037082809,-0.20260711,-0.02368164,-0.25004578,9.803879,-4.774475,16.59851,-44.326782,-0.022698311,-0.24922185,9.803456,-0.00050967,0.001334548,-0.00056934357,0.00012207031,-0.00010681152,0.0001373291
-0.012198717,0.0037117177,-0.20261006,-0.01890564,-0.25004578,9.8033905,-5.5892944,16.09497,-42.811584,-0.022807201,-0.24902475,9.803461,-0.00015690364,-7.0914626e-05,-0.00023078918,0.00012207031,0.0001373291,7.6293945e-05
-0.012247877,0.0036797032,-0.20255418,-0.022979736,-0.24885559,9.803879,-5.584717,16.473389,-44.395447,-0.022011237,-0.24984026,9.803442,0.0021452494,-0.0021172613,0.00048351288,0.00012207031,0.0001373291,0.00024414062
-0.012201289,0.0036834565,-0.20253891,-0.022491455,-0.25053406,9.8022,-6.52771,16.764832,-43.23883,-0.022272334,-0.24896021,9.803464,-0.00021891668,0.0015412122,-0.00063610077,0.00012207031,0.0001373291,-0.000289917
-0.012231079,0.003711607,-0.2026271,-0.0236969,-0.25053406,9.801956,-6.137085,16.648865,-43.807983,-0.022672111,-0.24964611,9.803446,-0.00029241107,-0.001834482,-0.00026512146,6.1035156e-05,7.6293945e-05,1.5258789e-05
-0.012222832,0.0037288014,-0.2026668,-0.022979736,-0.2524414,9.805069,-5.0308228,16.290283,-44.378662,-0.02302498,-0.24955702,9.803448,-0.00018482469,-0.0005016178,-0.0009860992,0.00018310547,0.00019836426,-4.5776367e-05
-0.0122667635,0.0037559362,-0.20275997,-0.024414062,-0.24836731,9.801956,-7.939148,16.099548,-44.90509,-0.023347585,-0.2505106,9.803422,-0.0001051873,-0.0024039745,0.0009355545,6.1035156e-05,1.5258789e-05,0.0001373291
-0.012215991,0.0037650983,-0.2027563,-0.022018433,-0.25125122,9.803162,-5.4611206,15.605164,-44.34967,-0.02372643,-0.24957207,9.803446,-0.00068888627,0.0021376312,-0.0009717941,-6.1035156e-05,0.0001373291,-4.5776367e-05
-0.012266146,0.0037632005,-0.20277828,-0.022735596,-0.25004578,9.800522,-6.3217163,16.279602,-44.78302,-0.02348486,-0.2505281,9.803422,0.00123672,-0.0014490783,0.00031280518,-0.00012207031,7.6293945e-05,-0.00016784668
-0.012276643,0.0037401419,-0.20272471,-0.022735596,-0.2498169,9.8029175,-5.8258057,16.529846,-44.45038,-0.023014,-0.2506367,9.80342,0.00051917136,0.00031006336,-0.0021781921,-0.00012207031,-0.00010681152,7.6293945e-05
-0.012251703,0.0037307984,-0.20268738,-0.022491455,-0.24957275,9.804596,-4.4799805,16.036987,-44.680786,-0.022943286,-0.25011978,9.803432,0.00045010448,0.00052818656,0.0014123917,0.00012207031,-4.5776367e-05,1.5258789e-05
-0.012258832,0.0037084082,-0.20263372,-0.023925781,-0.25028992,9.801483,-5.609131,15.962219,-44.65027,-0.02249866,-0.25016645,9.803432,0.00047997944,0.00034680963,0.0012712479,-0.00012207031,7.6293945e-05,1.5258789e-05
-0.012249417,0.0037499662,-0.20273535,-0.0236969,-0.24932861,9.802444,-4.4555664,16.622925,-44.71283,-0.023308223,-0.2501532,9.8034315,-0.0011081174,-0.00016117096,-0.001707077,0.00024414062,7.6293945e-05,0.00012207031
-0.012220192,0.0037438436,-0.202704,-0.020584106,-0.24861145,9.804108,-6.1447144,16.505432,-43.988037,-0.023314875,-0.24956697,9.803447,-0.00038397685,0.00069049,0.00029182434,-6.1035156e-05,-0.00010681152,0.00024414062
-0.01220365,0.0036839617,-0.20254146,-0.024887085,-0.2498169,9.8033905,-5.36499,15.977478,-44.50531,-0.022272,-0.24900763,9.803463,0.0016865674,0.0013426393,0.0005121231,0.00012207031,-4.5776367e-05,0.00024414062
-0.012222263,0.0037403041,-0.20269603,-0.022979736,-0.24861145,9.802429,-5.99823,16.529846,-45.877075,-0.023240695,-0.24959248,9.803446,-0.0014026128,-0.0016626567,0.00081539154,-6.1035156e-05,0.00019836426,0.0001373291
-0.012194366,0.0037563741,-0.20272234,-0.023925781,-0.24861145,9.801239,-6.326294,16.055298,-44.073486,-0.023653539,-0.24912132,9.803456,-4.5219436e-05,0.001207456,-0.001203537,6.1035156e-05,0.0001373291,-0.00010681152
-0.012226205,0.0037733363,-0.20278291,-0.022735596,-0.24957275,9.801956,-5.2703857,16.34674,-44.3573,-0.02383721,-0.24980156,9.803438,0.00015186891,-0.0019614697,-0.0013942719,6.1035156e-05,1.5258789e-05,0.0001373291
-0.012208517,0.0037422916,-0.20269376,-0.022964478,-0.24932861,9.8033905,-5.279541,16.052246,-44.039917,-0.023334099,-0.24933639,9.8034525,0.00083940476,0.00044620037,0.0003376007,6.1035156e-05,-0.00010681152,0.00024414062
-0.012227734,0.003729947,-0.20267236,-0.025131226,-0.24957275,9.803162,-6.17218,15.924072,-44.480896,-0.02302607,-0.24965578,9.803444,-0.00018488616,-0.0006594807,0.0007123947,-6.1035156e-05,-0.00010681152,0.00018310547
-0.012224634,0.0037767391,-0.2027908,-0.02130127,-0.25076294,9.800278,-6.1157227,17.23938,-44.59381,-0.023906793,-0.24978514,9.803439,-0.0012260955,0.0001950264,0.0006322861,0.0,7.6293945e-05,7.6293945e-05
-0.012233686,0.0037421058,-0.20270675,-0.025848389,-0.25004578,9.8033905,-6.14624,16.35437,-43.489075,-0.023227133,-0.24981923,9.80344,0.0016934108,-0.00026495755,-0.0016555786,6.1035156e-05,7.6293945e-05,0.00024414062
-0.012233925,0.0037775931,-0.20279796,-0.024169922,-0.2514801,9.805313,-5.6533813,16.680908,-43.821716,-0.023884406,-0.24996713,9.803435,-0.0017217398,-9.851158e-05,0.0014514923,-0.00018310547,-0.00010681152,0.00018310547
-0.012264007,0.0037778583,-0.20281476,-0.020584106,-0.25100708,9.802673,-4.6066284,16.679382,-43.788147,-0.023765527,-0.2505462,9.803421,0.0003120862,-0.0011852384,0.00096797943,0.00012207031,1.5258789e-05,-4.5776367e-05
-0.012276698,0.0037371574,-0.20271708,-0.022018433,-0.2514801,9.804825,-5.74646,16.462708,-44.39087,-0.022958418,-0.2506257,9.80342,0.002144603,-0.00039041042,-0.00014972687,0.0,0.0001373291,6.1035156e-05
-0.0122900475,0.0037199033,-0.20267993,-0.020812988,-0.25028992,9.804352,-5.995178,16.299438,-44.413757,-0.022583496,-0.25081262,9.803417,0.0005663503,-0.0006531775,0.0018110275,6.1035156e-05,-4.5776367e-05,1.5258789e-05
-0.012264035,0.0037006524,-0.2026166,-0.025360107,-0.25004578,9.800522,-5.958557,17.10205,-44.100952,-0.02233341,-0.25023514,9.8034315,0.0005606543,0.00043547153,0.0002450943,0.00012207031,7.6293945e-05,1.5258789e-05
-0.012255104,0.003754082,-0.20274895,-0.019622803,-0.2514801,9.8022,-6.1706543,15.9210205,-44.10553,-0.023361163,-0.25027913,9.803429,-0.0012833942,0.00021606684,-0.002702713,0.00018310547,0.00019836426,-4.5776367e-05
-0.012274198,0.0037089312,-0.20264329,-0.021530151,-0.25076294,9.8022,-5.9936523,16.374207,-44.62433,-0.022445178,-0.2504638,9.803426,0.0023468602,-0.001288265,-0.0008535385,6.1035156e-05,7.6293945e-05,-4.5776367e-05
-0.012290681,0.003697491,-0.20262274,-0.022491455,-0.25364685,9.805313,-5.055237,15.628052,-43.833923,-0.022165205,-0.2507344,9.803419,0.0008615572,-0.00054371357,6.198883e-05,-6.1035156e-05,0.0001373291,1.5258789e-05
-0.012342289,0.0037285527,-0.2027301,-0.024414062,-0.24861145,9.801956,-5.5770874,16.616821,-44.140625,-0.022528974,-0.25185123,9.80339,-0.00020727329,-0.0018029213,0.001490593,-0.00012207031,0.0001373291,-0.00010681152
-0.012269444,0.0037468327,-0.20273803,-0.021774292,-0.2498169,9.803879,-5.0186157,16.43219,-43.821716,-0.023167713,-0.25052536,9.803422,-0.0010019746,0.0026336014,0.00083065033,0.0,-4.5776367e-05,-0.000289917
-0.012283523,0.0037219755,-0.20268176,-0.022964478,-0.2476654,9.803635,-5.760193,16.091919,-44.01245,-0.022648765,-0.2506956,9.803419,0.0006295424,0.0001527667,-0.0008764267,-6.1035156e-05,-3.0517578e-05,0.00019836426
-0.012210401,0.0037040578,-0.20259665,-0.022964478,-0.24885559,9.801956,-5.934143,15.791321,-43.914795,-0.022617074,-0.24921836,9.803457,0.00012444519,0.0022571683,-0.0002746582,0.00012207031,0.0001373291,-4.5776367e-05
-0.012214351,0.003733648,-0.2026747,-0.024642944,-0.2505188,9.802673,-5.645752,15.235901,-45.401,-0.023149757,-0.24941361,9.803451,-0.0005477946,-0.00016619265,0.0004606247,0.0,7.6293945e-05,-0.00010681152
-0.012222834,0.0037505322,-0.20272258,-0.022247314,-0.25125122,9.799561,-5.783081,15.660095,-44.552612,-0.023428079,-0.24964473,9.803444,-0.00049968064,-0.0011392981,-0.0011329651,0.00018310547,-4.5776367e-05,-4.5776367e-05
-0.0122420695,0.0037390213,-0.20270333,-0.022262573,-0.25196838,9.803635,-6.4682007,16.560364,-44.64264,-0.023135435,-0.24996786,9.803436,0.0008843448,-0.0006069988,-0.0015592575,6.1035156e-05,-4.5776367e-05,7.6293945e-05
-0.0122789685,0.0037284365,-0.2026959,-0.019622803,-0.2514801,9.803635,-5.5252075,16.189575,-45.285034,-0.02278733,-0.25063413,9.80342,0.0007662475,-0.0015922785,0.00088119507,0.0,0.0002593994,0.00024414062
-0.012281146,0.003686201,-0.20258865,-0.024398804,-0.24836731,9.803635,-4.7470093,15.509033,-44.778442,-0.02199501,-0.2505057,9.803426,0.0021277685,-3.1739473e-05,0.0020198822,6.1035156e-05,1.5258789e-05,0.0001373291
-0.0122375395,0.0037212567,-0.20265532,-0.022491455,-0.25004578,9.803879,-5.4901123,16.767883,-43.962097,-0.022824548,-0.24980915,9.803441,-0.0018197633,0.0007097125,-0.00089740753,0.00024414062,1.5258789e-05,7.6293945e-05
-0.012234232,0.0037156036,-0.20263903,-0.019866943,-0.24932861,9.803635,-4.6188354,16.537476,-44.573975,-0.022733279,-0.24972282,9.803444,0.0007148329,-0.00032310188,0.0011577606,6.1035156e-05,7.6293945e-05,6.1035156e-05
-0.012243033,0.0036802273,-0.20255293,-0.022262573,-0.2498169,9.801956,-6.0531616,16.651917,-43.28308,-0.02204087,-0.24974932,9.803445,0.0014568921,0.00017802417,0.00013256073,-6.1035156e-05,1.5258789e-05,0.00036621094
-0.012260632,0.0036853515,-0.2025755,-0.021057129,-0.25004578,9.804108,-4.862976,16.217041,-43.118286,-0.022063583,-0.25010806,9.803434,-0.00020054169,-0.00044357777,-0.0015068054,-6.1035156e-05,1.5258789e-05,7.6293945e-05
-0.012249527,0.0036532015,-0.20248704,-0.023208618,-0.2505188,9.803879,-5.3375244,16.482544,-43.649292,-0.021512853,-0.24976522,9.803446,0.0011721756,0.00090135634,0.0007572174,-0.00012207031,1.5258789e-05,0.00018310547
-0.012273647,0.00371588,-0.20266083,-0.022491455,-0.25125122,9.802444,-4.4540405,16.545105,-44.20166,-0.022576327,-0.25048125,9.803425,-0.0015929956,-0.0009922087,0.0011396408,-6.1035156e-05,0.0001373291,-4.5776367e-05
-0.012277158,0.0037038682,-0.20263188,-0.022491455,-0.24789429,9.803162,-4.8355103,17.17987,-44.810486,-0.0223391,-0.25050026,9.803425,0.00079370476,-0.00026249886,-0.00051403046,6.1035156e-05,7.6293945e-05,0.00030517578
-0.012214643,0.0037109617,-0.20261663,-0.020339966,-0.24885559,9.8033905,-5.970764,16.96167,-45.10956,-0.022727711,-0.24932772,9.803454,-0.00023776107,0.0018955469,-0.0008249283,0.00018310547,0.0001373291,-4.5776367e-05
-0.012208959,0.0036806914,-0.20253591,-0.0236969,-0.25053406,9.804352,-5.4885864,16.688538,-43.374634,-0.022189511,-0.24909647,9.803461,0.0016047116,-0.00048406422,0.00023555756,0.00018310547,7.6293945e-05,-6.1035156e-05
-0.01222512,0.0036994002,-0.20259257,-0.022491455,-0.25125122,9.804108,-5.9661865,16.72821,-43.043518,-0.022470161,-0.24948241,9.803451,-0.0007378571,-0.000800848,0.0011129379,-6.1035156e-05,1.5258789e-05,7.6293945e-05
-0.012220568,0.0037221452,-0.2026485,-0.023208618,-0.2498169,9.805786,-5.267334,16.421509,-44.569397,-0.022910811,-0.24948664,9.803449,0.000421172,0.0018562824,0.0010871887,0.0,0.0001373291,0.00018310547
-0.012238967,0.003715348,-0.2026409,-0.021774292,-0.24908447,9.805069,-5.2001953,15.983582,-43.90564,-0.02270907,-0.24981278,9.803442,0.00022063218,-0.0004439652,0.001042366,-6.1035156e-05,-0.00015258789,7.6293945e-05
-0.01223458,0.0036947657,-0.20258573,-0.022262573,-0.25004578,9.805542,-5.709839,15.440369,-44.148254,-0.022345304,-0.24964546,9.803446,0.00032934733,0.00034448504,-0.00042438507,-6.1035156e-05,1.5258789e-05,7.6293945e-05
-0.012234867,0.0037030536,-0.20260715,-0.022735596,-0.25172424,9.804825,-5.5877686,16.39862,-44.259644,-0.022497872,-0.24968438,9.803445,-0.00023445673,-9.62615e-05,0.00067329407,-6.1035156e-05,-4.5776367e-05,0.00024414062
-0.012274629,0.0037175573,-0.20266566,-0.02368164,-0.24789429,9.803635,-4.9957275,15.423584,-45.085144,-0.022603396,-0.25050688,9.803424,-0.00037323125,-0.00093877316,-0.00017642975,-6.1035156e-05,1.5258789e-05,7.6293945e-05
-0.012219194,0.0037254493,-0.20265625,-0.021774292,-0.25004578,9.804352,-5.0354004,16.142273,-44.10858,-0.022977754,-0.24947359,9.80345,-0.00022828206,0.002080351,-0.00044250488,-6.1035156e-05,7.6293945e-05,-0.000289917
-0.012257698,0.0037262735,-0.20267898,-0.021530151,-0.24885559,9.804108,-6.1080933,15.638733,-44.921875,-0.0228347,-0.25021672,9.803431,0.00034549832,-0.0010097921,-0.00029087067,-0.00012207031,7.6293945e-05,6.1035156e-05
-0.012234723,0.0036989576,-0.20259656,-0.023208618,-0.2514801,9.801483,-5.279541,16.203308,-44.839478,-0.022422476,-0.24966513,9.803446,0.0011238903,0.0013277084,0.0004491806,6.1035156e-05,1.5258789e-05,0.00024414062
-0.012274752,0.0037235096,-0.202681,-0.022491455,-0.25076294,9.803162,-5.1223755,16.06903,-44.72351,-0.02271329,-0.25053325,9.803423,-0.00025138631,-0.0019103587,-0.002571106,0.0,7.6293945e-05,0.00018310547
-0.012251283,0.003715671,-0.20264833,-0.024169922,-0.2498169,9.803635,-5.9921265,16.374207,-44.62433,-0.022664415,-0.2500507,9.803435,-7.136725e-05,0.00096416473,3.528595e-05,0.00012207031,-4.5776367e-05,7.6293945e-05
-0.012247006,0.0037345362,-0.20269446,-0.022262573,-0.25196838,9.803162,-5.744934,16.383362,-43.652344,-0.023031935,-0.25004464,9.803435,-0.00066435896,-0.00071173906,0.00065898895,0.00012207031,1.5258789e-05,0.00024414062
-0.0122773275,0.0037330922,-0.20270698,-0.023208618,-0.24789429,9.803162,-5.6793213,16.174316,-44.300842,-0.022880431,-0.2506214,9.803421,0.00014376082,-0.0015876293,-0.0014772415,6.1035156e-05,-4.5776367e-05,7.6293945e-05
-0.01221249,0.0037184735,-0.20263477,-0.025131226,-0.25004578,9.801956,-5.682373,16.099548,-44.39087,-0.022875912,-0.24931662,9.803453,-0.0005776603,0.00260365,0.0002861023,0.00012207031,-0.00015258789,-4.5776367e-05
-0.012218236,0.0037743442,-0.20278123,-0.024887085,-0.2498169,9.801712,-5.1452637,15.403748,-43.800354,-0.023888702,-0.24965253,9.803443,-0.0017168932,-0.001368627,-0.0004453659,6.1035156e-05,0.0001373291,1.5258789e-05
-0.012221534,0.0037937732,-0.20283285,-0.025131226,-0.24885559,9.803162,-5.104065,16.43219,-44.421387,-0.024235524,-0.24979438,9.803438,-0.0004093442,-0.00027121603,-0.00045967102,0.0,-4.5776367e-05,7.6293945e-05
-0.012210381,0.0037913683,-0.2028207,-0.022491455,-0.25053406,9.803162,-4.876709,16.307068,-45.440674,-0.02423681,-0.24957038,9.803444,6.456487e-05,0.00069086254,-0.0003042221,-0.00012207031,7.6293945e-05,7.6293945e-05
-0.012215266,0.0037662925,-0.20275897,-0.02154541,-0.25100708,9.804825,-6.0150146,15.859985,-44.351196,-0.023751562,-0.24956296,9.803446,0.0007866826,-0.00025814772,0.0015449524,0.00024414062,1.5258789e-05,-0.00016784668
-0.012231274,0.0037310189,-0.20267701,-0.023208618,-0.25125122,9.804825,-4.9301147,16.731262,-44.067383,-0.023031397,-0.24972814,9.803443,0.0017302241,-0.0015220344,0.00037956238,0.00024414062,7.6293945e-05,7.6293945e-05
-0.012240221,0.0037503853,-0.2027315,-0.023925781,-0.24813843,9.803635,-5.3619385,16.123962,-44.85321,-0.023353828,-0.2499782,9.803435,-0.00032624044,-0.00076791644,0.0012178421,-6.1035156e-05,-4.5776367e-05,0.00036621094
-0.012220257,0.003753636,-0.20272917,-0.022491455,-0.2534027,9.803635,-5.657959,16.685486,-44.425964,-0.023496253,-0.24960774,9.803445,-0.00042890944,0.0007586926,-0.00078487396,6.1035156e-05,7.6293945e-05,0.0001373291
-0.012274599,0.0037485436,-0.20274518,-0.021057129,-0.24980164,9.802444,-6.517029,17.132568,-43.769836,-0.023178237,-0.2506313,9.803419,0.0009315368,-0.0020475686,-4.4822693e-05,-6.1035156e-05,7.6293945e-05,7.6293945e-05
-0.012267499,0.003735389,-0.20270762,-0.022964478,-0.25100708,9.804108,-6.2713623,15.553284,-44.630432,-0.02296346,-0.25044182,9.803425,0.0016618147,0.00063610077,-0.0008201599,0.0,0.0002593994,7.6293945e-05
-0.012276522,0.0037386431,-0.20272079,-0.022979736,-0.25004578,9.8029175,-6.085205,15.995789,-43.792725,-0.022986699,-0.25062832,9.80342,-0.00022199564,-0.00037959218,0.00024700165,-6.1035156e-05,-0.00010681152,-4.5776367e-05
-0.012288486,0.0037292007,-0.20270297,-0.023208618,-0.24813843,9.802673,-6.387329,16.488647,-44.0567,-0.023087986,-0.25103524,9.803411,-0.0005921237,-0.0009165108,0.00053596497,0.0,1.5258789e-05,-4.5776367e-05
-0.012243836,0.0037574337,-0.20275153,-0.025848389,-0.24885559,9.804108,-7.192993,16.51001,-44.24591,-0.023469696,-0.25007612,9.803432,-0.00021154992,0.0019418895,-0.0009241104,0.0,7.6293945e-05,7.6293945e-05
-0.012218663,0.0037958652,-0.20283668,-0.023208618,-0.25076294,9.8022,-4.6081543,16.604614,-43.5791,-0.024286143,-0.24974766,9.803439,-0.0017909091,0.0008943081,-0.00013637543,0.0,1.5258789e-05,0.00018310547
-0.012233586,0.0037720462,-0.20278354,-0.02130127,-0.25219727,9.804108,-5.2581787,16.564941,-44.08722,-0.02378291,-0.2499382,9.803436,0.00129099,-0.0006007403,-0.0005712509,-6.1035156e-05,1.5258789e-05,-4.5776367e-05
-0.012282152,0.0037437293,-0.20273687,-0.022247314,-0.25004578,9.806259,-5.0491333,15.853882,-44.54193,-0.023057865,-0.250757,9.803416,0.0012844019,-0.0014312267,0.0010557175,6.1035156e-05,-4.5776367e-05,1.5258789e-05
-0.012286361,0.0037181713,-0.20267351,-0.022247314,-0.25004578,9.806259,-6.32782,16.210938,-45.098877,-0.022566529,-0.25073478,9.803418,0.0010390934,2.026558e-06,0.001660347,-6.1035156e-05,7.6293945e-05,0.0001373291
-0.012262979,0.0037259792,-0.20268105,-0.022491455,-0.25196838,9.804596,-6.188965,15.557861,-44.404602,-0.022807522,-0.25031698,9.803428,-0.0006412361,0.0012764037,0.0011110306,-6.1035156e-05,-0.00015258789,7.6293945e-05
-0.012289549,0.0037143969,-0.20266552,-0.022735596,-0.25004578,9.8033905,-5.014038,16.653442,-44.30542,-0.022483418,-0.25078082,9.803418,0.00046835095,-0.0011500418,-0.00053310394,0.00012207031,7.6293945e-05,1.5258789e-05
-0.012272156,0.003720243,-0.20267123,-0.022262573,-0.25196838,9.805069,-5.088806,16.720581,-43.836975,-0.022663383,-0.2504702,9.803425,-7.034093e-05,-4.3183565e-05,-0.0013170242,0.00018310547,1.5258789e-05,1.5258789e-05
-0.0122906435,0.0037137088,-0.20266435,-0.022491455,-0.25172424,9.8029175,-4.499817,15.522766,-44.407654,-0.022466157,-0.25079906,9.803417,0.0006938409,-0.0013761222,7.247925e-05,6.1035156e-05,7.6293945e-05,-0.00030517578
-0.012305999,0.0037176723,-0.20268275,-0.022018433,-0.24861145,9.801727,-5.557251,15.309143,-44.55719,-0.022476502,-0.25111008,9.803409,-1.4003366e-05,-0.0003593862,-0.0009059906,0.0,1.5258789e-05,-0.00035095215
-0.012260365,0.0037087924,-0.20263553,-0.02368164,-0.25125122,9.805313,-5.1071167,16.355896,-44.136047,-0.022499485,-0.25019747,9.803432,8.786097e-06,0.001594454,-0.00012779236,0.0,7.6293945e-05,1.5258789e-05
-0.012268758,0.0037327716,-0.20270157,-0.021057129,-0.25100708,9.801483,-5.332947,16.555786,-43.559265,-0.02290973,-0.25045544,9.803424,-0.00029726885,-0.0005339682,0.00070858,0.00024414062,0.0001373291,-0.00010681152
-0.0122712385,0.0037140262,-0.20265478,-0.02130127,-0.25004578,9.804352,-6.5231323,16.912842,-43.437195,-0.022551846,-0.2504275,9.803427,0.0012496058,-0.0005903244,-0.0022392273,-6.1035156e-05,7.6293945e-05,1.5258789e-05
-0.012261984,0.0036856872,-0.20257708,-0.020339966,-0.24885559,9.804596,-5.3359985,16.404724,-43.13507,-0.022064252,-0.25013542,9.803434,0.0012513082,0.0005631745,0.00089740753,0.0,7.6293945e-05,-0.00022888184
-0.012254106,0.0036538057,-0.20249103,-0.022735596,-0.24957275,9.805069,-6.413269,15.98053,-44.53888,-0.021505242,-0.24985562,9.803443,0.00092269666,5.686283e-05,0.0013875961,0.00018310547,-4.5776367e-05,1.5258789e-05
-0.012221905,0.0036827077,-0.202548,-0.021774292,-0.25004578,9.805313,-5.2108765,15.992737,-45.26367,-0.022173716,-0.24935333,9.803454,-0.0010329839,0.000763461,0.00029277802,6.1035156e-05,7.6293945e-05,1.5258789e-05
-0.012225948,0.0036774452,-0.20253666,-0.023452759,-0.24932861,9.803162,-5.557251,16.978455,-43.53943,-0.022059476,-0.24940985,9.803454,0.00028786063,-0.0006056577,0.00066947937,0.00012207031,7.6293945e-05,1.5258789e-05
-0.012226506,0.0037075882,-0.20261432,-0.023452759,-0.25219727,9.805069,-6.4697266,16.334534,-43.632507,-0.022616358,-0.24954207,9.80345,-0.0008344166,-0.00048179924,-0.00067424774,-6.1035156e-05,7.6293945e-05,-0.00016784668
-0.012276837,0.0037219992,-0.20267825,-0.022735596,-0.25004578,9.803864,-5.0842285,16.868591,-44.18335,-0.022676704,-0.2505672,9.803422,-5.6074932e-05,-0.0015989542,0.00067329407,-6.1035156e-05,1.5258789e-05,1.5258789e-05
-0.012280627,0.003741366,-0.20272999,-0.0236969,-0.24932861,9.805313,-6.3598633,17.071533,-43.789673,-0.023020308,-0.25071818,9.803417,-0.0006600041,-3.0308962e-05,-0.0013093948,-6.1035156e-05,-0.00010681152,-0.00035095215
-0.012244529,0.0037546242,-0.2027447,-0.02368164,-0.2505188,9.806259,-5.697632,15.504456,-42.851257,-0.023414733,-0.2500781,9.803433,-0.00027941726,0.0012518764,0.0012025833,-6.1035156e-05,0.0002593994,1.5258789e-05
-0.0122469645,0.0037736185,-0.20279475,-0.024887085,-0.24789429,9.803635,-5.253601,16.789246,-44.64569,-0.023757022,-0.2502016,9.80343,-0.00016500987,0.0006683469,0.0008096695,-0.00024414062,0.0001373291,-0.00016784668
-0.012210968,0.0037737894,-0.20277591,-0.018661499,-0.24861145,9.804108,-4.7058105,16.308594,-43.936157,-0.023908312,-0.24951063,9.803446,-1.4835969e-05,0.0016438365,-0.0008916855,6.1035156e-05,7.6293945e-05,-0.00016784668
-0.012219977,0.0036949744,-0.20257846,-0.024414062,-0.25100708,9.804108,-6.1431885,16.581726,-44.34967,-0.022409204,-0.24936575,9.803454,0.0032617468,6.297231e-05,-0.000118255615,0.00012207031,7.6293945e-05,-0.00022888184
-0.012218497,0.0037399367,-0.20269306,-0.022262573,-0.24932861,9.803146,-5.9524536,17.019653,-43.058777,-0.023249371,-0.24951863,9.803448,-0.0016361289,-0.0009984225,-0.00072574615,0.00018310547,7.6293945e-05,-0.00022888184
-0.012212745,0.0037296144,-0.2026635,-0.024414062,-0.25028992,9.80603,-5.491638,16.69159,-43.75,-0.02308154,-0.24936646,9.803452,0.0013093706,6.0796738e-05,0.0004711151,-6.1035156e-05,0.0001373291,-0.00010681152
-0.01223823,0.0037387798,-0.20270066,-0.023208618,-0.25100708,9.805313,-5.0476074,16.001892,-45.04242,-0.023146747,-0.24989311,9.803438,-0.0005470626,-0.0008364469,0.0007944107,-6.1035156e-05,-4.5776367e-05,-0.00010681152
-0.012252294,0.0037611306,-0.20276555,-0.022979736,-0.25028992,9.805069,-4.7714233,16.82434,-45.187378,-0.023503464,-0.25025356,9.803428,-0.000419287,-0.00024822354,-9.6321106e-05,-6.1035156e-05,-4.5776367e-05,0.00018310547
-0.012269069,0.0037394373,-0.20271885,-0.020584106,-0.25100708,9.803146,-5.9890747,16.445923,-44.535828,-0.023032084,-0.2504883,9.803423,0.00077297725,-0.0004810691,0.00041389465,-6.1035156e-05,0.00019836426,-4.5776367e-05
-0.01228637,0.0037212623,-0.20268145,-0.022491455,-0.24645996,9.804596,-5.8807373,15.515137,-45.710754,-0.022623828,-0.25074738,9.803417,0.0015680324,-7.748604e-07,-0.0017948151,-0.00012207031,1.5258789e-05,-0.00010681152
-0.01221,0.0037072345,-0.20260459,-0.022979736,-0.25076294,9.803879,-6.918335,15.512085,-44.836426,-0.02267765,-0.24922346,9.803456,-5.5687502e-05,0.0032613277,0.0008802414,6.1035156e-05,7.6293945e-05,1.5258789e-05
-0.0121898,0.0037792206,-0.20277852,-0.024169922,-0.25196838,9.804352,-5.5145264,16.259766,-44.439697,-0.024096157,-0.24912584,9.803455,-0.0022213142,0.00031097233,0.0009717941,0.0,7.6293945e-05,0.0001373291
-0.012242228,0.0038017866,-0.2028645,-0.02368164,-0.24932861,9.804108,-5.355835,16.194153,-44.384766,-0.024298975,-0.2502244,9.803428,0.00013230927,-0.0021834671,-0.00063323975,6.1035156e-05,1.5258789e-05,7.6293945e-05
-0.012226392,0.00378426,-0.20281105,-0.021774292,-0.24909973,9.8033905,-4.96521,15.777588,-43.35327,-0.02403907,-0.24984932,9.803438,0.00035933964,0.0005405694,-0.0010547638,0.00018310547,1.5258789e-05,-6.1035156e-05
-0.012210751,0.0037363248,-0.20267965,-0.022018433,-0.24836731,9.806503,-6.0775757,16.37268,-45.07599,-0.023214221,-0.24935523,9.803452,0.0016860049,4.7385693e-05,8.2969666e-05,6.1035156e-05,-4.5776367e-05,6.1035156e-05
-0.012194819,0.0037040683,-0.20258835,-0.02154541,-0.2498169,9.803879,-5.470276,15.458679,-44.380188,-0.02268132,-0.24891901,9.803465,0.0011393093,0.0013061613,0.0013408661,-0.00012207031,0.0001373291,0.0001373291
-0.012208678,0.0037091053,-0.20260867,-0.023208618,-0.24932861,9.805069,-5.7266235,15.2282715,-45.095825,-0.022717794,-0.24920557,9.803456,0.00045837648,-0.00033257902,-0.00022220612,6.1035156e-05,7.6293945e-05,-0.00010681152
-0.012218037,0.0037125458,-0.20262252,-0.020095825,-0.25053406,9.8029175,-6.1203003,15.342712,-44.451904,-0.022743147,-0.2493993,9.8034525,1.036562e-05,-0.0006156266,-0.00031280518,-6.1035156e-05,7.6293945e-05,0.00018310547
-0.012232038,0.0036821142,-0.2025519,-0.024169922,-0.25028992,9.8022,-5.735779,16.755676,-44.483948,-0.022121066,-0.24954566,9.803451,0.0017823521,-0.0007301271,-0.0013313293,0.00012207031,1.5258789e-05,1.5258789e-05
-0.012230729,0.0037113253,-0.20262617,-0.021774292,-0.25100708,9.804596,-4.4540405,16.545105,-44.0506,-0.02266832,-0.24963824,9.803446,-0.0012568086,-0.0006444901,-0.00056648254,0.00018310547,-4.5776367e-05,0.00018310547
-0.012264078,0.0037038194,-0.20262475,-0.024642944,-0.24932861,9.805069,-5.355835,16.271973,-44.822693,-0.022391975,-0.25024873,9.803431,0.00084752776,-0.0009917319,0.00025558472,-6.1035156e-05,0.00019836426,-0.00024414062
-0.012239431,0.0037609614,-0.20275822,-0.022735596,-0.25004578,9.803879,-4.7042847,16.230774,-43.423462,-0.023553256,-0.25000575,9.803435,-0.0018044971,0.0004580021,0.001127243,-6.1035156e-05,0.0001373291,1.5258789e-05
-0.012254149,0.0037546856,-0.20275,-0.021530151,-0.2514801,9.8029175,-5.5130005,16.331482,-44.425964,-0.023376297,-0.25026318,9.803429,0.0008857995,-1.6480684e-05,-0.001156807,-6.1035156e-05,1.5258789e-05,0.0001373291
-0.012251753,0.0037097456,-0.20263337,-0.022491455,-0.25004578,9.807465,-5.3512573,16.342163,-44.58313,-0.022552574,-0.25003585,9.803436,0.001496017,0.00022530556,-0.00029468536,0.00012207031,1.5258789e-05,0.00012207031
-0.012254954,0.0037271853,-0.20267984,-0.023208618,-0.25076294,9.8029175,-5.4397583,16.117859,-44.47174,-0.022862896,-0.25016767,9.8034315,-0.0003423784,-0.00055867434,0.002354622,0.0,7.6293945e-05,-0.00022888184
-0.012279381,0.003739523,-0.20272459,-0.022735596,-0.25053406,9.804825,-5.593872,16.252136,-44.062805,-0.022991255,-0.2506868,9.803418,2.9018149e-05,-0.0010130107,-0.0009832382,0.0,0.0001373291,-4.5776367e-05
-0.012263925,0.0037362338,-0.20270787,-0.020584106,-0.25053406,9.806503,-5.5999756,16.030884,-43.95752,-0.022993837,-0.25037655,9.803427,0.0005055107,0.0008378625,0.00078105927,-0.00012207031,0.00019836426,-0.00010681152
-0.012278008,0.0037180793,-0.2026688,-0.021774292,-0.2498169,9.803864,-4.9468994,16.29181,-43.777466,-0.022599181,-0.2505739,9.803422,0.0015455652,-0.00063836575,0.0003671646,6.1035156e-05,7.6293945e-05,7.6293945e-05
-0.012248192,0.0036975911,-0.20260027,-0.022018433,-0.24789429,9.8033905,-5.415344,16.700745,-44.27948,-0.022341762,-0.24991839,9.803439,0.0008140467,0.0013342202,-0.00087451935,0.0,0.0001373291,1.5258789e-05
-0.012220551,0.003699252,-0.20258974,-0.022735596,-0.24909973,9.804108,-5.5877686,16.474915,-44.69757,-0.022486195,-0.249394,9.8034525,0.00024136528,0.0012831241,6.0081482e-05,0.0,7.6293945e-05,7.6293945e-05
-0.01223668,0.0036956056,-0.202589,-0.022491455,-0.2514801,9.802673,-5.2581787,16.564941,-44.08722,-0.022352252,-0.24968922,9.803446,0.0003354326,-0.00033853948,-0.0007619858,-6.1035156e-05,1.5258789e-05,0.0001373291
-0.012258453,0.0037044748,-0.20262343,-0.021774292,-0.24813843,9.803879,-4.9972534,17.02118,-44.306946,-0.022427255,-0.25014332,9.803433,-6.422587e-05,-0.0011081994,-0.0014657974,6.1035156e-05,1.5258789e-05,7.6293945e-05
-0.012231077,0.003687789,-0.20256595,-0.022018433,-0.24838257,9.804825,-6.4804077,16.192627,-44.189453,-0.022230282,-0.24955006,9.80345,-1.675263e-05,0.001414761,0.00030612946,-6.1035156e-05,-0.00015258789,-4.5776367e-05
-0.012199043,0.0036818935,-0.20253369,-0.0236969,-0.25053406,9.804108,-6.0012817,16.15448,-44.441223,-0.022252556,-0.24891077,9.803465,6.435439e-06,0.0012587011,0.000834465,0.00012207031,0.0001373291,0.00012207031
-0.012234407,0.003728879,-0.2026732,-0.021774292,-0.25125122,9.804596,-5.7678223,15.948486,-44.2688,-0.02297882,-0.24977972,9.803442,2.8684735e-07,-0.00074125826,-0.00080776215,6.1035156e-05,7.6293945e-05,-0.00016784668
-0.012263885,0.0037272004,-0.20268466,-0.024169922,-0.25028992,9.8022,-6.3217163,16.20636,-44.41986,-0.022826448,-0.25033936,9.803429,0.00080974214,-0.0013659596,0.00042629242,-6.1035156e-05,1.5258789e-05,-0.00022888184
-0.012264746,0.003739535,-0.20271678,-0.022018433,-0.24765015,9.804108,-5.584717,16.395569,-43.88275,-0.023051683,-0.25040567,9.803426,-0.00062919594,0.00012400746,-0.0008325577,-6.1035156e-05,1.5258789e-05,-4.5776367e-05
-0.012215849,0.0037067407,-0.20260645,-0.020095825,-0.25125122,9.802444,-5.36499,15.977478,-44.503784,-0.02264445,-0.24933386,9.803454,0.0008701924,0.0026301146,-0.00055122375,0.0,7.6293945e-05,0.0001373291
-0.012265128,0.0036903725,-0.2025908,-0.022018433,-0.2498169,9.80722,-4.3655396,16.77246,-44.233704,-0.022138234,-0.25021473,9.803432,0.0015539881,-0.00222826,-0.00020885468,0.00012207031,0.0001373291,-4.5776367e-05
-0.012234994,0.0036566264,-0.20248805,-0.021774292,-0.25196838,9.803635,-5.793762,17.182922,-43.93921,-0.021636095,-0.24949975,9.803452,0.00082506053,0.0009108335,0.0019216537,0.0,-4.5776367e-05,1.5258789e-05
-0.012273728,0.0036944617,-0.20260589,-0.022735596,-0.24836731,9.806747,-6.114197,15.567017,-45.010376,-0.02217873,-0.25039643,9.803428,-0.00055478886,-0.0022656918,5.722046e-06,0.00018310547,1.5258789e-05,0.0001373291
-0.0122511275,0.0036881103,-0.2025775,-0.022018433,-0.25172424,9.804596,-5.9555054,17.173767,-44.16046,-0.022153828,-0.24993658,9.803439,-0.000105248764,0.0011204481,0.0012874603,-6.1035156e-05,1.5258789e-05,0.00018310547
-0.012258394,0.003697893,-0.2026065,-0.022262573,-0.24909973,9.8076935,-6.1065674,15.562439,-44.25659,-0.022305414,-0.25011563,9.803434,4.6977773e-05,-0.0003720522,0.00053310394,-6.1035156e-05,0.0001373291,-0.00010681152