timestamp,rotationVector_x,rotationVector_y,rotationVector_z,accelerometer_x,accelerometer_y,accelerometer_z,magneticField_x,magneticField_y,magneticField_z,gravity_x,gravity_y,gravity_z,linearAcceleration_x,linearAcceleration_y,linearAcceleration_z,gyroscope_x,gyroscope_y,gyroscope_z
2019-07-01T19:33:13.331Z,-0.61903846,0.29409593,-0.28118336,-0.3014984,-9.913467,1.0001984,-16.000366,40.45105,11.694336,-0.4607698,-9.777778,0.5942622,-0.21933913,0.03353882,0.21031046,-0.16226196,0.22491455,0.05657959
2019-07-01T19:33:13.532Z,-0.6056889,0.34734112,-0.3235584,-0.3062744,-10.365707,0.39720154,-16.770935,40.896606,13.551331,-0.506709,-9.790483,0.24507006,0.19722378,0.016581535,0.9453205,0.07255554,0.93052673,-0.058502197
2019-07-01T19:33:13.745Z,-0.56220394,0.3596997,-0.39748892,0.13400269,-9.375076,1.8903351,-19.396973,40.61737,8.39386,-0.059619255,-9.747945,1.0697658,0.28133056,-0.30598068,-0.798311,0.31860352,0.2738495,-0.33302307
2019-07-01T19:33:13.950Z,-0.59223217,0.32042867,-0.3901035,1.385437,-9.836899,0.6125641,-22.547913,40.560913,7.2265625,0.5844186,-9.746485,0.91371584,0.22326893,-0.04976368,-0.2820711,-0.13343811,-0.6557617,-0.17041016
2019-07-01T19:33:14.142Z,-0.63377565,0.2707958,-0.33863926,1.0576324,-9.183655,0.38046265,-21.928406,39.256287,11.61499,0.8072722,-9.761061,0.4902946,0.27127123,0.008403778,-0.10674408,-0.117004395,-0.8726959,-0.07383728
2019-07-01T19:33:14.362Z,-0.65740466,0.21136646,-0.28819025,1.0432739,-9.150162,-0.26081848,-20.040894,39.427185,15.124512,0.96573293,-9.748421,0.45391726,0.105754495,0.5130577,0.044969976,0.16918945,-0.8131256,0.069229126
2019-07-01T19:33:14.614Z,-0.6615593,0.18050839,-0.230048,-0.4355011,-9.320038,-0.33259583,-16.349792,40.982056,15.742493,0.5402219,-9.774352,0.5836134,0.42130178,0.28387642,-0.85089266,-0.032211304,-0.6071472,0.29916382
2019-07-01T19:33:14.809Z,-0.6928355,0.16077644,-0.17996947,-0.011962891,-9.621536,0.83509827,-12.393188,40.708923,18.998718,0.3028137,-9.801297,-0.11513201,-0.6563623,-0.46105957,0.24222457,-0.09971619,-0.38136292,0.1260376
2019-07-01T19:33:15.020Z,-0.6658119,0.16258557,-0.16404817,-0.73698425,-9.657425,1.964508,-10.359192,41.360474,18.1427,-0.12012107,-9.787937,0.5935069,-0.95344645,0.0019626617,1.1520807,0.16252136,-0.12498474,0.094329834
2019-07-01T19:33:15.212Z,-0.67238545,0.15430139,-0.15962121,-0.18424988,-9.360718,1.0001984,-9.872437,41.618347,17.192078,-0.031946383,-9.79521,0.4724621,-0.42540073,0.020630836,0.9781401,-0.08670044,0.001953125,-0.106277466
2019-07-01T19:33:15.413Z,-0.6334138,0.25727946,-0.2855777,0.95951843,-9.968506,0.14117432,-10.726929,42.214966,17.500305,0.15889294,-9.784501,0.6392813,-0.39334834,0.14616394,0.43812495,0.16552734,0.1721344,-0.14071655
2019-07-01T19:33:15.620Z,-0.6223303,0.25924188,-0.3125185,0.086135864,-10.104889,0.40438843,-11.907959,42.791748,17.666626,0.41197085,-9.757271,0.89237857,0.101777285,-0.12202263,-0.59429467,0.10272217,0.22991943,-0.10015869
2019-07-01T19:33:15.823Z,-0.61812234,0.26410663,-0.32115585,0.6460571,-9.920639,0.6795654,-14.022827,42.51709,16.334534,0.43789232,-9.751203,0.94482046,0.13225389,-0.118294716,-0.46480393,-0.006072998,0.08886719,0.014007568
2019-07-01T19:33:16.024Z,-0.6173375,0.26738864,-0.325693,0.98106384,-9.604797,0.95474243,-12.973022,41.21704,14.067078,0.45955437,-9.751667,0.92962545,0.3329107,0.048887253,-0.23796421,0.004058838,0.022537231,0.010284424
2019-07-01T19:33:16.239Z,-0.6189537,0.26803312,-0.32055652,0.68434143,-9.872787,0.8542328,-13.671875,41.4505,15.652466,0.39526463,-9.758754,0.883669,0.39327303,0.040290833,-0.014359415,-0.012298584,-0.025238037,0.0070495605
2019-07-01T19:33:16.432Z,-0.62071866,0.26755318,-0.31804308,0.1603241,-9.915863,0.83270264,-12.88147,41.062927,16.145325,0.38330758,-9.762587,0.84579706,0.12298101,0.037599564,0.04248035,-0.026473999,-0.04386902,0.009109497
2019-07-01T19:33:16.635Z,-0.62135106,0.26283166,-0.31821027,0.29670715,-9.731613,0.8446655,-13.592529,41.226196,17.03949,0.44460928,-9.757007,0.87950736,-0.14243418,0.003288269,-0.04131937,0.0020599365,-0.043624878,-0.011276245
2019-07-01T19:33:16.834Z,-0.6240637,0.26030204,-0.31303775,0.3900299,-9.8033905,0.8614197,-12.9348755,41.641235,16.340637,0.42663652,-9.761358,0.8392025,-0.12007204,-0.010110855,-0.01713407,0.0043792725,-0.05986023,0.0036315918
2019-07-01T19:33:17.033Z,-0.6246512,0.2575982,-0.31017706,0.38763428,-9.779465,0.68673706,-13.005066,41.778564,16.748047,0.42129898,-9.760457,0.8522772,-0.072107464,0.0034532547,-0.0074977875,0.006210327,-0.029266357,0.0012359619
2019-07-01T19:33:17.237Z,-0.62425053,0.26251248,-0.31443667,0.447464,-9.722046,0.8111725,-13.815308,41.72516,16.545105,0.42475864,-9.763743,0.8119601,-0.05412379,-0.01170826,-0.070032,-0.012786865,0.04940796,-0.011459351
2019-07-01T19:33:17.435Z,-0.6220199,0.26659897,-0.31914732,0.6963043,-9.662216,0.87098694,-12.490845,42.697144,15.782166,0.42446747,-9.762741,0.82407737,-0.04100761,0.01317215,-0.026930869,0.020492554,0.05784607,-0.012069702
2019-07-01T19:33:17.643Z,-0.6221494,0.26988584,-0.31871122,0.32063293,-9.956543,0.74417114,-14.549255,41.456604,16.746521,0.38376078,-9.767538,0.7863314,0.07501635,-0.030675888,0.01936537,-0.02482605,0.03768921,0.026657104
2019-07-01T19:33:17.905Z,-0.6215008,0.26663867,-0.3173389,0.42352295,-9.743576,0.87815857,-13.919067,41.28723,15.930176,0.39166775,-9.763071,0.83632296,0.08208236,0.0373621,0.02438736,0.011947632,-0.021514893,0.006866455
2019-07-01T19:33:18.100Z,-0.62154996,0.26481986,-0.3173844,0.35653687,-9.836899,0.8231354,-13.630676,42.097473,17.367554,0.4128202,-9.760661,0.854083,0.014453381,8.392334e-05,-0.009679973,0.009689331,-0.008926392,-0.007247925
2019-07-01T19:33:18.304Z,-0.62163293,0.26609302,-0.3173572,0.30389404,-9.82254,0.8183441,-12.838745,41.93573,16.773987,0.39937723,-9.762546,0.83880246,-0.030131578,-0.011994362,-0.031299353,-0.0022277832,-0.011306763,0.00088500977
2019-07-01T19:33:18.512Z,-0.6213157,0.26810035,-0.3179274,0.3900299,-9.815353,0.82073975,-13.842773,41.142273,16.427612,0.38229084,-9.764362,0.82550323,-0.040032476,-0.0032463074,-0.013913572,-0.0039367676,0.004272461,0.0014343262
2019-07-01T19:33:18.714Z,-0.6212959,0.26926953,-0.31773376,0.38285828,-9.808182,0.83270264,-11.947632,42.14325,16.175842,0.36649156,-9.765963,0.81366277,-0.018503934,-0.00472641,-0.006949246,-0.0046691895,0.0028686523,0.0039367676
2019-07-01T19:33:18.913Z,-0.62083894,0.26981756,-0.31860214,0.33499146,-9.791428,0.79441833,-12.942505,41.49475,16.31012,0.36820102,-9.765452,0.8190022,-0.0006483495,0.009989738,-0.003502667,0.0071868896,0.00390625,-0.00730896
2019-07-01T19:33:19.116Z,-0.6212584,0.27034304,-0.31894612,0.34934998,-9.800995,0.7657013,-12.611389,41.812134,15.682983,0.37226948,-9.766608,0.80321693,-0.008919299,-0.009348869,-0.025287151,-0.0062561035,0.003112793,-0.0027923584
2019-07-01T19:33:19.318Z,-0.62146634,0.2725297,-0.3198946,0.29431152,-9.848862,0.6652069,-13.555908,41.955566,17.337036,0.3649905,-9.769175,0.77486575,-0.028144687,-0.0022115707,-0.037913382,0.0050964355,0.0075683594,-0.0074920654
2019-07-01T19:33:19.523Z,-0.65591365,0.17525937,-0.21471633,0.45463562,-9.748352,0.84706116,-12.664795,42.314148,16.392517,0.34880355,-9.770454,0.7661237,-0.04991296,-0.03156948,-0.0583601,-0.008453369,0.0008544922,0.016082764
2019-07-01T19:33:19.724Z,-0.6563258,0.17166394,-0.21237014,0.33738708,-9.832108,0.7776642,-12.9470825,41.49933,15.632629,0.36575618,-9.768739,0.7799803,0.08109948,0.04208088,0.05735904,0.012924194,0.003967285,-0.0131073
2019-07-01T19:33:19.926Z,-0.6564597,0.17143272,-0.21180564,0.34457397,-9.853638,0.727417,-13.110352,41.337585,16.210938,0.36189345,-9.7690325,0.77808833,-0.008199304,-0.01907444,-0.004413545,-0.004486084,-0.0103302,0.006011963
2019-07-01T19:33:20.127Z,-0.6557731,0.17130506,-0.21280953,0.3517456,-9.800995,0.7417755,-12.92572,41.784668,16.670227,0.3724764,-9.767141,0.79661846,-0.017683923,0.00889492,-0.007999361,0.00944519,-0.0025787354,-0.006149292
2019-07-01T19:33:20.330Z,-0.6553903,0.17298615,-0.21423447,0.42352295,-9.789032,0.80158997,-13.15155,42.359924,15.588379,0.36764276,-9.7674465,0.7951099,-0.030410469,-0.009778023,-0.036147416,0.0098724365,0.0107421875,-0.008834839
2019-07-01T19:33:20.536Z,-0.65500295,0.17333865,-0.21630472,0.35653687,-9.786652,0.8063812,-13.369751,40.805054,16.71753,0.38897157,-9.766004,0.80267096,0.0007452369,0.005138397,-0.029070914,0.008651733,-0.002456665,-0.008773804
2019-07-01T19:33:20.731Z,-0.6548389,0.17435639,-0.21662647,0.37088013,-9.810577,0.8542328,-12.921143,41.78009,17.274475,0.37905335,-9.766617,0.79994434,-0.03048411,-0.01589489,-0.016820073,0.0036315918,-0.0016021729,-0.00077819824
2019-07-01T19:33:20.944Z,-0.65450263,0.17327155,-0.21619959,0.42352295,-9.808182,0.83509827,-13.15918,42.140198,15.69519,0.38467506,-9.765069,0.81597775,0.012037367,0.0044794083,0.0052711368,0.009628296,-0.0061187744,-0.001876831
2019-07-01T19:33:21.158Z,-0.6540066,0.17237402,-0.21721159,0.5694885,-9.7986145,0.8374939,-13.380432,42.333984,17.178345,0.40668535,-9.762588,0.83479285,0.0041493475,-0.0075006485,-0.0029127002,0.0060272217,0.021316528,-0.026123047
2019-07-01T19:33:21.344Z,-0.6537131,0.17123745,-0.22217922,0.46180725,-9.824936,0.8925171,-13.882446,41.93573,16.967773,0.48817992,-9.757541,0.8499794,0.0008188784,0.021719933,0.017634332,0.006515503,0.0051879883,-0.036514282
2019-07-01T19:33:21.561Z,-0.65445906,0.16873193,-0.22221543,0.64367676,-9.765106,0.9379883,-14.002991,41.28418,15.405273,0.5267634,-9.755746,0.84754753,-0.003356874,-0.005156517,0.016214073,-0.007537842,-0.0096588135,-0.012680054
2019-07-01T19:33:21.759Z,-0.6554349,0.16727977,-0.21885851,0.4019928,-9.867996,0.71066284,-13.46283,40.73639,15.65094,0.5062669,-9.758164,0.832046,0.022218406,0.0020980835,0.023820281,-0.006011963,-0.008560181,0.0066223145
2019-07-01T19:33:21.955Z,-0.65308046,0.17218764,-0.2275903,0.72502136,-9.722046,0.92123413,-13.282776,41.26129,15.296936,0.5462849,-9.7536,0.8597949,-0.091097295,-0.00089263916,-0.0765152,0.024459839,0.04562378,-0.02722168
2019-07-01T19:33:22.157Z,-0.6540161,0.17221297,-0.22501458,0.33738708,-9.915863,0.7728882,-13.960266,42.30957,15.159607,0.5172321,-9.757283,0.835637,0.06671232,-0.017887115,-0.008648574,-0.0007019043,-0.0025787354,0.013519287
2019-07-01T19:33:22.397Z,-0.6525177,0.1734647,-0.22822665,0.55513,-9.662216,0.9499512,-13.42926,41.314697,16.595459,0.53433925,-9.753754,0.8655485,-0.032126367,-0.016129494,-0.034867942,-0.0039978027,0.00036621094,0.0038757324
2019-07-01T19:33:22.561Z,-0.6537235,0.16910191,-0.22612926,0.5024872,-9.867996,0.87338257,-14.541626,41.679382,16.41388,0.5708063,-9.751827,0.8639686,0.06309742,0.03887844,0.021557271,0.012863159,-0.010940552,-0.017578125
2019-07-01T19:33:22.759Z,-0.6527038,0.1704187,-0.22738375,0.5264282,-9.777069,0.91166687,-13.713074,42.32025,16.05835,0.563459,-9.750701,0.881327,-0.015538633,-0.002120018,-0.013520539,0.0074310303,-0.0030670166,-0.0059661865
2019-07-01T19:33:22.969Z,-0.6526926,0.17006665,-0.22741732,0.55513,-9.791428,0.85902405,-14.601135,42.10968,16.729736,0.5684047,-9.750175,0.883965,-0.002144277,0.006140709,0.0037196279,0.003753662,-0.00093078613,-0.004135132
2019-07-01T19:33:23.167Z,-0.6527976,0.17020446,-0.22756048,0.3900299,-9.942184,0.8661957,-14.56604,41.322327,15.361023,0.56939936,-9.7504425,0.8803572,-0.0005944371,-0.0032835007,-0.0066633224,-0.0020446777,0.0018920898,-0.0024871826
2019-07-01T19:33:23.378Z,-0.6567146,0.15955184,-0.21272103,0.64845276,-9.655045,0.899704,-13.194275,41.337585,15.608215,0.5315312,-9.755391,0.8486504,-0.02419579,-0.026688576,-0.03275156,-0.0209198,-0.0028076172,0.025131226
2019-07-01T19:33:23.576Z,-0.6571166,0.15438594,-0.21143053,0.6508484,-9.832108,0.78723145,-14.533997,41.89911,16.230774,0.584561,-9.750467,0.87009966,0.06781787,0.065112114,0.031294882,0.022827148,0.006713867,-0.022277832
2019-07-01T19:33:23.783Z,-0.65831393,0.1578115,-0.20887564,0.32063293,-9.865616,0.7465668,-13.81073,41.947937,16.061401,0.51248753,-9.759007,0.818233,-0.036652982,-0.06123829,-0.014137208,-0.029891968,-0.027435303,0.03916931
2019-07-01T19:33:23.984Z,-0.65764624,0.15921786,-0.20820214,0.47616577,-9.667007,0.80158997,-12.994385,42.373657,15.132141,0.48001912,-9.759944,0.8267225,-0.038120836,0.011329651,-0.018460631,-0.0042419434,-0.0076446533,0.0184021
2019-07-01T19:33:24.185Z,-0.6591303,0.15954678,-0.2063642,0.38046265,-9.633499,0.61735535,-14.173889,40.974426,16.18042,0.46063828,-9.764214,0.7863378,0.03670937,0.025432587,-0.01090914,0.005722046,0.016479492,-0.00920105
2019-07-01T19:33:24.387Z,-0.6571255,0.15805015,-0.2095875,0.5240326,-9.961319,0.82073975,-13.931274,41.06903,15.660095,0.5108777,-9.756602,0.8474182,-0.1195302,-0.057374954,-0.1711427,0.03302002,-0.031341553,0.002822876
2019-07-01T19:33:24.592Z,-0.65895677,0.15499537,-0.20055643,0.40678406,-9.655045,0.99780273,-13.294983,42.564392,16.392517,0.4391857,-9.762525,0.81890196,0.06478655,-0.011626244,-0.014594495,-0.02482605,-0.05204773,0.054138184
2019-07-01T19:33:24.796Z,-0.6584203,0.15271392,-0.19828235,0.49771118,-9.769897,0.96191406,-13.18512,41.62903,15.441895,0.4345062,-9.760378,0.8465317,0.03189686,0.039209366,0.072924435,-0.0002746582,0.011962891,0.0013580322
2019-07-01T19:33:24.995Z,-0.6586614,0.14840943,-0.19575188,0.21534729,-9.877579,0.78245544,-12.14447,41.32843,16.3208,0.45863348,-9.757589,0.86572707,0.0423142,0.014038086,0.069518805,0.012008667,-0.02003479,-0.024475098
2019-07-01T19:33:25.195Z,-0.65732586,0.14902714,-0.19865406,0.39959717,-9.793823,0.7346039,-12.495422,42.469788,16.642761,0.48142326,-9.753704,0.89659494,-0.26754695,-0.07780743,-0.12939537,0.0007019043,0.017227173,0.0027008057
2019-07-01T19:33:25.399Z,-0.6571828,0.15088212,-0.19980326,0.447464,-9.918243,0.7034912,-14.18457,42.582703,15.827942,0.47151116,-9.754849,0.88937116,-0.08750063,-0.02284813,-0.10855633,0.010848999,0.029800415,-0.010299683
2019-07-01T19:33:25.605Z,-0.65667456,0.15364785,-0.20166655,0.41156006,-9.793823,0.7417755,-13.676453,41.149902,16.799927,0.45690915,-9.755856,0.88594997,-0.05139637,-0.04020691,-0.14975184,-0.009063721,0.008850098,0.014862061
2019-07-01T19:33:25.805Z,-0.65767694,0.15576829,-0.2022264,0.4355011,-9.762711,0.81355286,-13.020325,41.412354,16.900635,0.44329154,-9.759921,0.84724206,-0.014175475,-0.012812614,-0.07481742,-0.0043029785,-0.0053253174,0.006866455
2019-07-01T19:33:26.016Z,-0.65879834,0.15596531,-0.20044781,0.32302856,-9.779465,0.77526855,-12.295532,41.459656,16.880798,0.42379323,-9.763359,0.81708133,0.0071687996,0.005259514,-0.014904201,-0.0055236816,-0.0096588135,0.0058288574
2019-07-01T19:33:26.215Z,-0.65987206,0.16010542,-0.19917476,0.31825256,-9.779465,0.68673706,-12.826538,42.230225,16.531372,0.3589532,-9.770281,0.7636468,-0.045526415,-0.026096344,-0.009874046,-0.026473999,0.004699707,0.017791748
2019-07-01T19:33:26.414Z,-0.65838176,0.16139765,-0.204506,0.27038574,-9.944565,0.66760254,-12.940979,41.493225,16.461182,0.40541667,-9.76604,0.79403,-0.055645913,0.022948265,-0.04541421,0.03765869,0.023086548,-0.04408264
2019-07-01T19:33:26.628Z,-0.6589769,0.16939333,-0.20541155,0.35653687,-9.753143,0.77526855,-13.813782,41.723633,16.770935,0.31772345,-9.77452,0.72677684,-0.07697961,-0.071204185,-0.06460881,-0.030014038,0.0049438477,0.03514099
2019-07-01T19:33:26.849Z,-0.6575957,0.16545175,-0.20725515,0.65802,-9.659821,0.8685913,-13.310242,42.12036,16.981506,0.3848424,-9.767335,0.7883301,0.036144823,0.059300423,0.009809375,0.035095215,0.015258789,-0.023010254
2019-07-01T19:33:27.017Z,-0.65895504,0.16713202,-0.20411344,0.25125122,-9.812973,0.64367676,-12.088013,42.643738,16.207886,0.32898104,-9.772983,0.74226797,0.034101248,-0.019299507,0.00946337,-0.014678955,-0.008621216,0.02078247
2019-07-01T19:33:27.223Z,-0.6566089,0.16887313,-0.20867854,0.5886383,-9.635895,0.9954071,-12.364197,41.82434,16.35437,0.35287425,-9.768299,0.79133123,-0.08669561,-0.01647377,-0.051595867,0.009262085,-0.0033721924,0.0050201416
2019-07-01T19:33:27.425Z,-0.6594803,0.15927413,-0.19723946,0.2679901,-10.037888,0.7513428,-13.667297,41.293335,17.129517,0.340488,-9.76973,0.77899194,0.112434655,0.0262537,0.071528256,0.017074585,-0.0006713867,-0.017456055
2019-07-01T19:33:27.631Z,-0.65861726,0.1635481,-0.20083474,0.33499146,-9.681366,0.7154541,-13.397217,42.04712,16.51764,0.32806525,-9.770533,0.7742411,-0.042618185,-0.03350544,-0.03325993,-0.023239136,0.0043945312,0.02017212
2019-07-01T19:33:27.834Z,-0.65705323,0.16378318,-0.20510446,0.4785614,-9.755539,0.8518524,-13.755798,41.371155,15.867615,0.373108,-9.765759,0.8130916,-0.033620715,0.02930832,-0.03452128,0.02330017,0.017349243,-0.024108887
2019-07-01T19:33:28.035Z,-0.65780747,0.16361137,-0.20410103,0.4785614,-9.887146,0.7680969,-13.412476,41.830444,15.94696,0.36676937,-9.76751,0.7947444,0.02388516,-0.0013608932,0.0110318065,0.018722534,0.010498047,-0.024353027
2019-07-01T19:33:28.270Z,-0.6575574,0.16682436,-0.20675117,0.14117432,-9.879959,0.67237854,-12.438965,41.966248,16.157532,0.35966069,-9.768932,0.78037155,-0.036602765,-0.0394392,-0.053419948,-0.015731812,-0.001663208,0.014190674
2019-07-01T19:33:28.500Z,-0.6559481,0.1673379,-0.21058597,0.61016846,-9.827316,0.7346039,-13.240051,42.137146,15.699768,0.39457417,-9.764466,0.8184656,-0.008537501,0.018568993,-0.028287351,0.020935059,0.0034179688,-0.01713562
2019-07-01T19:33:28.695Z,-0.6562523,0.16740704,-0.21681835,0.7082825,-9.942184,0.71066284,-14.683533,41.95862,16.931152,0.4822883,-9.761219,0.81018144,0.0041504204,-0.0144376755,-0.020997643,0.026733398,0.026626587,-0.069992065
2019-07-01T19:33:28.901Z,-0.65684414,0.16065246,-0.2116228,0.71066284,-9.71965,0.98583984,-13.891602,42.022705,15.249634,0.50281566,-9.757799,0.8384016,0.021128714,-0.032910347,0.03859073,-0.032455444,-0.08467102,0.036361694
2019-07-01T19:33:29.097Z,-0.6564141,0.15620877,-0.206965,-1.3351898,-9.908676,1.3232269,-13.536072,42.471313,16.836548,0.49406806,-9.754845,0.8770944,0.025522262,0.052866936,0.091837466,0.021957397,-0.005142212,0.01675415
2019-07-01T19:33:29.301Z,-0.657878,0.15592854,-0.1984372,0.105285645,-9.580856,0.8159485,-11.651611,43.47992,15.830994,0.39037347,-9.762713,0.841074,0.026869893,-0.10155487,-0.054228663,-0.066726685,-0.17520142,0.084625244
2019-07-01T19:33:29.503Z,-0.6627638,0.1487897,-0.18431935,0.550354,-9.915863,0.7896271,-12.449646,41.444397,17.63916,0.32290825,-9.772041,0.7571878,0.0009832382,0.22840309,0.091052115,0.021530151,-0.033416748,0.013641357
2019-07-01T19:33:29.705Z,-0.6617359,0.15171294,-0.18582599,0.24645996,-9.750748,0.6771698,-13.146973,42.20276,17.066956,0.2981747,-9.772088,0.7666597,0.017987013,-0.011591911,-0.048448563,0.0063934326,0.03315735,0.0038146973
2019-07-01T19:33:29.913Z,-0.659609,0.15514693,-0.19140778,0.35653687,-9.789032,0.7154541,-12.797546,42.88788,16.514587,0.3155414,-9.768779,0.801113,-0.026462406,0.038412094,-0.08198506,0.00680542,0.06791687,-0.009628296
2019-07-01T19:33:30.115Z,-0.6589159,0.15760002,-0.19444169,0.2632141,-9.767502,0.76091003,-13.487244,41.819763,16.700745,0.32021388,-9.768391,0.80399024,0.04353863,0.03215885,-0.045975983,0.0033416748,0.03303528,-0.008285522
2019-07-01T19:33:30.323Z,-0.658959,0.16231185,-0.2000075,0.17228699,-9.63829,0.6077728,-12.982178,40.69519,15.771484,0.33520985,-9.770364,0.7733112,-0.03903985,0.0076818466,-0.058575273,-0.007171631,0.049224854,-0.018432617
2019-07-01T19:33:30.522Z,-0.6573538,0.17669721,-0.21149023,0.32063293,-9.9015045,0.5288086,-13.619995,42.39044,17.199707,0.29599944,-9.775769,0.7191029,-0.17986235,-0.0061597824,-0.13359684,-0.0047912598,0.15026855,-0.0154418945
2019-07-01T19:33:30.725Z,-0.6530095,0.19560921,-0.22527626,0.65802,-9.887146,0.53359985,-13.957214,42.30652,15.687561,0.21461691,-9.779804,0.692656,-0.026563838,-0.0767746,-0.23643953,0.0067596436,0.30419922,-0.022094727
2019-07-01T19:33:30.929Z,-0.6487963,0.21667229,-0.24844468,1.1629181,-9.631119,0.62213135,-15.04364,41.433716,15.403748,0.24683483,-9.783285,0.6299094,0.37319922,0.016635895,-0.11107725,-0.079315186,0.23817444,0.007598877
2019-07-01T19:33:31.132Z,-0.65344244,0.20883727,-0.24282475,1.1150513,-9.633499,0.41156006,-15.211487,41.049194,16.69159,0.3027113,-9.785001,0.5766302,0.80220956,0.13353348,0.11558002,-0.010528564,-0.2771454,0.0069885254
2019-07-01T19:33:31.331Z,-0.6689403,0.17603467,-0.20420226,-0.69869995,-9.748352,1.5481567,-11.607361,40.704346,16.699219,0.2875322,-9.793334,0.42228764,0.56761247,0.14585781,0.11067471,-0.027816772,-0.60176086,0.094696045
2019-07-01T19:33:31.530Z,-0.6616444,0.1600753,-0.16493349,-1.1270142,-9.860825,1.0408783,-7.4691772,43.084717,17.921448,-0.1004593,-9.779822,0.71789813,-0.6319786,-0.036162376,0.6963728,0.12611389,-0.583313,0.21351624
2019-07-01T19:33:31.740Z,-0.66939116,0.13180198,-0.12614752,-0.73220825,-9.815353,0.830307,-6.588745,42.770386,19.104004,-0.20547853,-9.78106,0.6775169,-0.5094081,-0.00798893,0.3106448,-0.051513672,-0.29309082,0.02230835
2019-07-01T19:33:31.938Z,-0.6711649,0.13959074,-0.14255492,-0.055038452,-9.786652,0.95951843,-8.944702,42.477417,17.85736,-0.07812979,-9.7886095,0.58942205,-0.7711639,0.033127785,0.3369876,-0.059951782,0.39179993,-0.17425537
2019-07-01T19:33:32.148Z,-0.6566322,0.17159508,-0.19511512,0.88534546,-9.848862,0.83270264,-11.857605,42.445374,15.853882,0.1298958,-9.775309,0.7725537,-0.4635893,0.0785532,0.31064457,0.17858887,0.61042786,-0.1434784
2019-07-01T19:33:32.354Z,-0.641608,0.18884483,-0.23022509,1.0863342,-9.724426,0.928421,-13.88855,42.097473,15.187073,0.2789882,-9.748084,1.0331659,0.66036963,0.017303467,-0.24703729,0.067230225,0.22167969,-0.05140686
2019-07-01T19:33:32.595Z,-0.64118296,0.18082528,-0.22973026,0.6795654,-9.504288,0.8494568,-13.079834,42.451477,13.945007,0.37267208,-9.737406,1.1020054,0.71994245,0.039841652,-0.20255566,0.027160645,-0.16560364,-0.01109314
2019-07-01T19:33:32.796Z,-0.6592382,0.14785585,-0.18671568,0.03111267,-10.095322,0.7800598,-11.62262,42.39044,15.309143,0.34591094,-9.763267,0.85403484,0.117479414,0.038695335,0.0251382,-0.04876709,-0.25253296,0.023223877
2019-07-01T19:33:32.991Z,-0.6631948,0.1353058,-0.17767218,0.22013855,-9.755539,0.6006012,-12.162781,42.178345,19.438171,0.41531953,-9.763384,0.8211108,-0.14278114,0.06116104,-0.053461373,0.012741089,-0.1010437,-0.026672363
2019-07-01T19:33:33.198Z,-0.6647947,0.13605759,-0.17152658,0.20100403,-9.748352,0.6388855,-9.983826,42.855835,16.618347,0.33057117,-9.770352,0.77543896,-0.23089176,-0.1318121,-0.15426183,-0.041870117,-0.038848877,0.0683136
2019-07-01T19:33:33.397Z,-0.66449463,0.13768421,-0.17278382,0.79441833,-9.753143,-0.0382843,-10.183716,41.818237,17.16919,0.32406756,-9.770643,0.7745286,0.026216507,0.014904022,-0.1166448,0.02960205,0.040252686,-0.00090026855
2019-07-01T19:33:33.608Z,-0.6652681,0.14170247,-0.16993742,0.8566284,-9.767502,0.34217834,-10.174561,42.185974,16.490173,0.23557618,-9.776429,0.73233545,0.32651317,-0.11920357,-0.5062779,-0.04473877,-0.027679443,0.0569458
2019-07-01T19:33:33.806Z,-0.6724173,0.13357772,-0.15185468,-0.2536316,-9.997208,1.5050812,-8.935547,42.848206,17.025757,0.13732478,-9.788005,0.5886335,0.6610229,0.079366684,-0.31059605,-0.0693512,-0.2937622,0.098480225
2019-07-01T19:33:34.008Z,-0.67389464,0.107746266,-0.108378634,-0.4139557,-9.681366,1.4309082,-8.036804,42.895508,18.434143,-0.095095314,-9.783144,0.6718882,0.075908266,0.03534031,0.7767542,0.07015991,-0.57128906,0.21974182
2019-07-01T19:33:34.209Z,-0.6769272,0.077238396,-0.048806913,-2.0721893,-9.717255,1.5170441,-3.5995483,43.118286,18.525696,-0.45841956,-9.770727,0.70223075,-0.018642783,0.09941673,0.74933,-0.1204834,-0.6177063,0.15280151
2019-07-01T19:33:34.409Z,-0.68792135,0.058926232,-0.02544555,-1.6319122,-9.791428,1.5960083,2.3208618,42.344666,18.652344,-0.4922092,-9.783631,0.45683184,-0.9925891,0.091799736,0.7931327,-0.12225342,-0.036727905,-0.08256531
2019-07-01T19:33:34.615Z,-0.6876001,0.08104099,-0.061234336,0.21057129,-9.690933,0.17468262,-0.74920654,41.68701,20.758057,-0.31694448,-9.793164,0.40478843,-1.0670209,0.13584137,0.9347956,0.044570923,0.5180664,-0.11634827
2019-07-01T19:33:34.816Z,-0.677046,0.107802115,-0.118020356,1.5481567,-9.382263,0.04067993,-5.595398,41.445923,19.776917,0.04831084,-9.7888775,0.5881523,-0.13416062,-0.009181023,-0.2973069,0.097717285,0.43103027,-0.2831726
2019-07-01T19:33:35.017Z,-0.6802155,0.083070226,-0.13299258,1.6749725,-9.633499,0.22013855,-7.7545166,41.81671,19.258118,0.60765266,-9.769621,0.5963665,0.9901579,-0.1697197,-0.5198627,0.016098022,-0.31098938,-0.18385315
2019-07-01T19:33:35.222Z,-0.6877134,0.031961344,-0.08906684,1.2299042,-9.899109,0.22732544,-8.502197,41.178894,19.763184,0.75015074,-9.764581,0.5105099,0.85447633,0.3181696,-0.2005148,0.0118255615,-0.77690125,0.051330566
2019-07-01T19:33:35.423Z,-0.6890613,-0.015340136,-0.040805332,0.6149597,-9.762711,0.6460571,-4.161072,41.09955,20.024109,0.7691216,-9.764179,0.48953316,0.26207364,-0.06115246,-0.21266991,0.083602905,-0.7241821,-0.016967773
2019-07-01T19:33:35.623Z,-0.67777467,-0.06270652,-0.001616752,0.72262573,-9.585648,0.8231354,-0.1739502,42.24701,19.264221,0.9224902,-9.73661,0.7195994,-0.16262585,-0.038654327,-0.021851778,0.20002747,-0.5874176,-0.036132812
2019-07-01T19:33:35.828Z,-0.66486514,-0.091827966,0.02942615,1.0648041,-9.566513,1.5122681,2.5878906,43.554688,15.264893,0.9503383,-9.712047,0.9712896,-0.100010335,0.09508705,-0.15620339,0.14108276,-0.25857544,0.09487915
2019-07-01T19:33:36.032Z,-0.65793663,-0.08271742,0.049836237,0.70588684,-8.525635,0.44984436,3.8864136,43.86139,15.046692,0.56856805,-9.718511,1.1822358,0.4408837,0.22596264,-0.06791341,0.050491333,0.028762817,0.223526
2019-07-01T19:33:36.234Z,-0.66829205,-0.06867676,0.04839977,-0.7298126,-9.88475,0.8039856,4.3945312,42.658997,14.704895,0.3612085,-9.753395,0.9545651,0.4882174,-0.20414257,-0.08608794,-0.1056366,0.21954346,0.055603027
2019-07-01T19:33:36.437Z,-0.67261475,-0.037643928,0.034776088,-0.9834442,-9.791428,1.1629181,3.390503,43.156433,17.112732,0.08626794,-9.764366,0.90559125,-0.838192,-0.13343143,-0.27120632,-0.060134888,0.33700562,0.10954285
2019-07-01T19:33:36.640Z,-0.67216146,0.0012803926,0.010892164,-1.1246338,-9.9015045,1.134201,0.7736206,42.33246,16.374207,-0.16218625,-9.759635,0.94530827,-0.5238457,-0.04511547,0.3039387,0.05947876,0.4958954,0.037460327
2019-07-01T19:33:36.849Z,-0.6730263,0.043183994,-0.026362266,-1.0337067,-9.702896,1.351944,-3.3477783,41.835022,17.044067,-0.2769862,-9.762621,0.8859468,-0.540317,-0.035440445,0.050326884,-0.06373596,0.5608368,-0.067596436
2019-07-01T19:33:37.046Z,-0.6750641,0.08206983,-0.08393757,-1.7730865,-10.102493,0.33499146,-7.4554443,41.784668,16.596985,-0.061058104,-9.778762,0.73653847,-0.7591705,0.10044575,0.6473557,-0.08798218,0.72717285,-0.23228455
2019-07-01T19:33:37.256Z,-0.6628618,0.13855213,-0.16348384,1.4787598,-9.463608,2.2660065,-14.283752,40.08789,17.137146,0.1758769,-9.771364,0.8123338,-1.0857143,-0.084760666,-0.40946627,0.080062866,0.9990692,-0.19644165
2019-07-01T19:33:37.451Z,-0.66176647,0.19150628,-0.23831975,2.6679993,-9.348755,0.5862427,-18.051147,38.75122,16.262817,0.5220755,-9.780074,0.49799046,0.97090644,-0.09718132,0.048036993,-0.1592102,0.75349426,-0.24517822
2019-07-01T19:33:37.654Z,-0.65959585,0.18865296,-0.2766403,1.3304138,-9.121445,-0.15074158,-15.2786255,39.58893,16.171265,1.0889996,-9.72899,0.57552004,1.5409987,0.37886715,-0.1383425,-0.09121704,0.22601318,-0.17488098
2019-07-01T19:33:37.857Z,-0.66456527,0.19302058,-0.2559611,0.75852966,-10.085754,-0.33738708,-13.400269,40.377808,15.34729,0.7810091,-9.766741,0.4137639,0.7680586,0.46191216,-0.38320893,0.046524048,-0.2268219,0.30654907
2019-07-01T19:33:38.060Z,-0.65976113,0.1936644,-0.23329073,-0.5934143,-11.89711,0.021530151,-11.579895,41.290283,16.816711,0.4070503,-9.783655,0.5336647,0.46471205,-0.30466938,-0.8290632,0.029907227,-0.17422485,0.19744873
2019-07-01T19:33:38.269Z,-0.66732746,0.19409078,-0.19794261,-1.1868439,-9.867996,0.9403839,-10.366821,41.52069,16.210938,-0.04063888,-9.800895,0.33348143,-0.3826564,-0.41922188,-0.17957273,0.004928589,-0.2564392,0.15615845
2019-07-01T19:33:38.471Z,-0.6517564,0.20059809,-0.20048018,-0.6628113,-10.035492,1.4620209,-12.538147,41.827393,14.549255,-0.20472154,-9.780488,0.68595475,-0.7675271,0.28120136,0.7584105,0.12208557,0.22406006,0.0066223145
2019-07-01T19:33:38.668Z,-0.64184314,0.21225274,-0.22712447,0.8566284,-9.932602,1.2059784,-13.122559,41.35132,14.326477,-0.05905251,-9.770164,0.84310085,-0.40034184,0.053084373,0.54986477,0.09887695,0.303833,-0.123809814
2019-07-01T19:33:38.921Z,-0.6354365,0.20643668,-0.25130096,0.72024536,-9.63829,0.5168457,-13.752747,41.7511,13.903809,0.29642436,-9.745623,1.0513595,0.42151123,0.08310795,-0.14504373,0.004135132,-0.1608429,-0.0079193115
2019-07-01T19:33:39.122Z,-0.6453486,0.19079219,-0.22992137,-0.009567261,-9.657425,0.5168457,-12.768555,41.95099,15.264893,0.27940416,-9.759,0.92424744,0.3198793,-0.03919506,-0.27408177,-0.08114624,-0.29792786,0.048583984
2019-07-01T19:33:39.322Z,-0.66642696,0.12422612,-0.15189014,0.098098755,-9.817749,0.69392395,-11.793518,41.85486,17.092896,0.23280156,-9.771746,0.7932208,-0.21369384,-0.09187031,-0.14023072,-0.050720215,-0.18191528,0.052124023
2019-07-01T19:33:39.529Z,-0.667153,0.1247322,-0.14836308,0.052642822,-9.808182,0.71784973,-11.503601,41.297913,16.438293,0.18173286,-9.774546,0.77175933,-0.13746518,0.05173874,-0.04234433,0.018478394,-0.008621216,-0.0015106201
2019-07-01T19:33:39.735Z,-0.6659566,0.1296076,-0.1518419,0.086135864,-9.786652,0.7130585,-11.84082,40.986633,15.859985,0.15613152,-9.774436,0.77871907,-0.13811494,-0.046013832,-0.091368616,-0.0031433105,0.060775757,0.0057678223
2019-07-01T19:33:39.935Z,-0.6648343,0.13311687,-0.154287,0.110076904,-9.84407,0.6915283,-11.828613,41.355896,15.332031,0.13552132,-9.773845,0.7899294,-0.014525801,-0.0023708344,-0.09086919,0.004928589,0.02619934,0.019561768
2019-07-01T19:33:40.137Z,-0.66532654,0.13427092,-0.15325907,0.08375549,-9.796219,0.69869995,-11.898804,41.49475,15.815735,0.10851628,-9.77569,0.7710371,0.030850038,0.009547234,-0.04674816,3.0517578e-05,0.0138549805,0.021774292
2019-07-01T19:33:40.340Z,-0.66640323,0.13949898,-0.15355287,-0.114852905,-9.817749,0.6077728,-10.520935,41.80603,15.672302,0.047585253,-9.780446,0.7148419,-0.0027353428,0.011563301,-0.01597321,-0.017181396,0.052093506,0.0077056885
2019-07-01T19:33:40.594Z,-0.66456556,0.1465745,-0.16291739,-0.102890015,-9.9039,0.55513,-10.71167,41.21399,15.029907,0.06983651,-9.779704,0.7231128,-0.06616568,0.0009775162,-0.111952245,0.034484863,0.06663513,-0.034744263
2019-07-01T19:33:40.801Z,-0.664913,0.15616395,-0.16647656,0.06460571,-9.848862,0.6269226,-11.460876,42.251587,16.175842,-0.007248388,-9.784607,0.657114,-0.060676906,-0.06336403,-0.09746617,-0.01701355,0.022842407,0.039901733
2019-07-01T19:33:41.007Z,-0.66398966,0.15359108,-0.16802214,0.17468262,-9.681366,0.7920227,-11.503601,41.453552,15.112305,0.042563505,-9.78177,0.69681215,0.050402205,0.048348427,-0.0135867,0.027770996,0.0099487305,-0.013656616
2019-07-01T19:33:41.209Z,-0.6640003,0.15455674,-0.1659546,-0.062210083,-9.92543,0.6795654,-10.766602,41.947937,13.973999,0.0013767836,-9.782297,0.69069964,-0.0037780094,-0.025598526,0.031041265,-0.00039672852,0.0008544922,0.0050964355
2019-07-01T19:33:41.404Z,-0.6622961,0.1561238,-0.1676057,-0.023925781,-9.693329,0.7537384,-10.55603,41.079712,15.072632,-0.007247313,-9.779776,0.7254802,-0.025501305,0.0067014694,0.009980679,0.00045776367,0.017028809,0.005645752
2019-07-01T19:33:41.607Z,-0.6614533,0.15711568,-0.16963418,0.052642822,-9.853638,0.66041565,-11.227417,42.274475,15.115356,0.0021587412,-9.778594,0.7412694,-0.002653277,0.015742302,-0.016473114,0.014877319,0.012634277,-0.0066375732
2019-07-01T19:33:41.813Z,-0.6618794,0.15692821,-0.1698118,-0.026321411,-9.834503,0.7417755,-12.605286,42.033386,15.42511,0.0097256685,-9.779336,0.7313631,0.012016456,-0.0115766525,-0.04632789,0.012069702,-0.012588501,-0.004989624
2019-07-01T19:33:42.010Z,-0.6617366,0.15676881,-0.16944459,0.033493042,-9.726822,0.8542328,-12.07428,41.419983,14.5980835,0.0059295264,-9.778987,0.73605156,-0.012649523,-0.0073194504,-0.018705308,0.012130737,0.009460449,-0.0066375732
2019-07-01T19:33:42.212Z,-0.6598645,0.15750274,-0.17381896,0.3014984,-9.662216,0.8446655,-11.834717,42.80548,16.607666,0.044447027,-9.775476,0.7800556,0.0013373271,-0.009037018,-0.009988189,0.013168335,0.061325073,-0.035827637
2019-07-01T19:33:42.415Z,-0.659858,0.16244557,-0.177308,-0.18424988,-9.769897,0.727417,-12.208557,41.690063,16.3208,0.026630165,-9.777954,0.7492058,-0.004489621,-0.009213448,-0.0140199065,-0.032821655,0.020828247,0.013336182
2019-07-01T19:33:42.617Z,-0.65955824,0.16544037,-0.18281318,0.25842285,-9.712463,0.84706116,-12.5442505,41.375732,16.270447,0.060851965,-9.778675,0.737704,-0.07512876,0.025781631,0.00042414665,0.006942749,0.032669067,-0.01977539
2019-07-01T19:33:42.823Z,-0.6602757,0.16417271,-0.17895964,-0.04307556,-9.887146,0.7800598,-12.792969,41.210938,16.39862,0.029214354,-9.779597,0.7273256,0.064237505,-0.022377968,0.033833206,-0.0070495605,-0.011062622,0.033432007
2019-07-01T19:33:43.026Z,-0.66031915,0.16263856,-0.17559262,0.021530151,-9.865616,0.72024536,-12.609863,41.734314,16.345215,0.0034717254,-9.778989,0.7360345,0.058724117,-0.0017585754,0.020666063,-0.016647339,-0.0014801025,0.035873413
2019-07-01T19:33:43.236Z,-0.6606709,0.1620552,-0.17416853,-0.06700134,-9.7986145,0.6891327,-11.894226,41.796875,14.59198,-0.0061232504,-9.779392,0.73063666,0.029101843,0.036340714,0.014001727,0.0068206787,0.018188477,-0.0067596436
2019-07-01T19:33:43.436Z,-0.652515,0.19575854,-0.20745805,-0.023925781,-9.800995,0.6149597,-11.99646,41.352844,14.282227,-0.040429834,-9.781252,0.70417136,-0.06136508,-0.022559166,-0.04057771,0.0007019043,0.0337677,0.0007019043
2019-07-01T19:33:43.634Z,-0.6517036,0.19921437,-0.21099249,-0.021530151,-9.858429,0.66041565,-12.207031,42.066956,14.584351,-0.04116529,-9.78168,0.69815624,-0.017320499,-0.004368782,-0.046299517,-0.00021362305,0.028823853,-0.001083374
2019-07-01T19:33:43.847Z,-0.65184677,0.20155571,-0.21174325,-0.088531494,-9.839294,0.653244,-12.243652,41.264343,14.273071,-0.059083715,-9.783138,0.6760923,-0.0014881454,-0.003001213,-0.018727005,-0.0032043457,0.0017700195,0.007232666
2019-07-01T19:33:44.098Z,-0.6524647,0.20135632,-0.20984156,-0.086135864,-9.78186,0.7154541,-10.9939575,41.91742,16.166687,-0.07833149,-9.783977,0.66186035,-0.0010635853,-0.00470829,-0.0103183985,-0.008636475,-0.023468018,0.013336182
2019-07-01T19:33:44.243Z,-0.6525647,0.19991696,-0.20781599,-0.20578003,-9.839294,0.64845276,-12.268066,42.271423,15.837097,-0.087709256,-9.7833,0.6706275,-0.007514693,0.016677856,0.012517393,0.0052337646,-0.0236969,-0.0009460449
2019-07-01T19:33:44.447Z,-0.6525384,0.20160659,-0.20800874,-0.14117432,-9.853638,0.6077728,-12.109375,42.13257,16.18042,-0.10652653,-9.783971,0.6579942,-0.044090882,-0.01359272,-0.031668067,0.0044403076,0.0012207031,-0.0033416748
2019-07-01T19:33:44.649Z,-0.652142,0.20363182,-0.20988831,-0.057434082,-9.793823,0.68434143,-11.650085,41.578674,16.426086,-0.108808756,-9.784345,0.6520431,-0.01932823,0.0013465881,-0.033731163,0.0031433105,0.008422852,-0.0012054443
2019-07-01T19:33:44.856Z,-0.6519973,0.20330413,-0.21048824,-0.021530151,-9.743576,0.72502136,-10.627747,41.215515,15.4800415,-0.09743613,-9.784041,0.6583584,0.008245312,0.0030698776,-0.0069259405,0.004257202,0.0029907227,-0.0028533936
2019-07-01T19:33:45.064Z,-0.652289,0.20272525,-0.2094328,-0.18424988,-9.9039,0.6197357,-11.073303,41.911316,16.168213,-0.102639385,-9.78418,0.6555069,0.01921428,-0.0013580322,0.01811856,0.0032653809,0.0006713867,-0.0025482178
2019-07-01T19:33:45.258Z,-0.65170485,0.20297253,-0.2100795,-0.117248535,-9.820145,0.65563965,-11.529541,41.018677,14.494324,-0.10127567,-9.783316,0.6684793,-0.012520686,-0.0030822754,-0.008869529,-9.1552734e-05,-0.005142212,0.0050354004
2019-07-01T19:33:45.464Z,-0.6518017,0.2014783,-0.20989889,-0.06939697,-9.786652,0.6915283,-11.708069,42.16156,15.943909,-0.08423506,-9.782832,0.67785585,0.011305384,-0.004712105,-0.016002357,0.0055389404,-0.012588501,-0.0013275146
2019-07-01T19:33:45.664Z,-0.65186316,0.2010208,-0.20940633,-0.06700134,-9.796219,0.67477417,-11.605835,42.678833,15.817261,-0.08486909,-9.782685,0.67989546,0.00063309073,0.014463425,-0.0012646914,0.007980347,-0.003982544,-0.004623413
2019-07-01T19:33:45.870Z,-0.6518031,0.20233469,-0.20962997,-0.15074158,-9.9015045,0.55513,-11.491394,41.744995,15.246582,-0.098765746,-9.783166,0.6710381,-0.018868856,-0.011841774,-0.013589144,-3.0517578e-05,0.0032348633,-0.001449585
2019-07-01T19:33:46.069Z,-0.6511903,0.20442635,-0.21199536,0.011962891,-9.78186,0.727417,-12.434387,42.192078,15.374756,-0.09679256,-9.783257,0.6700117,-0.036350764,-0.01230526,-0.04542893,0.0024719238,0.0020751953,-0.0039520264
2019-07-01T19:33:46.270Z,-0.6510874,0.20161808,-0.21246621,0.13877869,-9.765106,0.7465668,-12.313843,41.096497,16.505432,-0.05571844,-9.781833,0.69500476,0.023075417,0.028316498,-0.0005865097,0.028930664,-0.005935669,-0.026977539
2019-07-01T19:33:46.473Z,-0.65270346,0.20402841,-0.20983236,-0.14596558,-9.724426,0.63409424,-11.895752,41.4917,16.192627,-0.11016157,-9.785482,0.6345017,-0.0002206564,-0.024644852,0.030728757,-0.04168701,0.003540039,0.027511597
2019-07-01T19:33:46.676Z,-0.6507698,0.20040277,-0.21324158,-0.0023956299,-9.726822,0.7513428,-13.168335,41.84265,16.316223,-0.032059442,-9.780665,0.71269584,-0.015467852,0.01498127,-0.0010406971,0.020248413,-0.008743286,-0.02520752
2019-07-01T19:33:46.879Z,-0.6517257,0.2009524,-0.21188405,-0.06700134,-9.841675,0.65563965,-12.051392,41.85486,15.063477,-0.05046636,-9.78264,0.68394935,-0.010159884,-0.00038909912,-0.009767175,0.010543823,-0.011795044,-0.008346558
2019-07-01T19:33:47.082Z,-0.65128505,0.20232326,-0.21285696,-0.100494385,-9.9015045,0.66041565,-11.265564,41.39557,15.092468,-0.057579264,-9.782572,0.6843683,-0.034340445,-0.016957283,-0.03795719,0.00920105,-0.004776001,0.0002593994
2019-07-01T19:33:47.283Z,-0.6503232,0.20347187,-0.21417435,0.03111267,-9.712463,0.71784973,-12.4557495,41.600037,16.087341,-0.061191574,-9.781459,0.699782,0.0030048974,0.0073137283,-0.04397428,0.012680054,0.010925293,0.005218506
2019-07-01T19:33:47.487Z,-0.6512335,0.19692762,-0.20862457,-0.0382843,-9.834503,0.7513428,-10.935974,41.48712,15.623474,-0.04883968,-9.779473,0.7279375,0.00904667,-0.0062065125,0.00030624866,0.0118255615,-0.0005645752,-0.0027313232
2019-07-01T19:33:47.703Z,-0.6514009,0.19429944,-0.2070428,-0.04307556,-9.808182,0.7346039,-12.426758,40.28473,16.949463,-0.036125418,-9.778333,0.7438258,0.02954859,0.0028705597,0.012425244,0.0079193115,-0.02041626,7.6293945e-05
2019-07-01T19:33:47.906Z,-0.6514781,0.1934541,-0.20669436,-0.007171631,-9.786652,0.7154541,-11.828613,42.951965,16.487122,-0.029599844,-9.778015,0.7482828,-0.0011620112,-0.0064172745,-0.023806691,0.0062713623,-0.014602661,-0.0032806396
2019-07-01T19:33:48.109Z,-0.65155154,0.19356914,-0.20620325,-0.04067993,-9.870392,0.7393799,-12.12616,41.693115,16.470337,-0.03733504,-9.7782,0.7455328,-0.019959915,-0.0028820038,-0.0070085526,-0.001739502,-0.0053253174,0.0019836426
2019-07-01T19:33:48.314Z,-0.65063846,0.19442706,-0.2069983,-0.04067993,-9.796219,0.79441833,-11.351013,41.24298,15.364075,-0.044154968,-9.7768755,0.76232344,-0.016220983,0.004839897,0.010501742,0.011764526,0.017089844,-0.004501343
2019-07-01T19:33:48.530Z,-0.6478262,0.20073974,-0.21409647,-0.03111267,-9.812973,0.8494568,-11.419678,41.76178,13.735962,-0.047457874,-9.775064,0.7850187,0.013887789,-0.0037202835,-0.024232864,0.0039367676,0.05595398,-0.0008392334
2019-07-01T19:33:48.728Z,-0.6477235,0.2015403,-0.21600151,-0.19621277,-10.04985,0.73698425,-12.57019,41.171265,14.115906,-0.031888526,-9.775425,0.7813107,0.04803833,0.00063610077,0.014890671,0.00340271,0.031143188,-0.00932312
2019-07-01T19:33:48.935Z,-0.6477548,0.20404087,-0.21607035,0.04547119,-9.722046,0.7800598,-12.768555,41.87622,15.626526,-0.06223224,-9.77691,0.760625,-0.017228488,5.340576e-05,0.0014179349,-0.020980835,-0.005874634,0.022735596
2019-07-01T19:33:49.148Z,-0.6481572,0.19913526,-0.21406531,0.033493042,-9.745972,0.78723145,-12.634277,41.226196,16.018677,-0.02496916,-9.774812,0.7891883,0.03245137,0.017998695,0.008638561,0.00047302246,-0.04373169,-0.000289917
2019-07-01T19:33:49.384Z,-0.65033853,0.19695455,-0.21068646,-0.050247192,-9.710068,0.6125641,-11.077881,41.76178,16.592407,-0.02736861,-9.777846,0.75057495,0.009727549,-0.002796173,-0.021124065,-0.0026550293,-0.039031982,-0.0032196045
2019-07-01T19:33:49.573Z,-0.6522876,0.19811524,-0.21154012,-0.31585693,-9.827316,0.71784973,-12.138367,41.62445,15.626526,-0.015092977,-9.782208,0.6917858,-0.03342057,-0.025871277,-0.101602435,-0.0149383545,-0.017044067,-0.01727295
2019-07-01T19:33:49.777Z,-0.65134513,0.20704798,-0.2145555,-0.1531372,-9.765106,0.88534546,-11.497498,41.674805,14.854431,-0.09251187,-9.784986,0.6448979,-0.13107884,-0.0074071884,0.0030727983,-0.021652222,0.076538086,0.011077881
2019-07-01T19:33:49.984Z,-0.64970785,0.21294731,-0.21941446,-0.122039795,-9.743576,1.1916199,-11.941528,40.696716,14.7491455,-0.11085665,-9.785241,0.6380821,-0.030371025,0.04320526,0.19953293,0.0014343262,0.06272888,0.002532959
2019-07-01T19:33:50.187Z,-0.6499535,0.20724827,-0.21153207,-0.4905243,-9.824936,0.76091003,-11.517334,41.085815,15.490723,-0.14842294,-9.782003,0.678789,-0.07070814,0.09446335,0.48670506,0.018295288,-0.20024109,0.040771484
2019-07-01T19:33:50.393Z,-0.6481228,0.19656259,-0.20210414,0.45463562,-9.734009,0.057434082,-11.273193,41.249084,15.211487,-0.15819135,-9.771858,0.81002903,-0.42309546,0.20261002,0.074184716,0.09655762,-0.08027649,0.0036773682
2019-07-01T19:33:50.604Z,-0.64483863,0.19644575,-0.20269898,0.38285828,-9.229111,0.28234863,-10.858154,41.72516,14.0060425,-0.1730757,-9.764262,0.8942134,0.2323197,-0.25445557,-0.6806184,0.023010254,0.0006713867,-0.013534546
2019-07-01T19:33:50.797Z,-0.64634395,0.19680566,-0.20594442,0.25602722,-9.489929,0.9499512,-10.050964,41.929626,13.259888,-0.12167761,-9.768697,0.8533169,0.49978194,-0.17653751,-0.61617327,-0.054626465,0.06047058,0.022003174
2019-07-01T19:33:50.996Z,-0.6510342,0.19708669,-0.20145796,-0.3062744,-9.999603,0.928421,-10.346985,42.034912,15.937805,-0.15196986,-9.778127,0.73179865,0.5668884,-0.12355137,-0.1841883,-0.04321289,-0.074523926,-0.0071868896
2019-07-01T19:33:51.203Z,-0.65687597,0.19138815,-0.19562921,-0.35653687,-9.683746,1.1629181,-9.410095,41.368103,15.911865,-0.11690886,-9.785993,0.625361,-0.20971966,0.15125847,0.3682422,-0.025558472,-0.095840454,-0.011520386
2019-07-01T19:33:51.404Z,-0.65596557,0.18417464,-0.19199823,-0.04547119,-9.772293,0.6915283,-9.823608,42.793274,16.748047,-0.08133448,-9.781158,0.7019379,-0.26318258,0.1384821,0.50157386,0.013656616,-0.23109436,-0.007736206
2019-07-01T19:33:51.606Z,-0.6625447,0.16051526,-0.16681613,-0.6699829,-9.7986145,0.6053772,-8.241272,42.0166,17.506409,-0.07491877,-9.781935,0.6917475,-0.014065266,-0.0005455017,0.038490415,-0.025131226,-0.29223633,0.03263855
2019-07-01T19:33:51.811Z,-0.6616821,0.16398987,-0.16871427,-0.5886383,-10.040283,0.550354,-9.57489,41.130066,16.853333,-0.100248344,-9.781688,0.69203746,-0.47798082,-0.0015583038,-0.09483856,0.035827637,0.30529785,-0.04359436
2019-07-01T19:33:52.002Z,-0.6488148,0.20453338,-0.2158625,1.0241241,-9.645462,0.6412811,-12.339783,40.663147,15.664673,-0.06290996,-9.779261,0.72972244,-0.08090116,-0.03786373,-0.117452025,-0.009429932,0.5247345,-0.041641235
2019-07-01T19:33:52.216Z,-0.65646994,0.19168471,-0.20293485,-0.3900299,-9.774673,0.6316986,-9.971619,41.25061,16.592407,-0.021813,-9.786137,0.6335919,0.96346784,-0.014532089,-0.10448921,-0.059402466,-0.4034729,0.022125244
2019-07-01T19:33:52.437Z,-0.6661589,0.1723874,-0.18075144,-0.44267273,-9.724426,0.74894714,-9.524536,40.252686,17.729187,-0.014403674,-9.792842,0.520045,-0.4038181,0.020590782,0.09973037,-0.029403687,-0.20941162,-0.008041382
2019-07-01T19:33:52.612Z,-0.66460884,0.16819833,-0.17884901,-0.06460571,-9.750748,0.5862427,-10.136414,40.93628,18.347168,0.003265418,-9.788977,0.5884852,-0.49045965,0.021100044,0.1598044,0.0438385,-0.0005493164,-0.0098724365
2019-07-01T19:33:52.819Z,-0.66135484,0.1730138,-0.1824909,-0.39959717,-9.812973,0.59103394,-9.681702,42.288208,17.170715,-0.030817872,-9.785638,0.6408844,-0.10952298,-0.04686451,-0.09534454,0.012496948,0.0033569336,0.013824463
2019-07-01T19:33:53.015Z,-0.6577115,0.17987461,-0.18864569,0.19142151,-9.757935,0.59580994,-9.434509,42.60254,16.317749,-0.059803765,-9.782328,0.6876566,-0.072540954,-0.011518478,-0.1295898,0.019210815,0.114715576,-0.0036468506
2019-07-01T19:33:53.223Z,-0.6558022,0.18328337,-0.19737944,0.18185425,-9.762711,0.75613403,-10.374451,41.300964,16.468811,0.0035692453,-9.780727,0.7125647,0.12395079,0.022075653,-0.0015981197,0.005722046,0.0634613,-0.059539795
2019-07-01T19:33:53.427Z,-0.6566017,0.18269882,-0.2045437,0.14117432,-9.71965,0.72502136,-11.074829,41.836548,16.455078,0.11646781,-9.781215,0.6961795,0.010656133,0.021985054,0.020903826,-0.009552002,0.020095825,-0.054901123
2019-07-01T19:33:53.633Z,-0.6569188,0.17899455,-0.20625469,0.095718384,-9.755539,0.71066284,-12.715149,41.220093,16.246033,0.19028078,-9.778751,0.7142888,-0.0021453649,0.006720543,0.003473103,0.0058288574,-0.01777649,-0.020751953
2019-07-01T19:33:53.834Z,-0.65677935,0.17850177,-0.20594974,0.14356995,-9.805786,0.7800598,-12.335205,40.65857,16.342163,0.1913723,-9.778212,0.72133815,-0.03842309,-0.01503849,-0.049341917,0.012863159,-0.00630188,0.004058838
2019-07-01T19:33:54.035Z,-0.6557932,0.17979072,-0.20647395,0.119644165,-9.820145,0.6915283,-11.590576,41.22162,15.9713745,0.17481108,-9.777304,0.737668,-0.024120674,0.00719738,-0.015395939,0.015487671,0.0143585205,-0.003829956
2019-07-01T19:33:54.235Z,-0.65508974,0.18272941,-0.20954943,0.17706299,-9.84407,0.69869995,-11.288452,40.730286,16.0141,0.1745533,-9.77752,0.7348595,-0.010540515,-0.01276207,-0.05286008,0.013961792,0.028701782,-0.0032196045
2019-07-01T19:33:54.446Z,-0.6546146,0.1838401,-0.211235,0.15792847,-9.772293,0.78245544,-12.062073,41.334534,16.317749,0.18020634,-9.777101,0.73907804,0.021107644,-0.0025520325,-0.0355711,0.004562378,0.0068359375,0.006011963
2019-07-01T19:33:54.701Z,-0.6545683,0.18341462,-0.21053107,0.21057129,-9.824936,0.69869995,-12.478638,41.015625,16.26892,0.17552088,-9.776862,0.74333215,0.014579028,0.0011587143,-0.0103420615,0.0074920654,-0.0042266846,0.002960205
2019-07-01T19:33:54.897Z,-0.6539298,0.18330847,-0.21057898,0.47138977,-9.755539,0.8614197,-12.240601,41.26129,14.724731,0.1727769,-9.775592,0.7604819,-0.007267669,0.0031995773,-0.019702494,0.01713562,-0.020401001,-0.0011444092
2019-07-01T19:33:55.100Z,-0.6567035,0.16691169,-0.20085865,-0.43070984,-9.731613,0.7896271,-10.929871,41.63513,15.501404,0.27099383,-9.770059,0.8018123,0.14162132,0.0228796,0.022591472,0.0036315918,-0.29534912,0.003189087
2019-07-01T19:33:55.302Z,-0.66245484,0.14404313,-0.17850907,0.42114258,-9.595215,0.42591858,-10.206604,41.381836,16.854858,0.3046772,-9.769828,0.7924781,-0.37042457,-0.001364708,-0.11321747,0.034057617,-0.1278534,0.0128479
2019-07-01T19:33:55.508Z,-0.6585695,0.16374405,-0.19303352,-0.07417297,-9.805786,0.9188385,-11.166382,41.68701,15.974426,0.21742564,-9.7736225,0.77421653,-0.2874345,-0.13698292,-0.18201971,-0.03942871,0.24092102,0.0045928955
2019-07-01T19:33:55.711Z,-0.6554122,0.1800767,-0.20835102,0.71784973,-9.865616,0.7082825,-11.827087,41.430664,15.12146,0.19441028,-9.776343,0.7454479,-0.2910999,0.04682064,0.0767231,0.03173828,0.34648132,-0.044815063
2019-07-01T19:33:55.912Z,-0.6450218,0.20209116,-0.23714134,0.59103394,-9.858429,0.9762726,-13.1073,41.792297,14.038086,0.23438004,-9.767325,0.8454523,0.17655171,-0.0122766495,0.06513828,-0.009246826,0.22705078,-0.009994507
2019-07-01T19:33:56.117Z,-0.6458057,0.2004086,-0.23397297,-0.007171631,-9.796219,0.68196106,-12.7456665,40.64026,15.299988,0.21766129,-9.76828,0.83888805,0.26462662,0.024725914,0.15239,-0.0105896,-0.11741638,0.022613525
2019-07-01T19:33:56.372Z,-0.6505371,0.19262111,-0.2215767,0.17228699,-9.815353,0.7417755,-10.455322,41.444397,15.74707,0.18095693,-9.774016,0.77862054,-0.12641297,-0.025156975,-0.088258624,-0.015167236,-0.13702393,0.023849487
2019-07-01T19:33:56.518Z,-0.6543825,0.18419665,-0.20952518,0.095718384,-9.738785,0.6915283,-10.971069,40.681458,15.687561,0.15009557,-9.777351,0.7424634,-0.051671565,0.0012016296,-0.022568941,-0.023605347,-0.20654297,0.038742065
2019-07-01T19:33:56.728Z,-0.65960854,0.17204489,-0.19075416,0.14356995,-9.858429,0.6795654,-10.903931,40.246582,16.273499,0.08432149,-9.781792,0.69268596,-0.0747483,-0.02100277,0.009077251,-0.011749268,-0.154068,0.031845093
2019-07-01T19:33:56.931Z,-0.66153115,0.16694714,-0.1830331,-0.5288086,-10.025925,0.33738708,-9.405518,41.363525,16.441345,0.05715651,-9.783104,0.6767604,0.049144506,-0.050423622,-0.10215485,-0.009735107,-0.078063965,0.03276062
2019-07-01T19:33:57.134Z,-0.6577909,0.1774576,-0.19247375,-0.55992126,-9.415756,0.7800598,-11.157227,41.75415,16.819763,0.025104314,-9.78142,0.7025476,-0.29580724,0.0139045715,-0.17888069,-0.0055236816,0.118011475,0.0049743652
2019-07-01T19:33:57.334Z,-0.65718323,0.17950545,-0.1949017,-0.08375549,-9.71965,0.7728882,-10.624695,40.986633,17.019653,0.02791513,-9.781316,0.70388186,-0.063411035,0.003894806,-0.032794476,0.0137786865,0.038848877,-0.010055542
2019-07-01T19:33:57.534Z,-0.659172,0.1783348,-0.19066626,-0.39959717,-9.973282,0.24406433,-10.267639,41.584778,18.107605,-0.0016360973,-9.784365,0.66075206,0.012886596,-0.004135132,0.053492427,-0.015731812,-0.052719116,0.019256592
2019-07-01T19:33:57.725Z,-0.6497138,0.20608827,-0.216005,0.447464,-9.805786,0.7034912,-10.98938,40.167236,16.111755,-0.07325515,-9.781767,0.6943028,-0.36873132,0.010191917,-0.20579952,0.0413208,0.4511261,-0.056732178
2019-07-01T19:33:57.934Z,-0.6442315,0.21747355,-0.23174776,0.114852905,-9.805786,0.68673706,-11.436462,41.16516,15.048218,-0.03906464,-9.778699,0.73885286,0.33899462,0.0073976517,-0.113782346,0.020309448,0.17390442,-0.03779602
2019-07-01T19:33:58.140Z,-0.6393811,0.22847134,-0.24956407,-0.279953,-9.750748,0.75613403,-13.536072,41.1026,14.595032,0.03570204,-9.776719,0.76477444,-0.014747538,-0.021303177,-0.13239032,-0.0061950684,0.116119385,-0.026062012
2019-07-01T19:33:58.344Z,-0.6400718,0.2312506,-0.250143,-0.0382843,-9.786652,0.6891327,-13.624573,40.878296,14.628601,0.016773963,-9.779994,0.72238255,-0.08261706,0.0105781555,-0.007999897,-0.000579834,0.024612427,-0.00016784668
2019-07-01T19:33:58.548Z,-0.63960737,0.23103203,-0.24949858,0.279953,-9.887146,0.57188416,-14.1189575,40.473938,15.470886,0.006018262,-9.778989,0.736021,-0.06537652,-0.0028057098,-0.079098046,0.0211792,0.0014038086,-0.0012664795
2019-07-01T19:33:58.753Z,-0.6382879,0.22999719,-0.25219652,0.48095703,-10.241287,0.5862427,-13.5849,41.68091,15.016174,0.044681657,-9.775602,0.7784495,0.023626406,-0.024284363,-0.16643012,0.002670288,-0.10610962,-0.0040130615
2019-07-01T19:33:58.957Z,-0.6516186,0.19997898,-0.21658769,-0.050247192,-9.870392,0.653244,-12.477112,41.08734,16.133118,0.02673203,-9.782002,0.6943421,0.18061511,-0.021318436,0.068939745,-0.056655884,-0.4637146,0.08908081
2019-07-01T19:33:59.156Z,-0.6582779,0.17973834,-0.19016257,-0.18424988,-9.674179,0.64845276,-9.877014,41.62445,16.513062,-0.03306237,-9.783406,0.67399704,-0.2709226,-0.00596714,-0.07645261,-0.03227234,-0.2904663,0.05908203
2019-07-01T19:33:59.358Z,-0.66053843,0.1767018,-0.18207115,-0.30867004,-9.789032,0.62931824,-9.510803,40.696716,17.140198,-0.09015224,-9.785541,0.636754,-0.17917062,0.062506676,-0.034535766,-0.0042419434,-0.20176697,0.03501892
2019-07-01T19:33:59.561Z,-0.661013,0.17728145,-0.17932853,-0.22970581,-10.121643,0.49771118,-7.975769,40.719604,17.76123,-0.13243921,-9.786109,0.6204296,-0.2862836,0.014418602,-0.068101645,0.023788452,0.0496521,-0.012863159
2019-07-01T19:33:59.766Z,-0.6589435,0.18172596,-0.18498467,-0.0765686,-9.853638,0.34217834,-9.669495,40.911865,16.28418,-0.12589288,-9.784757,0.64271224,-0.07535671,-0.001373291,-0.057687044,0.010299683,0.104141235,-0.013595581
2019-07-01T19:33:59.966Z,-0.65544856,0.1953027,-0.19975357,-0.08135986,-9.841675,0.6006012,-9.54895,41.48712,18.058777,-0.119839385,-9.785503,0.63241255,-0.06952358,0.0017137527,-0.11550158,0.019821167,0.1486206,-0.028686523
2019-07-01T19:34:00.172Z,-0.65328133,0.20007585,-0.20745963,-0.2632141,-9.836899,0.6388855,-10.398865,40.864563,16.078186,-0.089153126,-9.784611,0.6510272,-0.014887594,-0.0001039505,-0.037665546,0.012008667,-0.0013427734,-0.008285522
2019-07-01T19:34:00.375Z,-0.65458494,0.19784229,-0.20109579,-0.3756714,-9.872787,0.6197357,-10.133362,41.46881,15.435791,-0.13982005,-9.785069,0.635019,-0.05016397,-0.0061903,-0.0043469667,-0.012374878,-0.10317993,0.022918701
2019-07-01T19:34:00.575Z,-0.65483737,0.19813637,-0.19625641,-0.41156006,-9.784256,0.49291992,-9.405518,41.28723,16.801453,-0.20911048,-9.784399,0.6262521,-0.09157716,0.017806053,0.0037495494,-0.0007019043,-0.016555786,0.009857178
2019-07-01T19:34:00.778Z,-0.6502846,0.21266606,-0.20951869,0.19381714,-9.800995,0.74894714,-10.038757,41.537476,16.879272,-0.24155988,-9.783686,0.6257252,-0.13411649,-0.009048462,-0.1080845,0.048233032,0.22216797,-0.054153442
2019-07-01T19:34:00.980Z,-0.64545554,0.22010358,-0.22510901,-0.107681274,-9.848862,0.68434143,-10.919189,41.775513,16.13617,-0.15437154,-9.781457,0.68531966,0.27423042,-0.0067453384,0.03264451,0.016342163,0.05937195,-0.03466797
2019-07-01T19:34:01.184Z,-0.6478302,0.21126051,-0.21925408,-0.007171631,-9.832108,0.75613403,-11.018372,41.255188,16.786194,-0.10752533,-9.781052,0.6999012,0.10499134,-0.02325344,0.057640195,-0.001373291,-0.19023132,0.012969971
2019-07-01T19:34:01.389Z,-0.6539398,0.19743836,-0.19890615,-0.18424988,-9.812973,0.43070984,-9.0789795,41.45508,16.673279,-0.17007647,-9.783293,0.6547089,0.011223689,0.026696205,0.08463031,-0.012664795,-0.14772034,0.03227234
2019-07-01T19:34:01.585Z,-0.6488725,0.2055982,-0.21501152,0.1531372,-9.734009,0.76091003,-9.8602295,42.06543,16.151428,-0.08770672,-9.779813,0.7196879,-0.28891188,-0.00029182434,-0.17360431,0.04664612,0.2984619,-0.09423828
2019-07-01T19:34:01.788Z,-0.64102656,0.2189064,-0.23782666,0.1531372,-9.681366,0.933197,-11.094666,41.474915,15.704346,0.0012725217,-9.773357,0.80738044,0.03772508,-0.024061203,-0.084092855,0.021408081,0.12889099,-0.026306152
2019-07-01T19:34:01.996Z,-0.64415115,0.2160239,-0.23134258,-0.071777344,-9.810577,0.76091003,-10.84137,41.862488,15.316772,-0.027568663,-9.777643,0.7532095,0.22339313,-0.003361702,0.05659449,-0.02671814,-0.0940094,0.02670288
2019-07-01T19:34:02.197Z,-0.64658535,0.21115454,-0.22426231,-0.1603241,-9.789032,0.72024536,-12.071228,41.26587,15.85083,-0.046237893,-9.779155,0.73238355,0.02077479,0.004180908,0.0066833496,-0.010467529,-0.09565735,0.02017212
2019-07-01T19:34:02.411Z,-0.6488036,0.2067525,-0.21644908,-0.055038452,-9.784256,0.68673706,-10.437012,41.732788,16.331482,-0.082642846,-9.780412,0.71210647,-0.04846728,0.00023937225,0.013849497,-0.006134033,-0.058273315,0.020050049
2019-07-01T19:34:02.605Z,-0.6491371,0.20571408,-0.21482816,-0.035888672,-9.812973,0.6891327,-10.450745,41.44287,16.049194,-0.08961727,-9.780357,0.7120173,0.0140245855,0.0030546188,-0.002448976,0.00064086914,-0.0025177002,0.0043640137
2019-07-01T19:34:02.803Z,-0.64946115,0.20552196,-0.21463305,-0.117248535,-9.846466,0.6652069,-10.699463,41.35437,15.962219,-0.0873561,-9.780863,0.70531243,0.024929129,-0.0057821274,-0.01693666,-0.0011291504,-0.0041046143,0.005645752
2019-07-01T19:34:03.006Z,-0.64976424,0.20567332,-0.21434663,-0.13400269,-9.810577,0.61735535,-9.672546,40.914917,15.830994,-0.090847835,-9.781472,0.69636804,0.004965909,0.005423546,-0.009181857,0.00039672852,0.0043945312,-0.0008392334
2019-07-01T19:34:03.210Z,-0.64972454,0.20724271,-0.21534453,-0.102890015,-9.755539,0.74894714,-11.088562,41.46881,16.607666,-0.09685563,-9.782241,0.6846699,-0.021260783,-0.012766838,-0.035138607,-0.0032043457,-0.0037384033,0.0032653809
2019-07-01T19:34:03.416Z,-0.64956427,0.20755994,-0.21604383,-0.098098755,-9.817749,0.6652069,-10.661316,42.233276,15.687561,-0.092317104,-9.782179,0.686174,-0.0072110817,0.011876106,-0.008230746,0.008346558,0.0016479492,-0.008468628
2019-07-01T19:34:03.618Z,-0.65835035,0.17958754,-0.18498784,-0.24645996,-9.870392,0.6125641,-10.929871,41.633606,15.577698,-0.102259755,-9.782983,0.6731907,-0.0053281337,-0.009688377,-0.011783779,0.0035247803,-0.0042266846,-0.0040130615
2019-07-01T19:34:03.820Z,-0.6574239,0.18198603,-0.18707225,-0.0765686,-9.834503,0.72262573,-10.189819,40.148926,15.849304,-0.11094189,-9.782411,0.6800886,-0.053534262,-0.009123802,-0.02281189,-3.0517578e-05,0.006286621,0.0008087158
2019-07-01T19:34:04.018Z,-0.6567914,0.18082482,-0.18863675,0.07896423,-9.772293,0.73220825,-10.786438,41.053772,16.433716,-0.07867681,-9.780984,0.70465654,0.013298087,0.022287369,-0.007871866,0.014266968,0.008666992,-0.0110321045
2019-07-01T19:34:04.217Z,-0.65713924,0.17951396,-0.18814123,-0.06939697,-9.824936,0.653244,-10.427856,42.02881,15.864563,-0.05225559,-9.779435,0.72822,-0.034671724,-0.006052971,-0.019924223,0.011459351,0.004211426,-0.007736206
2019-07-01T19:34:04.423Z,-0.655829,0.18153661,-0.19122986,-0.026321411,-9.915863,0.7728882,-10.519409,41.50238,17.271423,-0.05880804,-9.779684,0.7243732,-0.0058200806,-0.0114917755,-0.017387569,-0.0043029785,-0.0028076172,0.007293701
2019-07-01T19:34:04.626Z,-0.65673333,0.17740178,-0.18786362,0.0023956299,-9.765106,0.7465668,-10.969543,40.83252,15.188599,-0.045276824,-9.779322,0.73020244,0.05807604,0.024633408,0.03525555,-0.00039672852,-0.012893677,0.004852295
2019-07-01T19:34:04.829Z,-0.65644157,0.17955798,-0.18989098,0.06460571,-9.748352,0.77526855,-10.040283,41.766357,15.492249,-0.04734555,-9.779875,0.7226213,-0.034102637,-0.015987396,-0.042077124,-0.002960205,0.0009765625,0.005264282
2019-07-01T19:34:05.032Z,-0.65650314,0.17917052,-0.18882158,-0.071777344,-9.848862,0.67237854,-9.953308,41.8396,16.030884,-0.056657527,-9.779741,0.7237605,0.020203993,0.013413429,0.02301222,0.006149292,0.009887695,-0.0060272217
2019-07-01T19:34:05.235Z,-0.6567698,0.1801415,-0.18890174,-0.14356995,-9.820145,0.69392395,-11.886597,41.71295,16.08429,-0.06629973,-9.780685,0.71004903,-0.00931783,-0.018109322,-0.022704005,-0.004058838,-0.010574341,0.0065612793
2019-07-01T19:34:05.426Z,-0.65705115,0.1807662,-0.18844831,-0.100494385,-9.796219,0.68434143,-11.048889,42.497253,16.059875,-0.07870664,-9.781434,0.69837886,-0.014601402,0.003499031,-0.018241644,-0.0020446777,-0.0064849854,0.0038757324
2019-07-01T19:34:05.634Z,-0.65714383,0.18104085,-0.18811299,-0.122039795,-9.808182,0.72502136,-10.874939,40.90271,16.482544,-0.08625697,-9.78168,0.69403964,-0.012520887,-0.0002374649,-0.009573221,-0.0016174316,-0.005935669,0.0016174316
2019-07-01T19:34:05.841Z,-0.6569227,0.18169802,-0.18827489,-0.06700134,-9.800995,0.6771698,-10.05249,41.397095,16.098022,-0.09407915,-9.781535,0.69506395,-0.014285386,0.0065641403,0.0030161738,0.0025939941,0.010131836,-0.0028533936
2019-07-01T19:34:06.042Z,-0.6563882,0.18284819,-0.1898955,-0.059814453,-9.810577,0.6699829,-10.551453,40.99884,16.113281,-0.09030256,-9.781175,0.70060724,-0.0113487765,-0.0031881332,-0.013870716,0.0047912598,0.0064697266,-0.003036499
2019-07-01T19:34:06.261Z,-0.65653163,0.18371898,-0.19040154,-0.086135864,-9.805786,0.7034912,-11.180115,41.24298,16.790771,-0.0935403,-9.781853,0.69065356,-0.004976727,-0.0041675568,-0.025029004,0.00033569336,0.0038452148,0.0012359619
2019-07-01T19:34:06.456Z,-0.65652233,0.18368796,-0.1903868,-0.119644165,-9.779465,0.68673706,-10.826111,41.921997,16.914368,-0.0934095,-9.781821,0.6911167,0.014283814,-0.0028276443,0.0009750724,0.0013122559,-0.004043579,0.0018615723
2019-07-01T19:34:06.656Z,-0.65662074,0.1831583,-0.1898286,-0.0765686,-9.815353,0.6628113,-10.299683,41.308594,15.711975,-0.093597814,-9.781729,0.69239414,-0.0030142963,0.0028505325,-0.006888807,0.0018005371,-0.0050811768,0.00032043457
2019-07-01T19:34:06.857Z,-0.6565273,0.18400641,-0.19037832,-0.105285645,-9.82254,0.7010956,-10.517883,41.651917,16.77246,-0.09760494,-9.78195,0.6886928,-0.0116814375,0.00022983551,-0.017958641,0.0010681152,0.0021972656,0.0001373291
2019-07-01T19:34:07.061Z,-0.65653723,0.18428098,-0.19048303,-0.122039795,-9.777069,0.68673706,-10.679626,41.71753,16.337585,-0.09962892,-9.782087,0.6864539,-0.00079357624,-0.0017633438,-0.0040457845,0.001373291,0.0049438477,-0.00065612793
2019-07-01T19:34:07.266Z,-0.65650326,0.18454804,-0.19056919,-0.15553284,-9.841675,0.6699829,-10.105896,41.900635,16.578674,-0.1021232,-9.782136,0.68539673,-0.005461991,-0.00065517426,-0.0072951913,0.001373291,-0.0050811768,0.00050354004
2019-07-01T19:34:07.467Z,-0.65801615,0.18024136,-0.18524252,-0.13160706,-9.791428,0.67477417,-10.139465,41.3208,15.707397,-0.10953,-9.782626,0.6772049,-0.009532563,0.00075531006,-0.019119859,-0.00021362305,-0.01612854,0.0030822754
2019-07-01T19:34:07.672Z,-0.65808785,0.17967089,-0.18431623,-0.093322754,-9.827316,0.68196106,-10.179138,42.11731,16.174316,-0.11444049,-9.782419,0.6793796,-0.012523301,0.0016469955,-0.008776963,0.00541687,0.0072021484,-0.0037078857
2019-07-01T19:34:07.873Z,-0.65785193,0.1798441,-0.18555814,-0.088531494,-9.827316,0.6699829,-10.528564,41.511536,15.988159,-0.10114708,-9.782227,0.6842481,0.005251318,-1.9073486e-06,-0.013381302,0.0066986084,0.005859375,-0.006210327
2019-07-01T19:34:08.076Z,-0.65751857,0.18035123,-0.18632087,-0.06460571,-9.779465,0.6771698,-10.298157,41.230774,16.374207,-0.0994909,-9.781891,0.68926567,-0.013637446,-0.00037956238,-0.00884223,0.0068206787,-7.6293945e-05,-0.005783081
2019-07-01T19:34:08.278Z,-0.6573801,0.17984398,-0.18670715,-0.114852905,-9.820145,0.7154541,-12.211609,41.539,16.818237,-0.08852885,-9.78149,0.6964206,-0.0061846077,-0.0075769424,-0.015060067,0.00491333,-0.005630493,-0.0056610107
2019-07-01T19:34:08.482Z,-0.6571178,0.17920102,-0.18638553,-0.08375549,-9.8033905,0.67237854,-10.334778,42.32788,15.995789,-0.08643907,-9.780699,0.707711,-0.016924419,0.008467674,-0.00214082,0.009628296,0.011047363,-0.007797241
2019-07-01T19:34:08.684Z,-0.6572975,0.1778151,-0.18595189,-0.15792847,-9.784256,0.6891327,-11.0321045,41.116333,15.70282,-0.0731599,-9.780437,0.7127824,-0.0117936805,-0.010276794,-0.031215549,0.008163452,0.007019043,-0.008834839
2019-07-01T19:34:08.889Z,-0.65679777,0.18123895,-0.18852207,0.062210083,-9.836899,0.7800598,-9.135437,42.26532,15.255737,-0.085586466,-9.781149,0.7015501,-0.038261004,-0.01764679,-0.03365308,-0.0011901855,0.02583313,-0.0024871826
2019-07-01T19:34:09.084Z,-0.6574407,0.17622621,-0.18598811,-0.63648987,-9.753143,0.8518524,-11.100769,41.101074,17.062378,-0.05097597,-9.780043,0.7201231,0.07698019,0.022340775,0.055583894,-0.0071105957,-0.020645142,0.0022888184
2019-07-01T19:34:09.298Z,-0.65483207,0.18280873,-0.19303033,-0.13639832,-9.808182,0.6963043,-12.312317,41.323853,15.420532,-0.057455603,-9.778452,0.7409108,-0.3898322,0.0059928894,0.07802999,0.03326416,0.19412231,-0.030395508
2019-07-01T19:34:09.521Z,-0.64520735,0.19962688,-0.21638222,0.4665985,-9.908676,0.5431671,-12.843323,42.092896,15.220642,-0.022104228,-9.768828,0.86017185,-0.036698163,-0.00036621094,-0.17336404,0.05935669,0.27275085,-0.03981018
2019-07-01T19:34:09.701Z,-0.6425065,0.20793033,-0.22984543,0.67237854,-9.96611,0.4019928,-12.0651245,41.63971,14.416504,0.038431816,-9.768616,0.8620126,0.48953557,-0.07192135,-0.3149295,-0.001373291,0.12515259,-0.039749146
2019-07-01T19:34:09.893Z,-0.6456873,0.20756164,-0.23522288,0.67237854,-9.793823,0.2632141,-13.592529,41.381836,15.863037,0.14472058,-9.7741375,0.7846521,0.4929313,-0.08482647,-0.3419109,-0.06904602,0.01184082,-0.045181274
2019-07-01T19:34:10.108Z,-0.6545161,0.20566253,-0.23787189,-0.117248535,-9.729218,0.7776642,-14.790344,39.84375,15.748596,0.2802189,-9.785773,0.5748965,0.25525492,-0.00992012,-0.34530878,-0.11669922,0.028030396,-0.08758545
2019-07-01T19:34:10.306Z,-0.65984887,0.21084255,-0.24318412,-0.64845276,-9.796219,1.2131653,-13.764954,41.075134,16.334534,0.3394678,-9.792806,0.39510816,-0.48876727,0.14448833,0.39438814,-0.0073547363,0.03627014,0.07325745
2019-07-01T19:34:10.507Z,-0.64448565,0.22101459,-0.23164761,-0.6963043,-9.702896,1.0695953,-13.510132,41.459656,15.948486,-0.08177235,-9.781152,0.7019755,-0.6475197,-0.06934166,0.5920839,0.09979248,-0.06201172,0.15927124
2019-07-01T19:34:10.746Z,-0.642567,0.2214986,-0.23488915,0.41156006,-9.889542,0.23449707,-12.849426,41.72058,16.427612,-0.05855157,-9.778043,0.74620837,-0.7545846,0.08114624,0.45499647,0.11433411,0.18692017,-0.027648926
2019-07-01T19:34:10.936Z,-0.6330901,0.22287397,-0.23832363,1.3926239,-9.841675,0.41635132,-14.286804,42.13867,15.667725,-0.10914475,-9.757816,0.9713325,0.69019306,-0.004585266,-0.5663823,0.051651,-0.091812134,0.052246094
2019-07-01T19:34:11.175Z,-0.6474332,0.19654544,-0.20753731,0.45224,-9.820145,0.3517456,-12.1658325,41.19568,14.331055,-0.088080704,-9.771263,0.8276832,1.2694701,-0.16106224,-0.5854587,-0.12219238,-0.5891266,0.09176636
2019-07-01T19:34:11.375Z,-0.67181486,0.15749842,-0.1527307,-0.31585693,-9.643082,0.75852966,-9.14917,41.363525,18.545532,-0.17300357,-9.793951,0.4679552,0.35829124,0.01606369,0.008361399,-0.15859985,-0.60214233,0.045410156
2019-07-01T19:34:11.573Z,-0.6811952,0.13356365,-0.123352274,-1.174881,-10.016357,0.46180725,-8.074951,40.35034,17.463684,-0.20970495,-9.797955,0.35566404,-0.35017633,-0.04664421,0.3010871,-0.057617188,-0.27226257,0.018035889
2019-07-01T19:34:11.778Z,-0.67691714,0.13472354,-0.12990789,-0.5862427,-9.595215,0.42591858,-6.752014,41.0141,18.37616,-0.15628995,-9.794442,0.4635168,-0.7376907,0.1392231,0.07207844,0.08103943,0.15704346,-0.03466797
2019-07-01T19:34:11.982Z,-0.6676377,0.15626559,-0.15661629,0.17228699,-9.734009,0.45463562,-8.395386,40.55481,16.76178,-0.12785825,-9.788334,0.58527917,-0.39005652,0.0011720657,-0.30579275,0.09617615,0.41716003,-0.07261658
2019-07-01T19:34:12.183Z,-0.6582474,0.17966081,-0.18685326,0.35414124,-9.745972,0.7680969,-10.195923,41.67633,16.53595,-0.078109525,-9.783057,0.67533153,0.076207094,-0.0776701,-0.21590656,0.025390625,0.30592346,-0.030822754
2019-07-01T19:34:12.387Z,-0.65642637,0.1833629,-0.19369282,-0.21534729,-9.805786,0.74894714,-10.940552,41.33911,15.895081,-0.044091366,-9.781827,0.6959289,0.3294659,-0.008498192,-0.011661649,-0.0105896,-0.06628418,0.0071105957
2019-07-01T19:34:12.585Z,-0.661735,0.17293744,-0.17888574,-0.4665985,-9.88475,0.44267273,-10.035706,41.60919,17.045593,-0.07717155,-9.78599,0.6315373,-0.011597641,-0.00069999695,0.0660733,-0.02684021,-0.15870667,0.021820068
2019-07-01T19:34:12.788Z,-0.6637254,0.17151542,-0.17412496,0.22732544,-9.693329,0.6460571,-8.857727,41.036987,16.503906,-0.11132502,-9.788289,0.58940053,-0.20367903,-0.008892059,-0.09697664,-0.026412964,-0.06695557,0.029891968
2019-07-01T19:34:12.994Z,-0.6687414,0.15810396,-0.15504928,-0.97387695,-9.9015045,0.46899414,-7.6324463,41.18042,17.765808,-0.16723694,-9.790066,0.54501563,0.24643576,0.07738304,0.08680129,-0.0101623535,-0.24984741,0.03337097
2019-07-01T19:34:13.195Z,-0.6664797,0.15992245,-0.15630075,0.04067993,-9.800995,0.51924133,-8.769226,40.802002,18.870544,-0.1875999,-9.786912,0.592903,-0.5002668,-0.010825157,-0.13090777,0.041763306,0.15124512,-0.022277832
2019-07-01T19:34:13.399Z,-0.663285,0.16701272,-0.16596721,-0.095718384,-9.839294,0.5647125,-9.004211,41.23993,17.230225,-0.167811,-9.784905,0.6307585,0.15447006,-0.051282883,-0.09101516,0.01322937,0.06919861,-0.0021209717
2019-07-01T19:34:13.604Z,-0.66251796,0.16755758,-0.16819677,-0.43788147,-9.896713,0.59820557,-9.089661,41.085815,17.277527,-0.14913519,-9.78414,0.6471288,0.05461128,-0.014502525,-0.074447155,0.0034637451,-0.033599854,-0.005844116
2019-07-01T19:34:13.805Z,-0.6635369,0.1643738,-0.16458833,0.026321411,-9.755539,0.68434143,-8.872986,40.670776,16.429138,-0.15042806,-9.784499,0.64135504,-0.104178846,0.00669384,-0.05760753,-0.002960205,0.0025634766,0.006500244
2019-07-01T19:34:14.006Z,-0.6629525,0.16698231,-0.16692771,-0.34217834,-9.848862,0.61735535,-7.8826904,41.244507,16.656494,-0.15628386,-9.784522,0.6396082,0.041933134,-0.011369705,0.008940816,0.00289917,0.027542114,-0.0063934326
2019-07-01T19:34:14.211Z,-0.66233546,0.17106225,-0.16864654,-0.39242554,-9.693329,0.6628113,-8.277893,41.441345,16.183472,-0.19013727,-9.784636,0.6285953,-0.041485295,0.014250755,-0.002538681,-0.006439209,0.031448364,0.0074768066
2019-07-01T19:34:14.412Z,-0.6595728,0.18143548,-0.17738564,-0.15553284,-9.846466,0.4091797,-9.988403,40.885925,16.74347,-0.22299926,-9.783948,0.62850624,-0.11258915,-0.0059137344,-0.061205685,0.032226562,0.13383484,-0.03161621
2019-07-01T19:34:14.616Z,-0.65801305,0.18912038,-0.19064662,0.06460571,-9.872787,0.7848511,-10.203552,41.529846,16.357422,-0.14901032,-9.786341,0.6129612,0.072479516,-0.02461338,-0.11597967,0.0034484863,0.09669495,-0.019348145
2019-07-01T19:34:14.815Z,-0.6595286,0.18603402,-0.18663636,-0.3254242,-9.891922,0.49531555,-10.06012,41.178894,15.977478,-0.1543804,-9.787274,0.5965062,0.13671917,0.022574425,0.05349517,0.0055999756,-0.01020813,-0.00090026855
2019-07-01T19:34:15.025Z,-0.6567773,0.195095,-0.19982558,-0.39959717,-9.791428,0.5814514,-10.957336,40.82184,16.770935,-0.106231816,-9.787714,0.5998043,-0.07618202,-0.075099945,-0.12254971,-0.013153076,0.06706238,-0.014205933
2019-07-01T19:34:15.221Z,-0.65721095,0.18878497,-0.19481733,0.15553284,-9.920639,0.63409424,-10.081482,40.663147,16.401672,-0.092499636,-9.785559,0.6361384,-0.07038544,0.086966515,0.020009875,0.031677246,-0.006362915,-0.022216797
2019-07-01T19:34:15.420Z,-0.65888995,0.18740232,-0.19302978,-0.08375549,-9.784256,0.64367676,-9.564209,41.348267,17.123413,-0.13543893,-9.78607,0.62039226,-0.060059935,0.025227547,0.0007927418,0.0075531006,-0.025054932,0.0027008057
2019-07-01T19:34:15.641Z,-0.66322386,0.16403784,-0.16552164,-0.15074158,-9.856033,0.68673706,-9.565735,41.197205,17.773438,-0.13510494,-9.784041,0.6516651,-0.009977952,0.009112358,0.0060574412,0.014328003,-0.021270752,0.0039978027
2019-07-01T19:34:15.834Z,-0.66211545,0.16335566,-0.16401134,-0.29431152,-9.841675,0.83270264,-10.733032,40.472412,16.615295,-0.15372847,-9.781499,0.68485856,-0.016402528,-0.0010900497,0.001673758,0.01725769,-0.015090942,0.009429932
2019-07-01T19:34:16.093Z,-0.6611996,0.16308579,-0.15856664,-0.24406433,-9.84407,0.57188416,-8.930969,41.32538,15.887451,-0.230358,-9.778176,0.7103556,0.0077529103,-0.012237549,0.021778584,-0.0027770996,-0.07777405,0.053955078
2019-07-01T19:34:16.288Z,-0.6656837,0.15328448,-0.14585356,-0.33259583,-9.796219,0.5024872,-8.435059,43.095398,17.811584,-0.2471152,-9.781665,0.65447813,0.09373671,-0.0074863434,-0.04231614,-0.02861023,-0.12516785,0.035568237
2019-07-01T19:34:16.493Z,-0.6665931,0.15419747,-0.14681154,0.4139557,-10.136002,0.68196106,-8.255005,41.874695,16.648865,-0.24105436,-9.783731,0.62521,-0.050577372,0.029049873,-0.08699888,0.03717041,0.020523071,-0.046829224
2019-07-01T19:34:16.694Z,-0.66986907,0.14583242,-0.13610695,-0.6053772,-9.853638,0.37088013,-7.4768066,41.49933,15.559387,-0.25737885,-9.785588,0.5885621,0.34665957,-0.14078999,0.049800277,-0.055130005,-0.19639587,0.05706787
2019-07-01T19:34:16.896Z,-0.6697937,0.13959774,-0.13146223,-0.38285828,-9.013763,0.63409424,-6.4697266,42.211914,16.720581,-0.23711272,-9.7838125,0.6254459,-0.26688373,0.22431469,-0.0015362501,0.017623901,-0.046310425,-0.0051116943
2019-07-01T19:34:17.099Z,-0.6702705,0.14209719,-0.13021415,-0.1268158,-9.985245,0.6125641,-7.8689575,41.2323,18.389893,-0.28548193,-9.784169,0.59910446,-0.15016413,-0.039099693,0.087637246,0.01512146,0.022842407,-0.0052948
2019-07-01T19:34:17.302Z,-0.6701485,0.14104177,-0.12799884,0.0382843,-9.585648,0.58384705,-8.2977295,40.774536,17.333984,-0.30207205,-9.783111,0.6081741,-0.0344415,-0.16786098,-0.05072874,-0.006439209,0.026809692,0.006439209
2019-07-01T19:34:17.507Z,-0.66711867,0.1430288,-0.13599606,-0.30389404,-9.470795,0.9690857,-7.2921753,41.71753,17.182922,-0.23568536,-9.780444,0.676569,0.0027882159,0.026763916,-0.10387826,-0.0017852783,0.014404297,0.002090454
2019-07-01T19:34:17.702Z,-0.66763645,0.14204568,-0.13124609,-0.38523865,-9.552155,0.66041565,-7.020569,40.644836,17.027283,-0.28431624,-9.779705,0.66851056,0.07946476,0.043685913,-0.006627202,0.017501831,-0.058639526,0.0121154785
2019-07-01T19:34:17.906Z,-0.66889876,0.14276469,-0.12995163,-0.43788147,-10.059433,0.7154541,-8.030701,41.52527,16.645813,-0.30515963,-9.781544,0.63140464,-0.04683116,0.0259943,0.050020754,0.0055389404,0.028152466,-0.019714355
2019-07-01T19:34:18.108Z,-0.6686026,0.1462083,-0.13343847,-0.35653687,-9.762711,0.5479584,-7.406616,40.90271,17.549133,-0.3056406,-9.78228,0.6196563,-0.051984698,-0.06919098,-0.03677863,-0.0055236816,0.032669067,-0.0007171631
2019-07-01T19:34:18.314Z,-0.66653013,0.14991204,-0.13819931,-0.27038574,-9.829712,0.7082825,-8.303833,40.70282,17.092896,-0.30166948,-9.7802725,0.6524163,-0.041543126,0.027000427,-0.00043803453,0.0055389404,0.04006958,-0.004989624
2019-07-01T19:34:18.517Z,-0.665952,0.15034248,-0.1402538,-0.28474426,-9.805786,0.6412811,-7.978821,40.951538,16.072083,-0.28259715,-9.779995,0.6649899,0.01902327,0.030703545,0.004488528,0.009933472,0.020523071,-0.010848999
2019-07-01T19:34:18.722Z,-0.6652422,0.15375364,-0.14410865,-0.21534729,-9.793823,0.68434143,-8.526611,41.201782,16.59851,-0.2797299,-9.780202,0.66317827,-0.024745226,0.014616966,-0.015208244,0.010177612,0.05142212,-0.021362305
2019-07-01T19:34:18.927Z,-0.6644266,0.15488745,-0.14703819,-0.23210144,-9.86322,0.6125641,-9.553528,41.4917,17.454529,-0.25953528,-9.779771,0.67758286,0.014545113,-0.013447762,0.016756475,0.010787964,0.03994751,-0.0039520264
2019-07-01T19:34:19.127Z,-0.66312224,0.15785158,-0.15036419,-0.36131287,-9.767502,0.6029968,-9.339905,40.927124,17.105103,-0.2612771,-9.778618,0.6933657,0.009250492,-0.011885643,-0.025723577,0.0056610107,0.008666992,0.0049743652
2019-07-01T19:34:19.326Z,-0.663901,0.1572933,-0.15039429,0.028717041,-9.978073,0.78245544,-8.857727,41.038513,16.351318,-0.24888046,-9.780119,0.6765476,-0.0118751675,0.0021162033,-0.0479154,0.0028381348,0.0008392334,-0.017700195
2019-07-01T19:34:19.531Z,-0.66745275,0.14780124,-0.14567813,-0.3637085,-9.635895,0.55513,-7.9208374,41.963196,17.861938,-0.16606177,-9.784296,0.64060277,0.1612322,-0.021454811,0.0107396245,-0.025619507,-0.0907135,-0.0048065186
2019-07-01T19:34:19.731Z,-0.66525733,0.1441979,-0.1557255,-0.26081848,-9.67897,0.6652069,-10.585022,42.01355,16.471863,0.0074276156,-9.780281,0.71862394,-0.36708754,0.11054516,-0.13677514,0.0663147,0.12460327,-0.12887573
2019-07-01T19:34:19.938Z,-0.6571445,0.16755222,-0.19343041,-0.0047912598,-9.865616,0.9308014,-12.09259,41.056824,14.373779,0.16314833,-9.773719,0.78624636,-0.28606433,-0.11963177,-0.194502,0.007247925,0.45155334,-0.069869995
2019-07-01T19:34:20.140Z,-0.65248346,0.1861516,-0.21065836,-0.29910278,-10.04747,0.59580994,-13.192749,41.4093,15.625,0.1265179,-9.775006,0.77694076,0.17665842,0.058695793,0.1839878,0.006088257,0.21531677,-0.03540039
2019-07-01T19:34:20.335Z,-0.65194625,0.18837352,-0.21441782,-0.34217834,-9.970886,0.20817566,-11.207581,40.585327,16.885376,-0.008030859,-9.782769,0.6839245,0.09636256,0.061944008,0.25183094,-0.04083252,-0.15211487,0.05090332
2019-07-01T19:34:20.535Z,-0.66980153,0.14617044,-0.14944667,-0.033493042,-9.501892,0.48335266,-8.575439,41.929626,16.523743,-0.07939109,-9.78866,0.5884017,-0.32922897,-0.0808897,-0.28805125,-0.02659607,-0.09376526,-0.03718567
2019-07-01T19:34:20.746Z,-0.66354173,0.16250163,-0.181385,0.624527,-9.834503,1.036087,-10.784912,41.052246,16.586304,0.10598947,-9.784296,0.65323323,-0.21307895,0.07483101,-0.20421666,0.027404785,0.41429138,-0.11323547
2019-07-01T19:34:20.946Z,-0.6622222,0.16969942,-0.19208983,-0.13639832,-9.643082,0.624527,-12.084961,40.82184,16.43982,0.15140998,-9.784531,0.64064646,0.43836838,0.014726639,0.33214265,-0.028915405,-0.0385437,0.050048828
2019-07-01T19:34:21.162Z,-0.6646097,0.168567,-0.17953135,-0.55752563,-9.889542,0.32063293,-11.120605,40.65857,17.274475,0.007926139,-9.789121,0.5860285,-0.21277311,0.0050525665,0.114657044,0.013534546,0.07159424,0.012298584
2019-07-01T19:34:21.357Z,-0.654487,0.19447275,-0.209783,0.26081848,-9.777069,0.7992096,-12.04834,41.622925,16.677856,0.023429634,-9.784153,0.6634611,-0.5513778,-0.037590027,-0.27442032,0.013595581,0.27500916,-0.009689331
2019-07-01T19:34:21.554Z,-0.6555437,0.18899864,-0.20215571,-0.062210083,-9.894318,0.5096741,-12.367249,41.67633,16.70227,-0.005341587,-9.783219,0.6774822,0.39706868,0.037322044,0.14926046,0.0011291504,-0.16572571,0.03276062
2019-07-01T19:34:21.758Z,-0.65981406,0.17953032,-0.18812843,0.21296692,-9.796219,0.5479584,-10.635376,40.919495,16.325378,-0.04783096,-9.785904,0.63575053,0.025502373,0.016551971,-0.028937042,-0.022506714,-0.17910767,0.028915405
2019-07-01T19:34:21.962Z,-0.6668573,0.16371939,-0.16943215,-0.34457397,-9.846466,0.44506836,-10.22644,40.867615,17.129517,-0.054048598,-9.79056,0.5589255,0.068354085,-0.025363922,-0.010547698,-0.031845093,-0.21453857,0.004425049
2019-07-01T19:34:22.166Z,-0.66694325,0.16151379,-0.16761504,-0.31585693,-9.836899,0.55513,-9.683228,40.46936,16.873169,-0.04967086,-9.789901,0.5707464,-0.18226337,0.029261589,-0.05486065,0.006210327,-0.0053253174,0.00680542
2019-07-01T19:34:22.372Z,-0.6648433,0.16395216,-0.1717069,0.098098755,-10.00679,0.6269226,-9.957886,41.46576,17.164612,-0.03846412,-9.787582,0.610033,-0.20236255,0.0200243,-0.04850626,0.028930664,0.0710907,-0.035354614
2019-07-01T19:34:22.570Z,-0.6651626,0.16575834,-0.17173977,-0.25602722,-9.994827,0.5694885,-10.684204,41.418457,17.33551,-0.059681345,-9.788702,0.5900234,-0.035656154,0.012760162,-0.09869951,0.025756836,-0.027313232,0.0062561035
2019-07-01T19:34:22.769Z,-0.66327184,0.17729881,-0.18297037,-0.25602722,-10.037888,0.65563965,-10.359192,41.51306,17.266846,-0.06671461,-9.790327,0.56163794,-0.078895666,-0.068847656,-0.15616655,0.018356323,0.075805664,-0.011154175
2019-07-01T19:34:22.979Z,-0.6617339,0.17499647,-0.18093622,0.33738708,-9.640686,1.1892395,-10.446167,41.438293,16.651917,-0.07559651,-9.786898,0.6175134,0.017270856,0.030055046,0.051235676,0.009628296,-0.053329468,0.023727417
2019-07-01T19:34:23.182Z,-0.6670479,0.15178171,-0.14745362,-0.8829498,-9.810577,0.98106384,-11.940002,41.908264,18.469238,-0.19737944,-9.784543,0.62781006,0.15102336,0.02762413,0.46849978,-0.049804688,-0.6434326,0.14564514
2019-07-01T19:34:23.380Z,-0.6705258,0.14711316,-0.12619048,-0.16989136,-10.088135,0.17706299,-6.0684204,40.112305,18.162537,-0.4067172,-9.78197,0.5639386,-0.37185374,0.08856201,0.36575967,-0.010955811,-0.47103882,0.06550598
2019-07-01T19:34:23.585Z,-0.67368054,0.12755105,-0.11262226,-0.21534729,-9.008972,0.46420288,-4.005432,41.271973,18.23883,-0.31104955,-9.784174,0.5861488,0.16530749,-0.19488621,-0.40001583,-0.011810303,-0.06561279,-0.054901123
2019-07-01T19:34:23.789Z,-0.66850644,0.13789238,-0.13206342,0.78245544,-9.772293,-0.13160706,-5.1193237,41.63971,17.755127,-0.21239187,-9.781532,0.6685155,0.15537092,0.25273418,-0.40637612,0.062347412,0.26669312,-0.050186157
2019-07-01T19:34:23.991Z,-0.67565626,0.1408513,-0.14958626,0.46420288,-10.001999,0.5431671,-6.590271,41.178894,17.495728,0.026384236,-9.795638,0.46384573,0.4463332,-0.20959377,-0.41379508,-0.11076355,0.072631836,-0.14266968
2019-07-01T19:34:24.194Z,-0.6788405,0.12506929,-0.14673111,-0.0143585205,-9.9039,0.61735535,-7.2525024,40.541077,18.753052,0.21560296,-9.793409,0.46156484,-0.046233907,0.09470272,0.10101861,0.05458069,-0.2004242,-0.07505798
2019-07-01T19:34:24.397Z,-0.6762957,0.1171258,-0.14678086,-0.057434082,-9.942184,0.5264282,-7.6553345,40.516663,18.688965,0.31066284,-9.785318,0.5669359,-0.4536935,-0.030284882,0.09738225,0.030517578,0.06266785,-0.067230225
2019-07-01T19:34:24.601Z,-0.6703427,0.13377589,-0.17060222,0.79441833,-9.808182,0.49771118,-7.8598022,41.60614,17.259216,0.38097772,-9.778179,0.64223194,-0.45021346,-0.084139824,-0.10807699,0.008895874,0.38587952,-0.049087524
2019-07-01T19:34:24.803Z,-0.6681058,0.16350013,-0.19732623,1.1844482,-9.51387,0.105285645,-10.307312,40.785217,17.56897,0.34563813,-9.786344,0.5276441,0.1972493,-0.054678917,-0.052540064,-0.10227966,0.3506317,0.01272583
2019-07-01T19:34:24.993Z,-0.671221,0.17623812,-0.21258606,0.35653687,-9.722046,1.3615112,-12.010193,40.45105,17.797852,0.4208548,-9.790965,0.36093256,0.4314702,0.18103409,-0.07215452,-0.07937622,0.07836914,-0.06265259
2019-07-01T19:34:25.231Z,-0.67440784,0.16981743,-0.20055683,-0.21774292,-9.865616,0.57188416,-11.521912,40.327454,19.262695,0.35463703,-9.794997,0.3204048,-0.21234035,-0.020131111,0.6963434,0.05256653,-0.16682434,0.12542725
2019-07-01T19:34:25.427Z,-0.6700174,0.1662925,-0.18510085,-0.6006012,-9.808182,0.8063812,-9.451294,41.934204,17.918396,0.15133072,-9.794714,0.459412,-0.3825655,-0.02123642,0.32634023,-0.016815186,-0.0927887,0.014251709
2019-07-01T19:34:25.625Z,-0.6702386,0.1718474,-0.19489352,-0.1651001,-9.851257,0.89730835,-9.846497,41.82434,19.27185,0.21891437,-9.795344,0.41675618,-0.7842531,-0.044478416,0.4018535,-0.027023315,0.21759033,-0.07701111
2019-07-01T19:34:25.831Z,-0.6615781,0.1911612,-0.21828288,0.37806702,-9.714859,0.37088013,-12.110901,41.981506,16.97998,0.23986754,-9.790676,0.5054693,-0.4463271,0.032402992,0.40496832,0.07713318,0.09535217,0.07258606
2019-07-01T19:34:26.032Z,-0.6458889,0.20591806,-0.22858833,0.6915283,-9.808182,0.45224,-11.679077,41.07361,15.493774,0.07392388,-9.774266,0.79287183,0.49100807,-0.0022916794,-0.47926193,0.027893066,-0.076919556,0.03477478
2019-07-01T19:34:26.234Z,-0.6520171,0.18923664,-0.21099833,0.4283142,-9.848862,0.43070984,-10.369873,41.522217,15.986633,0.08818573,-9.776278,0.7661581,0.64132994,-0.013341904,-0.3760684,-0.022262573,-0.31233215,0.047851562
2019-07-01T19:34:26.449Z,-0.66196334,0.16825269,-0.18500963,-0.1651001,-9.750748,0.37088013,-8.74939,41.39557,18.08319,0.070298344,-9.784368,0.65695816,0.32547167,-0.028752327,-0.27325773,-0.055419922,-0.33311462,0.036727905
2019-07-01T19:34:26.688Z,-0.67046374,0.15461782,-0.16476238,-0.39720154,-9.82254,0.6412811,-8.886719,41.896057,18.03894,0.023511622,-9.792764,0.5211593,-0.1307855,-0.009484291,-0.14512932,-0.06568909,-0.18612671,0.027069092
2019-07-01T19:34:26.896Z,-0.6741089,0.15035294,-0.15633996,-0.21296692,-9.894318,0.50727844,-7.2509766,42.43927,18.536377,-0.015081035,-9.796283,0.4505408,-0.39595392,0.004945755,0.15735474,-0.015914917,-0.05430603,0.016815186
2019-07-01T19:34:27.097Z,-0.67463887,0.15278117,-0.15373237,-0.2871399,-9.872787,0.39720154,-6.413269,41.17279,19.828796,-0.08022253,-9.797235,0.42208362,-0.15302727,-0.014552116,0.119105905,-0.008575439,0.0015869141,0.019378662
2019-07-01T19:34:27.296Z,-0.67260057,0.15548299,-0.15671454,0.0,-9.834503,0.5359955,-6.8969727,41.444397,18.016052,-0.08655211,-9.795492,0.4596083,-0.101944536,0.02058506,0.0446409,0.019332886,0.07261658,-0.001449585
2019-07-01T19:34:27.504Z,-0.670962,0.15589295,-0.15851149,-0.2033844,-9.84407,0.5144501,-7.484436,40.896606,17.929077,-0.07688082,-9.793579,0.50028455,0.10442782,0.0044612885,-0.015065849,0.017196655,0.0020751953,-0.0076141357
2019-07-01T19:34:27.710Z,-0.67052186,0.15353397,-0.1570927,0.14117432,-9.853638,0.4785614,-8.013916,41.433716,19.268799,-0.067939386,-9.792288,0.5261809,-0.03399887,-0.0055332184,-0.053266406,0.008041382,-0.013809204,0.0031433105
2019-07-01T19:34:27.923Z,-0.6731728,0.14653243,-0.15120277,-0.47616577,-9.846466,0.39720154,-6.541443,40.298462,18.447876,-0.040946007,-9.793937,0.49752483,0.08772543,0.008481979,-0.04145491,-0.0018615723,-0.10018921,0.011688232
2019-07-01T19:34:28.120Z,-0.67300904,0.1459528,-0.14870493,-0.098098755,-9.738785,0.5359955,-6.716919,39.997864,18.092346,-0.068642564,-9.793389,0.5051722,-0.30275854,0.0026683807,-0.07471591,0.014083862,0.012634277,0.008148193
2019-07-01T19:34:28.322Z,-0.6705353,0.14888608,-0.15200415,-0.41874695,-9.829712,0.41635132,-8.164978,41.79535,18.515015,-0.076311596,-9.790726,0.55339473,-0.10507315,-0.01869297,-0.030035138,0.028503418,0.08331299,-0.023132324
2019-07-01T19:34:28.523Z,-0.6640864,0.16174221,-0.17186326,0.27278137,-9.82254,0.6795654,-8.325195,40.115356,17.5766,-0.0120194545,-9.785482,0.64387983,-0.14276172,-0.0008363724,-0.24613088,0.039733887,0.21710205,-0.030456543
2019-07-01T19:34:28.727Z,-0.6642679,0.161255,-0.17259537,-0.033493042,-9.860825,0.5934143,-7.6278687,41.175842,18.36853,0.0056587737,-9.785596,0.64223695,0.3137673,-0.017204285,-0.044489503,0.0090789795,-0.058883667,-0.016967773
2019-07-01T19:34:28.928Z,-0.6666472,0.15382652,-0.16563888,-0.24885559,-9.796219,0.5383911,-8.273315,41.207886,17.948914,0.022838093,-9.786621,0.6260351,-0.03081291,-0.03216076,-0.05776918,-0.01725769,-0.10458374,0.01071167
2019-07-01T19:34:29.135Z,-0.6664619,0.156168,-0.16869889,0.5479584,-9.750748,0.94755554,-8.139038,40.708923,17.692566,0.032857273,-9.787189,0.616645,-0.23754548,0.017156601,-0.02339822,-0.0007019043,0.060653687,-0.018554688
2019-07-01T19:34:29.339Z,-0.6704973,0.14416993,-0.15416248,-0.7513428,-10.21257,-0.21534729,-7.487488,40.898132,17.55066,0.016163137,-9.78938,0.58150244,0.23838374,0.03922081,0.19761902,0.010726929,-0.19364929,0.006790161
2019-07-01T19:34:29.583Z,-0.66299754,0.16144645,-0.18173043,0.4402771,-9.755539,0.5814514,-8.511353,41.337585,17.90924,0.121086605,-9.782705,0.6740955,-0.6433915,-0.17573547,-0.6331501,0.004928589,0.34355164,-0.063568115
2019-07-01T19:34:29.798Z,-0.6694619,0.161176,-0.18478647,0.78723145,-9.28894,-0.06939697,-9.27887,42.008972,18.908691,0.20964836,-9.791299,0.506868,0.20280018,-0.08934784,-0.61191213,-0.06477356,0.03175354,-0.06515503
2019-07-01T19:34:29.996Z,-0.6764163,0.1644338,-0.20343806,0.30389404,-10.133606,1.9836426,-10.888672,40.231323,18.310547,0.47848108,-9.790299,0.3024872,-0.12091699,0.35498428,0.031001806,-0.086761475,0.2960205,-0.1184845
2019-07-01T19:34:30.201Z,-0.6652578,0.17508309,-0.2017149,-0.68196106,-9.9039,0.6771698,-11.198425,40.34729,19.47937,0.23779795,-9.789689,0.5252047,-0.15451679,-0.15345287,1.166159,0.12867737,-0.3040924,0.21510315
2019-07-01T19:34:30.399Z,-0.6688258,0.15402675,-0.16537641,-1.2251282,-9.990036,0.74417114,-9.155273,41.523743,16.766357,0.029825848,-9.790155,0.56776214,-0.44436494,-0.04088497,0.07361591,-0.064712524,-0.198349,0.01852417
2019-07-01T19:34:30.599Z,-0.664546,0.17731869,-0.18660891,0.21296692,-9.729218,1.2610168,-7.939148,41.445923,18.511963,-0.0074591767,-9.792406,0.5283175,-1.0601876,-0.051324844,0.09676659,0.025817871,0.44909668,-0.027954102
2019-07-01T19:34:30.812Z,-0.6615789,0.1893091,-0.20620471,-0.32302856,-9.769897,0.49291992,-9.74884,40.67688,17.523193,0.09265841,-9.792455,0.51926994,0.14462313,0.022083282,0.63509434,-0.016647339,-0.031951904,-0.04902649
2019-07-01T19:34:31.009Z,-0.66027445,0.17259108,-0.19030553,0.4905243,-9.57608,0.028717041,-10.447693,41.28418,17.675781,0.07558511,-9.783324,0.6717544,-0.16411018,0.075535774,0.03560567,0.09269714,-0.1770935,0.044311523
2019-07-01T19:34:31.225Z,-0.6613827,0.16711728,-0.18687995,1.4955139,-9.908676,0.07417297,-8.355713,41.279602,17.512512,0.10713586,-9.782494,0.6794978,0.3585075,0.13219357,-0.6187969,0.000579834,-0.10165405,-0.013549805
2019-07-01T19:34:31.410Z,-0.67974055,0.11119999,-0.1187053,-0.8446655,-10.037888,-0.29670715,-7.775879,41.685486,17.19513,0.022745626,-9.793775,0.5018531,0.8350333,-0.05510807,-0.36021274,-0.14076233,-0.5172882,0.103378296
2019-07-01T19:34:31.613Z,-0.6881029,0.09908294,-0.10092457,0.28953552,-9.305695,0.22492981,-6.2072754,40.463257,18.995667,-0.020994967,-9.801158,0.32748276,-0.6063344,-0.15363884,-0.45916218,0.011154175,-0.096710205,0.019378662
2019-07-01T19:34:31.821Z,-0.67931837,0.1063223,-0.11465893,0.35891724,-10.057037,0.49771118,-5.9555054,40.472412,20.118713,0.032515433,-9.79205,0.5339161,-0.2682963,0.034799576,-0.28588074,0.095214844,0.21147156,-0.07975769
2019-07-01T19:34:32.029Z,-0.6816559,0.11295877,-0.11760385,0.01914978,-9.829712,0.13400269,-7.53479,41.46881,18.727112,-0.007939444,-9.796637,0.4429769,0.24437276,-0.14649296,-0.09331676,-0.031784058,-0.00048828125,0.041305542
2019-07-01T19:34:32.227Z,-0.67921317,0.11205189,-0.11782751,-0.6699829,-9.980469,0.68196106,-7.017517,42.156982,19.073486,-0.003252891,-9.793265,0.512178,-0.10058607,-0.03538418,-0.112847626,0.0074920654,0.02998352,-0.003768921
2019-07-01T19:34:32.428Z,-0.67547876,0.12035064,-0.12549435,0.21057129,-9.96611,0.3397827,-6.7993164,41.815186,18.164062,-0.028886592,-9.78982,0.5735753,-0.26173994,0.06908131,0.0071123242,0.05531311,0.113861084,-0.008163452
2019-07-01T19:34:32.634Z,-0.67461145,0.122244254,-0.13027264,-0.0023956299,-9.877579,0.48335266,-7.209778,41.796875,17.044067,0.0064423117,-9.789032,0.5875309,0.15648194,-0.07544994,-0.17125016,-0.015975952,-0.0010375977,-0.0071868896
2019-07-01T19:34:32.835Z,-0.6773781,0.12265158,-0.13006873,-0.06939697,-9.829712,0.74894714,-6.665039,41.166687,18.403625,0.011452254,-9.793258,0.51221085,0.04162447,0.06590843,-0.045927763,-0.034713745,0.05680847,-0.008163452
2019-07-01T19:34:33.034Z,-0.6763525,0.12814985,-0.13907333,0.33738708,-9.748352,0.5623169,-7.876587,41.085815,18.437195,0.055590786,-9.793097,0.51239645,-0.09383434,0.01494503,0.18553066,0.0047454834,0.11288452,-0.03968811
2019-07-01T19:34:33.239Z,-0.6734061,0.1297619,-0.15013881,0.33499146,-9.808182,0.53359985,-9.52301,40.252686,17.881775,0.17055051,-9.787865,0.58224154,0.105782196,0.062571526,0.020160794,0.055740356,0.025466919,-0.08073425
2019-07-01T19:34:33.438Z,-0.6736861,0.11993634,-0.14956948,0.24406433,-9.722046,0.7298126,-9.095764,40.786743,18.197632,0.29738334,-9.782324,0.62296414,0.064930916,-0.010873795,-0.10517961,-0.016937256,-0.094192505,-0.036880493
2019-07-01T19:34:33.639Z,-0.6756728,0.113548435,-0.14958394,0.0382843,-10.04985,0.77526855,-9.967041,40.942383,19.021606,0.39468658,-9.78034,0.59963655,-0.19822133,0.014596939,0.054924726,0.023132324,-0.025115967,-0.047683716
2019-07-01T19:34:33.839Z,-0.6764629,0.11739325,-0.14713304,-0.050247192,-9.860825,0.45703125,-8.943176,40.57617,18.452454,0.31271476,-9.78558,0.56126946,-0.3015306,-0.05663395,0.08606458,-0.024093628,0.029067993,0.035446167
2019-07-01T19:34:34.059Z,-0.6729173,0.12538135,-0.15386996,0.5814514,-9.681366,0.76091003,-11.0321045,40.73181,18.11676,0.27843332,-9.783255,0.6170693,-0.22774649,-0.06535435,-0.037822366,-0.016220093,0.15765381,0.029464722
2019-07-01T19:34:34.279Z,-0.67203933,0.13587868,-0.16123617,0.5168457,-9.76033,0.5407715,-9.3811035,41.4917,18.95752,0.23343807,-9.786316,0.5864395,0.1147365,0.109996796,0.034888625,0.034973145,0.047332764,0.013885498
2019-07-01T19:34:34.455Z,-0.6724879,0.13560681,-0.15406233,-0.007171631,-9.707687,0.6053772,-8.175659,41.653442,17.8833,0.14077798,-9.788704,0.5760583,0.11335318,-0.051016808,-0.03453648,-0.02116394,-0.09309387,0.061157227
2019-07-01T19:34:34.657Z,-0.6722901,0.12988217,-0.1425686,-0.25125122,-9.846466,0.44506836,-7.608032,41.690063,18.095398,0.05918332,-9.787414,0.61108553,0.049036298,0.047088623,-0.022615135,0.02520752,-0.13395691,0.043624878
2019-07-01T19:34:34.854Z,-0.6719004,0.12307822,-0.13147742,-0.098098755,-9.949356,0.48095703,-6.3842773,42.211914,17.471313,-0.0015905056,-9.784743,0.65511537,-0.024481883,-0.0240345,-0.22498167,0.016647339,-0.108551025,0.036849976
2019-07-01T19:34:35.057Z,-0.67209923,0.11897047,-0.12456973,-0.20817566,-9.939789,0.35891724,-6.27594,40.675354,19.345093,-0.038303785,-9.783704,0.6693749,-0.03191986,-0.020308495,-0.16729534,0.019638062,-0.07623291,0.02078247
2019-07-01T19:34:35.262Z,-0.6716213,0.11834257,-0.12296715,0.06939697,-9.669403,0.68434143,-5.508423,41.900635,18.128967,-0.0536265,-9.7825575,0.68489397,-0.028995298,-0.037480354,-0.2721787,-0.00039672852,0.012756348,0.011993408
2019-07-01T19:34:35.466Z,-0.67290956,0.12480219,-0.1296049,-0.22732544,-9.937393,0.5383911,-5.770874,41.67633,16.885376,-0.045784466,-9.786918,0.62011623,0.10196257,-0.019990921,-0.089405,-0.0062561035,-0.031341553,0.017059326
2019-07-01T19:34:35.668Z,-0.67454386,0.123693176,-0.12314675,-0.19381714,-9.7986145,0.550354,-6.2301636,41.85028,18.676758,-0.11096728,-9.788716,0.58232963,-0.08458095,0.0013532639,-0.025331676,-0.00045776367,0.018310547,-0.007980347
2019-07-01T19:34:35.865Z,-0.6756859,0.12808529,-0.12657946,-0.33259583,-10.018753,0.39482117,-7.0526123,41.581726,17.823792,-0.11836009,-9.791581,0.5303969,0.05148916,0.016292572,-0.03604263,0.00730896,-0.016067505,-0.0012664795
2019-07-01T19:34:36.081Z,-0.67722845,0.12852012,-0.12492037,-0.37088013,-9.743576,0.7034912,-6.8237305,41.15448,18.482971,-0.13952135,-9.793543,0.48727727,-0.058583394,-0.010626793,-0.051383704,-0.015792847,-0.006729126,-0.009140015
2019-07-01T19:34:36.273Z,-0.6737616,0.13736157,-0.13123937,-0.67237854,-9.867996,0.7298126,-6.5109253,40.956116,18.429565,-0.18960655,-9.790317,0.5330329,-0.1500501,0.0148181915,0.100768566,-0.0005187988,0.0667572,-0.0118255615
2019-07-01T19:34:36.476Z,-0.67008495,0.1456765,-0.14079727,-0.52163696,-9.561722,1.1150513,-7.621765,41.397095,18.035889,-0.1898889,-9.787416,0.58378094,-0.31513366,0.05086708,0.13229364,0.046401978,0.22528076,-0.01713562
2019-07-01T19:34:36.678Z,-0.6600174,0.16762264,-0.16466936,-0.028717041,-9.623932,0.727417,-8.9401245,41.107178,15.841675,-0.21424928,-9.778454,0.7115649,-0.4362247,0.060237885,0.3112222,0.0947876,0.31159973,-0.02178955
2019-07-01T19:34:36.885Z,-0.6482013,0.18553434,-0.19539498,0.9690857,-10.616959,0.07417297,-11.497498,41.445923,16.091919,-0.10753596,-9.765527,0.89068085,-0.02635482,-0.106986046,-0.30331308,-0.004425049,0.37573242,-0.15777588
2019-07-01T19:34:37.086Z,-0.6655093,0.1955391,-0.22741894,2.3928223,-9.650253,0.28953552,-14.807129,39.179993,16.897583,0.34720832,-9.793517,0.3699437,0.6240734,-0.5085001,-0.18316373,-0.1951294,0.23591614,-0.28355408
2019-07-01T19:34:37.303Z,-0.6706282,0.17110838,-0.24313217,1.5146637,-9.681366,-0.55513,-16.584778,38.986206,17.007446,0.9172108,-9.754988,0.41148195,1.0990927,0.5410118,0.1260688,-3.0517578e-05,-0.13781738,-0.15879822
2019-07-01T19:34:37.501Z,-0.6810881,0.15736313,-0.21811523,2.2947235,-10.066605,-1.2131653,-15.284729,39.213562,17.680359,0.81177497,-9.770456,0.22272615,0.778838,0.398427,-0.4901997,0.037979126,-0.46566772,0.21888733
2019-07-01T19:34:37.702Z,-0.68858165,0.1219397,-0.15013705,-2.3090668,-9.12384,-0.4139557,-10.076904,40.353394,18.832397,0.35616553,-9.7978115,0.21547282,1.3316362,-0.050237656,-1.1281041,-0.16191101,-0.7089844,0.13722229
2019-07-01T19:34:37.903Z,-0.7038369,0.09602056,-0.12557612,-0.026321411,-9.57608,1.0815582,-8.204651,40.46173,20.965576,0.42925978,-9.796834,-0.09034543,-1.1626676,-0.2667265,0.87191457,0.08256531,-0.23854065,-0.0012664795
2019-07-01T19:34:38.107Z,-0.6927105,0.08922254,-0.10375944,0.5024872,-9.631119,0.71784973,-6.0028076,41.423035,19.107056,0.17054778,-9.802251,0.23911522,-0.7598163,-0.06375122,0.56064516,0.06436157,-0.27183533,0.11552429
2019-07-01T19:34:38.311Z,-0.6923267,0.079096206,-0.09471996,0.33499146,-9.800995,0.73698425,-4.2251587,41.464233,19.72351,0.18325473,-9.800854,0.28297147,-0.45017573,0.0900116,0.52728367,0.045913696,0.037506104,-0.0178833
2019-07-01T19:34:38.504Z,-0.6846808,0.095396556,-0.11203397,0.4402771,-9.848862,1.174881,-6.578064,41.166687,19.229126,0.16887312,-9.795601,0.4336827,-0.33170027,-0.040952682,0.42715314,-0.04071045,0.22735596,-0.12324524
2019-07-01T19:34:38.707Z,-0.69129664,0.09641368,-0.13329762,0.5431671,-9.6957245,0.41874695,-8.070374,39.888,20.617676,0.47684005,-9.791826,0.25131193,-0.31507722,-0.08878994,0.54640645,-0.04937744,0.15454102,-0.10542297
2019-07-01T19:34:38.918Z,-0.68463176,0.1067973,-0.14928852,1.1820526,-9.769897,-0.21057129,-9.204102,41.716003,19.825745,0.5270691,-9.784715,0.3897879,-0.04659456,0.063326836,-0.006195724,0.08476257,0.18966675,-0.02557373
2019-07-01T19:34:39.121Z,-0.6821419,0.112071246,-0.15798856,1.2012024,-9.750748,-0.16989136,-10.693359,40.893555,19.342041,0.5638724,-9.780806,0.4338947,0.5467328,0.0046052933,-0.57066536,-0.0043029785,0.034454346,-0.009506226
2019-07-01T19:34:39.320Z,-0.68607795,0.10115946,-0.15211603,0.84706116,-9.827316,0.13639832,-9.736633,40.81421,18.458557,0.6496915,-9.77796,0.37390342,0.51627254,0.055088997,-0.50463563,-0.0047302246,-0.17971802,-0.040481567
2019-07-01T19:34:39.527Z,-0.6911503,0.068611585,-0.12736873,0.275177,-9.839294,0.84706116,-9.336853,40.541077,19.66858,0.7737107,-9.769982,0.34526706,0.082288265,0.018196106,-0.27678007,0.007858276,-0.17959595,-0.05508423
2019-07-01T19:34:39.728Z,-0.6894296,0.061585594,-0.12562163,0.4283142,-9.848862,0.7393799,-9.5047,40.460205,19.433594,0.84018606,-9.761994,0.4098024,-0.4689629,-0.027647018,0.3153176,0.051223755,-0.049057007,-0.030090332
2019-07-01T19:34:39.931Z,-0.6866996,0.059795883,-0.1261476,1.1629181,-9.812973,0.59820557,-10.81543,41.682434,19.58313,0.8623278,-9.756478,0.4877446,-0.38095635,-0.09191704,0.27448446,0.03314209,0.0005493164,-0.0335083
2019-07-01T19:34:40.131Z,-0.6845704,0.05555084,-0.12746206,1.0791626,-9.824936,0.3134613,-10.53772,40.605164,19.958496,0.9317613,-9.746518,0.55461586,0.06728923,-0.015030861,0.035743237,0.029052734,-0.044296265,-0.009628296
2019-07-01T19:34:40.326Z,-0.68448645,0.051740423,-0.122247905,1.0648041,-9.779465,0.29910278,-9.069824,41.067505,19.841003,0.91373533,-9.747635,0.5648869,0.14383024,0.013137817,-0.23749584,0.014266968,-0.074279785,0.014434814
2019-07-01T19:34:40.546Z,-0.68544126,0.044426385,-0.115796216,0.91645813,-9.791428,0.45942688,-9.375,41.407776,20.376587,0.9315561,-9.746628,0.5530286,0.16008365,0.032478333,-0.2582898,0.012313843,-0.08705139,-0.0066375732
2019-07-01T19:34:40.741Z,-0.68505776,0.04014735,-0.11303971,0.8183441,-9.805786,0.6077728,-8.934021,42.314148,20.166016,0.95303136,-9.743547,0.5704342,-0.023467898,-0.011392593,-0.11208391,0.012741089,-0.021011353,-0.008407593
2019-07-01T19:34:40.939Z,-0.68415177,0.041809697,-0.11542832,0.92362976,-9.76033,0.63409424,-8.26416,41.275024,18.792725,0.95932806,-9.741637,0.59209263,-0.14260632,-0.037000656,0.002246499,0.006210327,0.037246704,-0.0055999756
2019-07-01T19:34:41.149Z,-0.6826778,0.04412823,-0.11958398,0.99302673,-9.772293,0.58384705,-8.953857,42.17987,18.553162,0.97843593,-9.737507,0.627699,-0.06431818,0.0072927475,-0.039891362,0.014633179,0.01838684,-0.013046265
2019-07-01T19:34:41.348Z,-0.683172,0.04478988,-0.11915522,0.933197,-9.836899,0.44506836,-7.7941895,42.837524,18.71643,0.9648984,-9.739775,0.61330646,0.01807779,-0.021489143,-0.06284809,-0.0010681152,0.010681152,0.0038757324
2019-07-01T19:34:41.545Z,-0.68481565,0.042702615,-0.11689897,0.9834442,-9.753143,0.5694885,-8.09021,41.57715,18.847656,0.9687661,-9.741858,0.57278746,0.04607749,-0.02231121,-0.060418904,-0.0121154785,-0.0064849854,0.017486572
2019-07-01T19:34:41.749Z,-0.68467695,0.04358552,-0.117499106,0.66760254,-9.659821,0.51924133,-9.410095,40.834045,18.824768,0.96408975,-9.74219,0.5750188,0.016943753,0.022720337,-0.022762775,-0.008270264,0.00592041,0.017059326
2019-07-01T19:34:41.955Z,-0.6865422,0.060228575,-0.12385074,0.80158997,-9.774673,0.5120697,-9.062195,41.441345,18.858337,0.82434475,-9.7596,0.4909666,0.007156372,-0.0045604706,-0.0269835,-0.018661499,0.07910156,0.0184021
2019-07-01T19:34:42.154Z,-0.6873034,0.063189104,-0.12617734,0.9020996,-9.808182,0.4402771,-8.377075,42.20581,19.967651,0.8178337,-9.7615,0.46328917,0.046862602,0.011588097,-0.035096645,-0.013153076,0.07525635,0.01626587
2019-07-01T19:34:42.381Z,-0.6873575,0.062428717,-0.12597479,0.71784973,-9.846466,0.45224,-8.782959,42.10663,19.9646,0.82580125,-9.76081,0.46370506,0.05093068,0.011984825,-0.003985882,0.0009460449,-0.0061187744,0.0073547363
2019-07-01T19:34:42.562Z,-0.68744826,0.06314973,-0.12442647,0.7776642,-9.796219,0.4355011,-9.101868,42.23175,19.778442,0.79492277,-9.763574,0.45948124,-0.028169036,-0.008685112,-0.002045095,-0.0014953613,-0.015579224,0.010650635
2019-07-01T19:34:42.769Z,-0.68732965,0.062801935,-0.122883126,0.6652069,-9.829712,0.4091797,-8.224487,42.15088,18.969727,0.778181,-9.76473,0.46353826,-0.004847288,0.0070533752,-0.0064082444,0.0071258545,-0.019241333,0.008636475
2019-07-01T19:34:42.969Z,-0.6879365,0.06737315,-0.1233254,0.6771698,-9.815353,0.447464,-8.079529,41.566467,20.280457,0.72310203,-9.770253,0.4354986,-0.06009537,-0.018605232,-0.037887394,-0.0105896,0.037490845,0.013214111
2019-07-01T19:34:43.171Z,-0.687293,0.075506344,-0.12874414,0.63409424,-9.853638,0.33021545,-8.328247,41.63513,18.869019,0.6827177,-9.7734,0.430063,-0.027940452,-0.002547264,-0.003005296,-0.009490967,0.08746338,0.01083374
2019-07-01T19:34:43.375Z,-0.6894503,0.07352496,-0.1232559,0.49531555,-9.834503,0.34934998,-8.874512,41.96167,19.259644,0.6428877,-9.778266,0.37760195,0.011097133,-0.014760017,-0.019766718,-0.04071045,0.08270264,0.028366089
2019-07-01T19:34:43.574Z,-0.68998814,0.08614529,-0.12889639,0.55752563,-9.815353,0.36849976,-9.62677,41.023254,20.91217,0.5497666,-9.785881,0.32352883,-0.037454367,0.008136749,0.030889094,-0.030380249,0.12045288,0.031173706
2019-07-01T19:34:43.780Z,-0.689187,0.0937633,-0.13414633,0.61016846,-9.7986145,0.2368927,-9.503174,40.30609,20.384216,0.51521,-9.787932,0.31831893,0.025611877,0.015792847,0.022946805,-0.009857178,0.10279846,0.017547607
2019-07-01T19:34:43.988Z,-0.6897625,0.09571457,-0.13733083,0.55513,-9.793823,0.24645996,-9.880066,40.93933,20.300293,0.5354911,-9.7875595,0.2955033,0.096701086,0.0133161545,-0.055230945,0.00289917,0.032546997,0.0074157715
2019-07-01T19:34:44.187Z,-0.690568,0.09266133,-0.13542409,0.43070984,-9.820145,0.24885559,-9.561157,41.116333,18.737793,0.55404043,-9.7868395,0.28497612,0.037029564,0.0045318604,-0.040314406,0.006515503,-0.043380737,-0.0008392334
2019-07-01T19:34:44.388Z,-0.69062835,0.09198181,-0.13340297,0.46420288,-9.896713,0.2871399,-8.876038,40.216064,18.678284,0.53546226,-9.787849,0.28580177,-0.05343318,-0.0036382675,-0.027498513,0.010543823,-0.066711426,-0.0051727295
2019-07-01T19:34:44.589Z,-0.69121677,0.088838704,-0.12877218,0.44267273,-9.82254,0.26560974,-8.666992,41.018677,20.41626,0.5164744,-9.789008,0.281001,-0.06470662,-0.010111809,-0.010093719,0.00541687,-0.06378174,-0.0055389404
2019-07-01T19:34:44.796Z,-0.6910156,0.090181656,-0.12955792,0.5024872,-9.824936,0.17945862,-9.944153,41.223145,20.285034,0.50824004,-9.789418,0.28173935,-0.058701456,-0.007493973,-0.030735582,0.0059051514,-0.008560181,-0.010665894
2019-07-01T19:34:44.999Z,-0.6920702,0.091706455,-0.13185406,0.55992126,-9.839294,0.33021545,-10.038757,41.079712,19.430542,0.52397317,-9.789509,0.24769211,-0.00959909,-0.00072574615,-0.06283726,-0.004852295,0.04647827,-0.011703491
2019-07-01T19:34:45.202Z,-0.6908204,0.09722657,-0.13793188,0.4402771,-9.84407,0.42352295,-9.544373,41.32843,19.761658,0.5281932,-9.788933,0.2611347,-0.020343244,-0.002196312,0.038027525,-0.0012512207,0.08380127,-0.006515503
2019-07-01T19:34:45.407Z,-0.6877293,0.104157634,-0.14369094,0.7393799,-9.800995,0.38285828,-10.339355,41.645813,19.10553,0.50013256,-9.788746,0.3173357,-0.02902013,-0.008667946,0.05877322,0.010177612,0.09260559,0.011810303
2019-07-01T19:34:45.607Z,-0.6869309,0.10050797,-0.14365663,0.66041565,-9.827316,0.48812866,-10.232544,40.415955,19.000244,0.5452159,-9.785099,0.35351124,0.14497226,0.002673149,0.03502643,0.0059661865,-0.03756714,0.014312744
2019-07-01T19:34:45.809Z,-0.68851495,0.08882257,-0.1301322,0.5766754,-9.777069,0.52163696,-8.74176,41.462708,18.77594,0.5240754,-9.786229,0.35417128,0.18156147,0.03340721,0.11766794,0.012374878,-0.21643066,0.023162842
2019-07-01T19:34:46.010Z,-0.68882704,0.07144795,-0.11097331,0.33499146,-9.88475,0.23449707,-7.948303,41.07361,19.494629,0.5003871,-9.785689,0.40035665,0.016372263,0.015377998,0.07607558,0.015182495,-0.26327515,0.031661987
2019-07-01T19:34:46.212Z,-0.69060636,0.05766712,-0.09248015,0.40438843,-9.867996,-0.1483612,-7.4172974,40.304565,19.694519,0.4439866,-9.788943,0.38711417,-0.15800318,-0.038822174,-0.12101787,-0.0046081543,-0.1960907,0.033920288
2019-07-01T19:34:46.417Z,-0.6948227,0.053175222,-0.082363956,0.16749573,-9.789032,-0.04067993,-6.1782837,40.81421,21.029663,0.3793748,-9.795241,0.28230864,-0.12501788,-0.041046143,-0.40349847,-0.04333496,-0.017105103,0.030136108
2019-07-01T19:34:46.619Z,-0.6946724,0.06908034,-0.09670939,0.5048828,-9.777069,0.43310547,-6.0913086,40.966797,20.755005,0.35643187,-9.797025,0.24826868,-0.22227669,0.022397995,-0.27906877,-0.012374878,0.3065338,-0.021484375
2019-07-01T19:34:46.819Z,-0.691958,0.08811501,-0.118927754,0.1651001,-9.827316,0.4665985,-7.3150635,40.66925,20.593262,0.39286998,-9.795237,0.26340365,0.046317697,0.041604996,0.078841895,0.0051727295,0.23217773,-0.01940918
2019-07-01T19:34:47.029Z,-0.68897426,0.0984768,-0.13168772,0.7010956,-9.865616,0.22013855,-8.906555,41.07666,19.989014,0.41611668,-9.793029,0.30629712,-0.12756819,-0.02218914,0.14965943,0.009750366,0.1381073,-0.015808105
2019-07-01T19:34:47.219Z,-0.68885547,0.0998427,-0.1324358,0.23928833,-9.877579,0.114852905,-9.091187,40.553284,20.114136,0.40742928,-9.79346,0.30419397,0.15171805,-0.022902489,-0.0308474,-0.011566162,-0.082901,0.015045166
2019-07-01T19:34:47.440Z,-0.6917805,0.086838864,-0.11705142,0.34457397,-9.810577,0.37327576,-8.985901,41.070557,20.21637,0.38358524,-9.795354,0.27260056,-0.015748918,0.008313179,-0.08263323,-0.002105713,-0.11251831,0.017547607
2019-07-01T19:34:47.630Z,-0.6927209,0.08361521,-0.11145863,-0.29670715,-9.879959,0.7010956,-8.346558,40.968323,20.317078,0.3538649,-9.796871,0.25784174,-0.13879606,0.015352249,0.09754765,-0.029647827,-0.051132202,0.0059509277
2019-07-01T19:34:47.836Z,-0.6919407,0.09322366,-0.11924452,0.25602722,-9.812973,0.3756714,-8.512878,40.65399,21.54541,0.32759473,-9.798098,0.24570285,-0.53350365,0.030442238,0.3134122,0.038757324,0.18875122,0.006378174
2019-07-01T19:34:48.042Z,-0.68135315,0.10697362,-0.12475379,0.5001068,-9.762711,0.35414124,-8.743286,41.236877,19.711304,0.17064637,-9.793562,0.47688872,-0.03677897,-0.050050735,0.072238296,0.14083862,0.1063385,0.09849548
2019-07-01T19:34:48.260Z,-0.6733761,0.11255956,-0.12496106,-0.093322754,-9.566513,0.4355011,-7.777405,41.378784,18.943787,0.06104272,-9.7839,0.664793,0.34029177,0.083189964,-0.2554797,0.04408264,-0.13078308,0.07246399
2019-07-01T19:34:48.442Z,-0.6758594,0.09307195,-0.09449385,-0.117248535,-10.076172,0.0143585205,-4.977417,42.80243,19.27185,-0.07085222,-9.782951,0.67767316,0.20671466,0.0701437,-0.24726295,-0.024765015,-0.3087921,0.07575989
2019-07-01T19:34:48.638Z,-0.68551433,0.08526268,-0.08289489,-0.1483612,-9.997208,-0.24406433,-2.9067993,40.312195,19.963074,-0.13147876,-9.802943,0.23539257,0.09265367,-0.16038704,-0.52283204,-0.11584473,-0.13334656,0.022918701
2019-07-01T19:34:48.845Z,-0.6992751,0.06975434,-0.059647918,-0.34934998,-10.00679,0.0023956299,-2.218628,41.29944,20.362854,-0.15182832,-9.804733,0.1205967,-0.27014697,-0.092375755,-0.41157138,-0.057861328,0.06321716,-0.016906738
2019-07-01T19:34:49.050Z,-0.6996189,0.07665651,-0.07486606,-0.009567261,-9.920639,-0.21057129,-6.0913086,40.966797,20.75653,-0.034818318,-9.806163,0.09134281,-0.23519662,-0.021862984,-0.14292362,-0.0050964355,0.18673706,-0.08232117
2019-07-01T19:34:49.254Z,-0.69925666,0.08632399,-0.09755644,0.3517456,-9.841675,-0.5144501,-6.3430786,40.655518,21.305847,0.14787838,-9.805283,0.07037829,-0.14206281,-0.06935692,-0.2941851,0.04988098,0.21862793,-0.11354065
2019-07-01T19:34:49.458Z,-0.6879736,0.09732106,-0.12515494,-0.42352295,-10.018753,1.1437683,-9.143066,41.51306,18.348694,0.3369534,-9.795038,0.33775842,-0.18934545,-0.020646095,-0.69337356,0.12446594,0.27934265,-0.079696655
2019-07-01T19:34:49.659Z,-0.6783146,0.11426967,-0.13785626,0.36610413,-9.71965,0.99780273,-10.308838,40.785217,17.419434,0.2369104,-9.789654,0.52625835,0.07654007,0.25084305,0.15168989,0.115249634,0.11904907,0.09378052
2019-07-01T19:34:49.858Z,-0.67213476,0.10494197,-0.12216679,-0.009567261,-9.92543,0.96191406,-7.5912476,42.20581,17.443848,0.12299171,-9.778666,0.730048,0.2265152,0.09517002,0.2925977,0.09136963,-0.2797699,0.08639526
2019-07-01T19:34:50.065Z,-0.6715483,0.083088,-0.089825965,-0.77526855,-9.834503,1.421341,-4.193115,42.271423,19.430542,-0.0077905883,-9.7717905,0.8260984,-0.01707123,-0.08174229,0.24919492,-0.007965088,-0.4193573,0.056030273
2019-07-01T19:34:50.270Z,-0.67414486,0.061715793,-0.06958148,-0.6795654,-9.865616,0.7082825,-4.6188354,43.702698,18.988037,0.03309977,-9.772397,0.81826365,-0.37203044,0.01608944,0.34290004,0.0037078857,-0.21258545,-0.00035095215
2019-07-01T19:34:50.469Z,-0.67600685,0.06377537,-0.07179038,0.026321411,-9.810577,0.77049255,-4.875183,43.244934,19.432068,0.037966482,-9.776779,0.76388836,-0.50494266,-0.0443964,-0.015949309,-0.04840088,0.11691284,-0.036514282
2019-07-01T19:34:50.676Z,-0.6788265,0.07396048,-0.08617533,0.071777344,-9.812973,0.7417755,-6.2835693,42.276,19.595337,0.09497589,-9.783856,0.661447,-0.19535127,-0.025896072,0.23028302,-0.06477356,0.19784546,-0.049453735
2019-07-01T19:34:50.877Z,-0.6823875,0.08712816,-0.10757921,0.055038452,-9.78186,0.77526855,-7.6522827,40.58838,18.626404,0.21326308,-9.790277,0.5247743,-0.23703755,0.007089615,0.23108256,-0.09788513,0.24958801,-0.11500549
2019-07-01T19:34:51.081Z,-0.6834225,0.10041922,-0.13253872,0.9714813,-9.872787,0.14117432,-10.5026245,41.636658,18.882751,0.37654963,-9.7891655,0.44815663,-0.28891498,0.008615494,0.24291334,0.03804016,0.300354,-0.08000183
2019-07-01T19:34:51.280Z,-0.67503387,0.112061396,-0.15145284,0.7920227,-9.784256,0.33021545,-10.694885,40.96985,18.527222,0.4373673,-9.777054,0.6231443,0.3274848,0.007229805,-0.39016187,0.025146484,0.07977295,0.008148193
2019-07-01T19:34:51.480Z,-0.6840437,0.067963086,-0.099920094,0.31585693,-9.800995,0.21296692,-8.750916,41.24298,18.73169,0.38166836,-9.784403,0.53868437,0.46193868,0.02971077,-0.34287584,-0.030441284,-0.19718933,0.05682373
2019-07-01T19:34:51.692Z,-0.68798625,0.05881442,-0.08512415,0.08135986,-9.954147,0.18902588,-8.21228,40.69519,18.824768,0.320035,-9.790845,0.45533767,0.11634281,0.0326252,-0.15004131,-0.017868042,-0.1177063,0.022247314
2019-07-01T19:34:51.892Z,-0.6897174,0.056696586,-0.08023162,0.19142151,-9.777069,0.35891724,-7.2875977,41.482544,19.325256,0.287609,-9.793713,0.41335872,-0.03996542,-0.036305428,-0.18934697,-0.03526306,-0.031402588,0.029769897
2019-07-01T19:34:52.142Z,-0.6927576,0.06020239,-0.07967805,0.17706299,-9.954147,0.34934998,-7.835388,41.734314,19.77539,0.23927578,-9.798413,0.32288516,-0.019403845,0.0371809,-0.04704836,-0.02720642,0.06932068,-0.009262085
2019-07-01T19:34:52.296Z,-0.6930163,0.064713664,-0.08540631,0.15553284,-9.769897,0.20817566,-7.550049,40.800476,20.329285,0.25600633,-9.798569,0.30480233,-0.14343515,-0.03197384,0.02512139,-0.018218994,0.014785767,0.01473999
2019-07-01T19:34:52.496Z,-0.69353986,0.06476692,-0.08265128,0.32063293,-9.753143,0.19142151,-7.382202,40.881348,20.489502,0.21890359,-9.799905,0.29042733,-0.11625826,-0.011839867,-0.068392605,0.006210327,-0.03793335,0.020477295
2019-07-01T19:34:52.700Z,-0.6947849,0.057438314,-0.07512478,0.28234863,-9.88475,0.27757263,-8.320618,41.474915,20.948792,0.22052355,-9.800339,0.27409193,0.053617686,0.014052391,-0.08982432,0.029296875,-0.16218567,0.012298584
2019-07-01T19:34:52.903Z,-0.6959275,0.03811538,-0.052215006,-0.35891724,-9.808182,0.028717041,-6.14624,41.6214,20.663452,0.17804715,-9.801059,0.27913937,0.04198648,-0.041794777,-0.065782845,-0.014251709,-0.29473877,0.055114746
2019-07-01T19:34:53.106Z,-0.6996195,0.03755134,-0.048325457,0.55752563,-9.57608,0.18424988,-4.525757,41.801453,20.709229,0.13880362,-9.804035,0.17892171,-0.35331377,0.051675797,-0.087803096,-0.050598145,0.104263306,-0.01727295
2019-07-01T19:34:53.308Z,-0.70317966,0.039175153,-0.054610666,-0.13400269,-9.836899,0.007171631,-6.263733,40.58838,21.365356,0.20930953,-9.804102,0.078525275,0.17557636,0.05756092,0.11329788,-0.029953003,-0.008560181,-0.04084778
2019-07-01T19:34:53.529Z,-0.70299107,0.034696482,-0.05155069,-0.1268158,-9.78186,-0.23210144,-4.9713135,40.74707,21.2677,0.22865094,-9.803569,0.09021517,-0.3519055,-0.06427193,-0.106152855,0.006576538,-0.08345032,0.008087158
2019-07-01T19:34:53.716Z,-0.7018541,0.040077936,-0.054279868,0.23210144,-9.710068,0.3517456,-6.655884,41.004944,20.484924,0.18978932,-9.804154,0.11365104,-0.32532883,-0.011458397,-0.2857117,0.039367676,0.17304993,0.009979248
2019-07-01T19:34:53.916Z,-0.70021856,0.06092035,-0.07257319,0.31106567,-9.786652,0.447464,-6.524658,40.283203,20.63446,0.15120056,-9.804783,0.1173395,-0.02673535,-0.022986412,0.08408898,-0.012298584,0.27268982,-0.001083374
2019-07-01T19:34:54.121Z,-0.6968301,0.06944712,-0.084675916,0.3062744,-9.745972,0.24406433,-7.485962,40.44037,20.327759,0.19179395,-9.802964,0.18838386,0.07301107,0.052423477,0.24200858,0.01927185,0.041900635,-0.005844116
2019-07-01T19:34:54.320Z,-0.6970683,0.06466105,-0.07852296,-0.06939697,-10.069,-0.15553284,-6.878662,41.503906,19.99054,0.17343076,-9.803187,0.1944606,0.1103756,0.03924179,0.04620132,0.016036987,-0.07611084,-0.01133728
2019-07-01T19:34:54.557Z,-0.6983522,0.059649307,-0.07177552,0.22253418,-9.779465,0.2033844,-6.0043335,40.89203,21.868896,0.15288223,-9.803958,0.17154132,-0.045145437,-0.06587505,-0.22756629,-0.04034424,-0.11705017,0.035690308
2019-07-01T19:34:54.716Z,-0.7016215,0.05252459,-0.062392447,0.17228699,-9.753143,0.15792847,-5.9783936,41.323853,22.709656,0.12935875,-9.805313,0.097448185,-0.16073702,-0.026212692,0.0072093233,0.0067596436,-0.075683594,-0.014404297
2019-07-01T19:34:54.940Z,-0.69994193,0.054586776,-0.06779035,0.107681274,-9.896713,0.0,-6.2561035,40.8844,20.669556,0.17169523,-9.804158,0.13928583,-0.18246007,-0.04080677,-0.13484111,-0.007965088,0.018569946,-0.0012054443
2019-07-01T19:34:55.129Z,-0.6996492,0.05410613,-0.06927013,0.0143585205,-10.1479645,-0.20100403,-7.38678,40.80963,20.474243,0.19810079,-9.803527,0.14834566,-0.0033888519,0.029107094,-0.2219153,-0.0019836426,0.032669067,1.5258789e-05