timestamp,rotationVector_x,rotationVector_y,rotationVector_z,accelerometer_x,accelerometer_y,accelerometer_z,magneticField_x,magneticField_y,magneticField_z,gravity_x,gravity_y,gravity_z,linearAcceleration_x,linearAcceleration_y,linearAcceleration_z,gyroscope_x,gyroscope_y,gyroscope_z
2019-07-01T19:26:25.609Z,0.10707655,0.17218369,0.7204741,-0.68196106,3.780655,9.037689,25.439453,-15.95459,-30.337524,-0.7265252,3.8258615,9.000296,0.007099569,-0.0068519115,-0.0049295425,-0.0004119873,-0.004760742,-0.0026855469
2019-07-01T19:26:25.812Z,0.108160496,0.17334113,0.71964043,-0.8638153,3.8907318,8.910873,25.027466,-16.123962,-30.654907,-0.7294851,3.8543892,8.987877,-0.0076039433,0.0028336048,-0.014491081,0.0019073486,-0.008544922,-0.0010375977
2019-07-01T19:26:26.014Z,0.109129824,0.17044768,0.7234518,-0.6269226,3.8452606,8.901306,24.346924,-15.301514,-29.704285,-0.6580753,3.8312812,9.003256,0.037985504,-0.026058912,0.016804695,0.009918213,-0.005493164,-0.0026855469
2019-07-01T19:26:26.219Z,0.11009713,0.17197011,0.7221257,-0.5862427,3.780655,9.150162,24.125671,-14.956665,-29.249573,-0.66994417,3.8628678,8.988872,-0.023178935,0.023750067,-0.035651207,0.011810303,-0.004699707,0.0023345947
2019-07-01T19:26:26.422Z,0.11204997,0.1747985,0.72198385,-0.7010956,3.9314117,9.126221,25.637817,-15.216064,-29.740906,-0.6761227,3.9257429,8.961126,0.00069254637,-0.044704914,0.05791092,0.07559204,0.0017852783,-0.014282227
2019-07-01T19:26:26.624Z,0.115242966,0.18070999,0.7194451,-0.5814514,3.9505463,8.819946,25.29602,-15.675354,-29.745483,-0.7154051,4.0432124,8.905673,-0.04063511,0.016561031,-0.008644104,0.029281616,-0.0014038086,0.0155181885
2019-07-01T19:26:26.825Z,0.11638156,0.17978625,0.7195276,-0.71066284,4.0582275,8.767303,24.642944,-15.937805,-29.696655,-0.68704915,4.045137,8.907032,0.044018686,-0.013846397,-0.011862755,-0.0015716553,0.0002593994,-0.001159668
2019-07-01T19:26:27.030Z,0.11701037,0.1787619,0.7190138,-0.73220825,4.0079803,8.982651,24.858093,-16.278076,-31.059265,-0.6686273,4.038693,8.911357,0.04554546,0.010800362,-0.061645508,-0.023742676,0.025482178,-0.013793945
2019-07-01T19:26:27.247Z,0.11358257,0.17879573,0.7184921,-0.6891327,3.9385834,8.894119,24.221802,-14.5095825,-29.692078,-0.7226165,3.9954503,8.926623,-0.019655406,0.010998011,0.0437603,-0.010787964,0.006729126,-0.01184082
2019-07-01T19:26:27.443Z,0.11217907,0.18000391,0.7146626,-0.77049255,3.9433746,9.035294,24.07837,-15.827942,-30.027771,-0.7807879,3.9896116,8.924335,-0.0294922,0.03545165,-0.022063255,-0.020141602,0.013931274,0.0005645752
2019-07-01T19:26:27.639Z,0.11071227,0.17901327,0.71634096,-0.8614197,3.9720917,8.982651,24.259949,-15.377808,-30.168152,-0.7802207,3.9596405,8.937723,0.034537077,-0.0257833,0.027255058,-0.0035247803,0.0069732666,-0.012084961
2019-07-01T19:26:27.847Z,0.10963151,0.1788152,0.71603733,-0.7728882,3.940979,8.8701935,25.024414,-16.195679,-30.819702,-0.7954337,3.942893,8.943784,-0.010792315,0.003953457,0.011135101,-0.0023040771,0.0104522705,-0.006591797
2019-07-01T19:26:28.044Z,0.108821064,0.17965141,0.7149821,-0.88534546,3.9314117,8.932404,25.447083,-14.213562,-28.999329,-0.8236559,3.9425569,8.941377,-0.029993534,-0.004487753,-0.021025658,-0.0015716553,-0.0020141602,-0.0013427734
2019-07-01T19:26:28.252Z,0.10753229,0.17929368,0.717228,-0.8566284,3.969696,8.922836,25.700378,-15.724182,-29.394531,-0.82489353,3.9241323,8.949364,0.0028573275,0.017076492,0.018626213,-0.0055389404,-0.0015258789,0.005264282
2019-07-01T19:26:28.451Z,0.10841286,0.1782374,0.71914977,-0.87338257,3.9553375,9.073578,25.686646,-15.940857,-29.814148,-0.78787374,3.9233515,8.953042,0.033733487,-0.028984785,-0.0069446564,-0.0056610107,-0.0029296875,0.012466431
2019-07-01T19:26:28.653Z,0.108356796,0.17788479,0.7196063,-0.87815857,3.952942,8.934799,25.846863,-15.852356,-30.33142,-0.78174365,3.9184093,8.955743,-0.023736298,0.007525444,-0.0026369095,0.005218506,0.000869751,-0.010131836
2019-07-01T19:26:28.862Z,0.10859004,0.17872804,0.7186869,-0.71784973,3.900299,8.98027,26.083374,-15.910339,-30.35431,-0.79393375,3.9316785,8.948853,-0.010101259,0.013256788,-0.0189085,-0.0043792725,-0.0016479492,0.0061187744
2019-07-01T19:26:29.059Z,0.1082623,0.17845246,0.7188614,-0.71784973,3.871582,8.815155,25.860596,-15.563965,-30.047607,-0.7943837,3.924012,8.952177,-0.008468926,-0.005284548,0.033589363,-0.004501343,-0.004333496,-0.00036621094
2019-07-01T19:26:29.280Z,0.10869271,0.1780216,0.7195052,-0.77526855,3.952942,8.774475,25.860596,-15.562439,-30.197144,-0.7790588,3.9243903,8.953359,0.02090031,-0.024665594,-0.01563263,0.002532959,-0.0012207031,0.0028686523
2019-07-01T19:26:29.475Z,0.10912703,0.17764625,0.7183857,-0.79441833,3.900299,9.001801,26.931763,-15.055847,-29.91333,-0.77478063,3.9234962,8.954121,-0.0040695667,0.0098929405,-0.0016298294,-0.0023651123,0.0024414062,0.0027008057
2019-07-01T19:26:29.664Z,0.10899302,0.17759567,0.7187432,-0.8422699,3.9649048,8.925232,26.097107,-15.693665,-29.93164,-0.77402157,3.921533,8.955047,0.009319246,0.00068998337,0.0013837814,0.00032043457,-0.006591797,0.008010864
2019-07-01T19:26:29.875Z,0.10872388,0.17625766,0.7181127,-0.73698425,3.900299,8.819946,26.763916,-14.985657,-31.176758,-0.76549673,3.8992999,8.965483,0.008183718,-0.0056083202,0.001824379,-0.0021209717,0.0060577393,-0.0045166016
2019-07-01T19:26:30.073Z,0.10810952,0.17664622,0.71712935,-0.7800598,3.8883362,8.937195,25.805664,-14.981079,-30.455017,-0.7849652,3.8956037,8.965405,-0.0093179345,0.015488386,-0.0032482147,-0.010116577,0.0021514893,-0.0018920898
2019-07-01T19:26:30.283Z,0.1066061,0.1767956,0.71744007,-0.8494568,3.8883362,8.963516,26.3443,-15.603638,-30.001831,-0.8069528,3.8788834,8.9707,0.015147448,0.0006096363,0.011512756,-0.0055389404,0.005203247,-0.00030517578
2019-07-01T19:26:30.487Z,0.105462976,0.1775157,0.7188009,-0.8183441,3.8883362,8.860626,25.462341,-15.6692505,-29.07257,-0.82446736,3.8757758,8.970451,-0.001663804,-0.016088247,-0.0080862045,-0.003036499,0.011489868,-0.009094238
2019-07-01T19:26:30.677Z,0.10458266,0.17792247,0.7183789,-0.825531,3.8189392,9.107086,25.63324,-15.362549,-29.620361,-0.8447397,3.8695753,8.971243,-0.020843863,0.024953127,-0.0042676926,-0.005783081,-0.0016479492,0.008865356
2019-07-01T19:26:30.885Z,0.104446314,0.17758676,0.71937144,-0.91166687,3.8955078,9.004196,25.43335,-16.099548,-30.36499,-0.8368973,3.8645518,8.974142,0.004635632,-0.017801523,0.0275383,0.0054626465,-0.004211426,0.0026245117
2019-07-01T19:26:31.087Z,0.104668714,0.17760396,0.720809,-0.7896271,3.8285217,8.977875,25.737,-14.92157,-29.0802,-0.8254513,3.869407,8.97311,0.0016648769,-7.8201294e-05,-0.016236305,-0.0018157959,0.0023345947,0.0029296875
2019-07-01T19:26:31.292Z,0.10486951,0.1765144,0.721163,-0.78245544,3.8189392,8.908478,26.553345,-14.4973755,-30.00946,-0.8073065,3.857576,8.979853,-0.0024278164,-0.0023903847,-0.001783371,-0.008834839,-0.007507324,0.009048462
2019-07-01T19:26:31.507Z,0.10582892,0.17652777,0.7188291,-0.82073975,3.8428802,9.008972,27.116394,-16.506958,-29.083252,-0.80699146,3.8670728,8.975795,-0.016823113,0.0072209835,-0.016283035,-0.0019378662,-0.0076293945,0.008804321
2019-07-01T19:26:31.693Z,0.10549882,0.1757412,0.72210044,-0.8494568,3.8931274,8.994614,26.405334,-14.138794,-30.384827,-0.78327,3.8561394,8.982598,0.020219147,-0.016369343,0.019721031,0.0037994385,-0.008117676,0.001159668
2019-07-01T19:26:31.901Z,0.1066877,0.17451681,0.7196797,-0.7776642,3.866806,8.922836,26.37024,-14.941406,-30.470276,-0.7651087,3.851714,8.986062,0.021031499,-0.003946066,-0.0025024414,0.0006866455,0.008255005,-0.006164551
2019-07-01T19:26:32.100Z,0.10741186,0.17482965,0.71786946,-0.69869995,3.7782745,8.999405,26.14441,-14.520264,-30.525208,-0.7688048,3.8630528,8.980878,-0.01850611,0.006830454,-0.015469551,-0.0020599365,-0.0051879883,0.0041046143
2019-07-01T19:26:32.297Z,0.10722912,0.17490351,0.7151597,-0.91645813,3.9385834,9.056839,24.494934,-15.4296875,-30.6427,-0.78806496,3.8585582,8.981139,-0.0003902316,0.0050604343,0.020461082,0.005142212,-0.00077819824,-0.0075683594
2019-07-01T19:26:32.511Z,0.107669726,0.17433754,0.71638,-0.7417755,3.8596191,8.982651,25.238037,-15.39917,-28.704834,-0.76768035,3.857966,8.983159,-0.0100777745,-0.0019123554,-0.0031938553,-0.001449585,-0.006652832,0.007095337
2019-07-01T19:26:32.708Z,0.10757699,0.17479226,0.7177513,-0.74417114,3.871582,9.001801,25.926208,-16.000366,-29.684448,-0.7666206,3.8645086,8.980436,0.0023257136,0.0027663708,-0.006026268,-0.0010223389,0.00030517578,0.0019683838
2019-07-01T19:26:32.908Z,0.1065595,0.17491579,0.7195219,-0.75613403,3.878769,8.941986,26.062012,-14.7491455,-29.73938,-0.7727374,3.8553169,8.983864,0.015366554,-0.0048191547,0.010023117,0.0012969971,0.0073394775,-0.0051879883
2019-07-01T19:26:33.115Z,0.10680815,0.17479645,0.7182116,-0.80877686,3.7950134,8.908478,25.714111,-15.431213,-29.335022,-0.7752522,3.8553293,8.983642,0.022588491,-0.0039920807,-0.011582375,-0.003036499,0.0096588135,-0.01550293
2019-07-01T19:26:33.317Z,0.105923265,0.17519258,0.7189836,-0.727417,3.694519,9.087936,26.437378,-15.309143,-29.867554,-0.7885399,3.8503642,8.984614,-0.02470231,0.0069139004,-0.018273354,-0.0074310303,0.00038146973,-6.1035156e-05
2019-07-01T19:26:33.529Z,0.10425125,0.17565371,0.7182139,-0.7920227,3.7615204,9.142975,26.901245,-15.635681,-30.632019,-0.823057,3.8344266,8.988333,-0.0059019327,0.014576197,0.023129463,-0.0043792725,0.007522583,-0.0043945312
2019-07-01T19:26:33.730Z,0.103750356,0.17591551,0.7182806,-0.84706116,3.8596191,9.028122,26.54419,-14.793396,-29.466248,-0.8331758,3.831682,8.988571,0.016151607,-0.019085407,0.0031366348,-4.5776367e-05,0.002456665,-0.011474609
2019-07-01T19:26:33.931Z,0.103794076,0.17578295,0.7181304,-0.7848511,3.8022003,9.08316,26.081848,-14.311218,-29.727173,-0.8317929,3.8302546,8.989307,-0.02036947,0.0057845116,0.009004593,0.0033874512,-0.005554199,0.007217407
2019-07-01T19:26:34.133Z,0.10474152,0.17616704,0.71671915,-0.80158997,3.7926178,8.889343,26.77002,-14.99176,-30.421448,-0.83074903,3.8457613,8.982781,-0.020202756,-3.4570694e-05,-0.0076475143,-0.00340271,-0.004699707,0.009292603
2019-07-01T19:26:34.330Z,0.10450396,0.17469022,0.7170349,-0.9068756,3.912262,9.061615,25.727844,-14.91394,-30.28717,-0.8144302,3.8231544,8.993919,0.037956715,-0.023088932,0.0141477585,0.0033111572,-0.006652832,-0.0021972656
2019-07-01T19:26:34.531Z,0.105958074,0.17465897,0.71904224,-0.8925171,3.8955078,8.908478,25.169373,-16.70227,-30.175781,-0.78122073,3.843642,8.988131,0.016959846,-0.002008438,-0.04977131,0.0077819824,-0.0032958984,0.0038604736
2019-07-01T19:26:34.743Z,0.106395274,0.17500247,0.72000235,-0.7537384,3.838089,9.052048,26.342773,-15.830994,-29.064941,-0.77340317,3.8549712,8.983954,-0.034623265,0.020008564,0.021440506,-0.0035247803,0.0066070557,-0.0018920898
2019-07-01T19:26:34.941Z,0.10582072,0.17529355,0.7168939,-0.6149597,3.7136536,8.760132,25.587463,-14.260864,-30.97992,-0.8033559,3.8479261,8.984345,0.0030186772,-0.013946295,-0.01063633,-0.0013885498,-0.004699707,0.010025024
2019-07-01T19:26:35.140Z,0.1063172,0.17370974,0.7170129,-0.76091003,3.8165588,8.779266,24.612427,-14.5477295,-30.770874,-0.77613246,3.832985,8.993122,0.011601806,-0.025223494,0.04038334,-0.0063934326,-0.0028686523,-0.0007324219
2019-07-01T19:26:35.347Z,0.10670052,0.17469835,0.7177283,-0.74417114,3.8500519,8.810379,25.032043,-16.055298,-30.340576,-0.77843493,3.8520691,8.984764,-0.0045116544,0.014700413,-0.039281845,0.011749268,-0.0038452148,-0.0048828125
2019-07-01T19:26:35.551Z,0.107181236,0.1730294,0.71702546,-0.77526855,3.878769,8.889343,25.360107,-14.138794,-30.189514,-0.75514454,3.8348098,8.99413,0.031547487,-0.023067236,0.010923386,-0.006454468,0.005935669,0.004470825
2019-07-01T19:26:35.756Z,0.10545127,0.1742331,0.7164077,-0.727417,3.7567291,8.93959,26.274109,-15.391541,-29.954529,-0.79863024,3.8283017,8.993147,-0.033513665,0.032742023,0.0017023087,0.0054016113,0.00044250488,-0.010131836
2019-07-01T19:26:35.948Z,0.10508755,0.17410517,0.7158918,-0.7920227,3.8237305,8.930008,26.461792,-14.723206,-29.901123,-0.8053296,3.8213096,8.9955225,0.011449456,-0.0069999695,0.016375542,-0.014099121,0.005264282,-0.00024414062
2019-07-01T19:26:36.155Z,0.10566226,0.1737969,0.714158,-0.8877411,3.735199,8.997009,25.849915,-14.033508,-30.038452,-0.80309737,3.82242,8.995251,0.009468317,-0.0033795834,-0.022802353,0.0022888184,0.0022735596,-0.005432129
2019-07-01T19:26:36.357Z,0.10500059,0.17357084,0.71621007,-0.77526855,3.7136536,9.011368,24.757385,-15.205383,-29.251099,-0.7982531,3.8133633,8.999524,0.014730811,-0.011445522,-0.012000084,0.000869751,0.00038146973,-0.0018920898
2019-07-01T19:26:36.565Z,0.10336096,0.17414637,0.7177741,-0.75852966,3.7160492,9.078369,25.708008,-15.428162,-30.014038,-0.820272,3.8021226,9.0023,-0.029922783,0.024767637,0.022414207,-0.00340271,0.0011138916,-0.0064697266
2019-07-01T19:26:36.763Z,0.10322881,0.17428909,0.71741474,-0.8063812,3.7830505,9.028122,25.109863,-14.451599,-29.412842,-0.8259902,3.801926,9.00186,0.015768588,-0.0027241707,-0.0031833649,-0.0066986084,0.004348755,0.0024414062
2019-07-01T19:26:36.964Z,0.10206428,0.1750555,0.7183071,-0.8685913,3.7998047,8.889343,25.14038,-15.463257,-30.375671,-0.8472333,3.7985814,9.001297,0.0017279983,-0.0045068264,-0.0054416656,-0.0019378662,0.007949829,-0.0060424805
2019-07-01T19:26:37.166Z,0.101317026,0.17444548,0.71901953,-0.87098694,3.7878418,9.188446,25.32196,-14.93988,-30.50232,-0.84668773,3.7816865,9.00846,-0.0022283196,-0.0034947395,0.0298872,0.0049743652,-0.003112793,-0.0017089844
2019-07-01T19:26:37.388Z,0.10186119,0.17538188,0.7175975,-0.8901367,3.7710876,8.913269,26.052856,-14.892578,-30.06897,-0.8582161,3.7995067,8.9998665,-0.026616037,0.007659912,-0.01790142,-0.0068206787,-0.0026855469,0.0077667236
2019-07-01T19:26:37.580Z,0.10149268,0.1747273,0.7201323,-0.9499512,3.826126,9.032898,25.22583,-15.541077,-29.185486,-0.84119606,3.7891657,9.005831,0.022870958,-0.020170212,0.0032072067,0.0047302246,-0.0056152344,0.00012207031
2019-07-01T19:26:37.779Z,0.103117175,0.17335413,0.7187592,-0.8566284,3.8022003,9.152542,26.934814,-14.678955,-31.497192,-0.8085786,3.7894788,9.008687,0.00806123,0.0017447472,-0.005309105,0.0034484863,-0.00592041,0.007095337
2019-07-01T19:26:37.986Z,0.10411809,0.17343545,0.71844834,-0.74417114,3.7375946,9.078369,25.964355,-14.968872,-30.60913,-0.7967039,3.8029535,9.0040655,-0.0109010935,0.012814283,-0.010953903,-0.0012664795,-0.0009765625,0.008682251
2019-07-01T19:26:38.183Z,0.10354748,0.17388134,0.7192239,-0.8494568,3.8165588,8.934799,25.776672,-15.638733,-30.361938,-0.8060375,3.8026757,9.003352,0.00856936,-0.011679411,0.002398491,-0.0046844482,0.005203247,-0.0064086914
2019-07-01T19:26:38.386Z,0.10275467,0.17315924,0.71758264,-0.82073975,3.8811646,8.915665,26.055908,-14.668274,-30.78003,-0.81818783,3.7807765,9.011475,-0.020381272,0.0132238865,0.019867897,-0.010665894,-0.0073242188,0.004333496
2019-07-01T19:26:38.600Z,0.103579216,0.1726289,0.71944135,-0.7896271,3.7902374,8.815155,25.70343,-15.499878,-30.104065,-0.7891129,3.786333,9.011735,0.0060886145,-0.021655321,-0.01649189,0.0028381348,0.0002593994,-4.5776367e-05
2019-07-01T19:26:38.799Z,0.1020214,0.17285825,0.72078645,-0.83987427,3.8189392,8.941986,26.179504,-15.689087,-29.78363,-0.80706394,3.7712643,9.016463,0.0064049363,0.0069611073,0.019557,-0.0020599365,-0.00061035156,0.0031280518
2019-07-01T19:26:38.996Z,0.102434,0.17275254,0.7216706,-0.8925171,3.838089,8.843872,25.375366,-15.596008,-30.258179,-0.79469794,3.7761295,9.015525,0.035453796,-0.028842926,-0.016728401,0.006866455,0.0058135986,-0.018997192
2019-07-01T19:26:39.199Z,0.101436384,0.17295411,0.7219826,-0.79441833,3.735199,9.097519,24.595642,-15.138245,-29.985046,-0.81000584,3.7666035,9.018147,-0.044475734,0.025778294,0.011636734,-0.0027313232,-0.0015258789,0.0062408447
2019-07-01T19:26:39.403Z,0.10178955,0.17292587,0.72042996,-0.83509827,3.7567291,9.025726,25.215149,-14.009094,-29.026794,-0.81330734,3.768803,9.016932,0.010943711,0.0065939426,-0.015376091,-0.007736206,-0.00061035156,0.0022583008
2019-07-01T19:26:39.610Z,0.10124848,0.1729422,0.7212812,-0.8494568,3.7591248,8.999405,25.479126,-15.075684,-30.46112,-0.81660414,3.7631953,9.018975,0.008877575,-0.012294531,0.015929222,0.005706787,0.0042266846,-0.0076904297
2019-07-01T19:26:39.813Z,0.10137025,0.17295755,0.7209863,-0.7657013,3.7471619,9.037689,24.890137,-15.776062,-29.748535,-0.81667817,3.764588,9.018387,0.01350677,0.0028169155,-0.012087822,-0.0021209717,0.0069122314,-0.006652832
2019-07-01T19:26:40.014Z,0.09955351,0.17385387,0.7215746,-0.87338257,3.7136536,9.020935,25.064087,-15.245056,-30.856323,-0.85083777,3.7544634,9.019449,-0.018830776,0.023108244,-0.0027008057,-0.017211914,0.0036773682,-0.0036621094
2019-07-01T19:26:40.211Z,0.09904478,0.17305794,0.72255456,-0.7992096,3.7112732,8.848663,25.558472,-15.1474,-29.724121,-0.84312874,3.7383907,9.026847,0.00095772743,-0.020656347,0.0017213821,-0.0043182373,0.0030517578,-0.0032958984
2019-07-01T19:26:40.417Z,0.09837231,0.17322204,0.7228381,-0.8901367,3.7088776,9.035294,26.64032,-16.090393,-30.488586,-0.8533848,3.732462,9.028336,0.01374805,-0.0057525635,0.013866425,0.005584717,0.0027618408,-0.0078125
2019-07-01T19:26:40.629Z,0.0981421,0.17378815,0.72408867,-0.87815857,3.6275177,9.035294,24.46289,-16.085815,-31.152344,-0.85653245,3.7389078,9.02537,-0.017130613,0.005803585,-0.011060715,0.0027160645,-0.009643555,0.006729126
2019-07-01T19:26:40.823Z,0.09780428,0.17334518,0.7257862,-0.90448,3.7447662,9.157333,24.629211,-14.411926,-29.385376,-0.84655964,3.7307541,9.029685,-0.010855973,0.0008568764,0.021400452,-0.0004119873,-0.0029907227,0.005203247
2019-07-01T19:26:41.028Z,0.0990113,0.17282508,0.72572637,-0.8279114,3.706482,8.970688,25.834656,-16.06903,-30.677795,-0.82285225,3.7387798,9.028557,-0.001277566,-0.0004298687,-0.0013933182,0.00093078613,-0.0025634766,0.0048980713
2019-07-01T19:26:41.230Z,0.09868903,0.172506,0.7240663,-0.8661957,3.7447662,9.114258,26.40686,-14.14032,-30.233765,-0.8331513,3.728246,9.031967,-0.00072580576,0.013642788,0.0026607513,0.0027770996,-0.0041503906,0.002822876
2019-07-01T19:26:41.433Z,0.1001614,0.1718219,0.72301185,-0.77049255,3.7256317,8.910873,26.530457,-14.781189,-31.126404,-0.8091946,3.736233,9.030845,0.023424804,-0.019699335,-0.015622139,-0.004928589,0.0012817383,0.0050201416
2019-07-01T19:26:41.665Z,0.099770725,0.17235225,0.7219544,-0.80877686,3.723236,9.064011,27.322388,-15.170288,-30.781555,-0.8273196,3.7372131,9.028796,-0.01908201,0.01284337,-0.0017223358,0.0011749268,0.0027618408,-0.0072021484
2019-07-01T19:26:41.839Z,0.09975214,0.17218454,0.7224045,-0.83270264,3.7543335,9.023331,25.949097,-15.336609,-30.456543,-0.82302207,3.7352479,9.030003,0.0048923492,0.0014088154,0.006638527,-0.0009613037,-0.0021362305,0.006729126
2019-07-01T19:26:42.041Z,0.09964419,0.17223203,0.7224379,-0.8542328,3.7734833,8.937195,26.461792,-14.72168,-29.975891,-0.82499313,3.7345676,9.030104,0.010527313,-0.0044510365,-0.0076789856,-0.002243042,-0.0013885498,-0.0008544922
2019-07-01T19:26:42.244Z,0.10032339,0.17142051,0.72212666,-0.7657013,3.7567291,8.906082,25.483704,-14.927673,-30.657959,-0.8069461,3.7317243,9.03291,0.0047870874,-0.021959305,0.010938644,-0.0031585693,0.0050811768,-0.003540039
2019-07-01T19:26:42.450Z,0.100328654,0.17209004,0.7211255,-0.8757782,3.694519,8.994614,26.542664,-14.79187,-29.542542,-0.8206327,3.7396972,9.0283785,-0.016793549,0.014010668,-0.0025835037,0.0047302246,-0.0028686523,0.00048828125
2019-07-01T19:26:42.647Z,0.10025776,0.17128535,0.721854,-0.81355286,3.7088776,9.028122,25.627136,-15.357971,-30.448914,-0.80780375,3.7287126,9.034076,0.008285284,-0.009503841,0.012887955,-0.00047302246,-0.0031738281,0.0037384033
2019-07-01T19:26:42.853Z,0.100453265,0.17122544,0.72225356,-0.83987427,3.6969147,9.056839,26.924133,-15.2786255,-29.655457,-0.8019602,3.7308636,9.03371,0.01471597,-0.005338669,-0.0010671616,0.0028839111,-0.0025634766,-0.0005493164
2019-07-01T19:26:43.057Z,0.100651555,0.171595,0.72237617,-0.7154541,3.653839,8.930008,24.92218,-15.122986,-29.316711,-0.8028384,3.7385757,9.030442,-0.010835469,0.0053002834,9.8228455e-05,0.002456665,0.0019683838,-0.005004883
2019-07-01T19:26:43.255Z,0.099618636,0.17194006,0.72225636,-0.80877686,3.7495575,8.93959,25.741577,-14.622498,-30.227661,-0.8228541,3.7300289,9.032174,0.010466695,0.007946968,-0.0110731125,1.5258789e-05,0.002090454,-0.0013427734
2019-07-01T19:26:43.461Z,0.09883461,0.17169404,0.7217326,-0.81355286,3.672989,9.025726,26.707458,-14.785767,-28.942871,-0.83431053,3.7160509,9.036885,-0.002826631,-0.0036821365,0.017516136,-0.006088257,0.008865356,-0.010620117
2019-07-01T19:26:43.658Z,0.0980783,0.17265764,0.7218523,-0.78723145,3.672989,8.863022,25.907898,-14.616394,-29.554749,-0.8564123,3.7197423,9.033298,-0.01480484,0.000767231,-0.01543808,-0.0039520264,0.0070343018,-0.0032958984
2019-07-01T19:26:43.873Z,0.0971978,0.17290759,0.722066,-0.9068756,3.7519531,9.066406,26.669312,-15.434265,-30.35736,-0.87115085,3.7122364,9.034976,0.0025912523,0.004919529,0.017368317,0.0022735596,-0.0006713867,-0.0014648438
2019-07-01T19:26:44.068Z,0.09727272,0.17296155,0.7225103,-0.8757782,3.6801605,8.874985,25.483704,-13.258362,-29.711914,-0.8682155,3.7145095,9.034324,0.0020890236,-0.015628576,-0.016119957,0.0001373291,-0.0025634766,-0.0016479492
2019-07-01T19:26:44.268Z,0.09748513,0.17244606,0.7202889,-0.8518524,3.7184448,9.0759735,24.339294,-15.444946,-30.110168,-0.87127376,3.7072654,9.037005,-0.008321404,0.010593414,0.010808945,0.00015258789,-0.0021362305,0.006362915
2019-07-01T19:26:44.481Z,0.09778493,0.17223822,0.72210205,-0.8374939,3.6753693,9.023331,26.776123,-14.845276,-30.39093,-0.8542297,3.710604,9.037262,0.002370298,-0.0029144287,0.0063114166,0.002029419,-0.0059814453,0.003921509
2019-07-01T19:26:44.668Z,0.09818771,0.17236054,0.7212513,-0.8829498,3.7256317,8.970688,26.881409,-14.404297,-29.701233,-0.8545744,3.7163033,9.034886,0.0011277795,-0.0062737465,-0.01897335,-0.0027313232,7.6293945e-05,0.0017089844
2019-07-01T19:26:44.890Z,0.09895062,0.17164464,0.7206553,-0.825531,3.6849518,9.126221,25.648499,-14.845276,-30.57251,-0.83804184,3.7154963,9.036767,0.0103302,0.0021424294,0.0085783005,0.007293701,-0.005126953,0.0036010742
2019-07-01T19:26:45.080Z,0.09971683,0.17221339,0.7194063,-0.90927124,3.7423706,8.953949,26.223755,-14.511108,-30.97992,-0.84075075,3.7314343,9.029945,-0.004779637,0.0030741692,-0.010375977,-0.0027923584,-0.0007171631,0.0018463135
2019-07-01T19:26:45.292Z,0.09988505,0.17107032,0.71914756,-0.8661957,3.728012,9.052048,25.726318,-14.8376465,-30.950928,-0.8258068,3.7177088,9.0369835,0.0113222,-0.013546228,0.010252953,0.0017852783,-0.00390625,0.0034332275
2019-07-01T19:26:45.490Z,0.100817226,0.17049642,0.7186743,-0.75852966,3.7016907,8.93959,27.072144,-15.257263,-31.24237,-0.8078276,3.7212312,9.037158,-0.0030964613,0.0042085648,0.0022764206,-0.0024871826,-0.0010986328,0.0010375977
2019-07-01T19:26:45.685Z,0.10051088,0.17058149,0.7188062,-0.7800598,3.7208405,8.965912,25.924683,-15.99884,-29.760742,-0.81260407,3.7186346,9.037799,-0.007784009,-0.0010476112,-0.0033006668,0.0013580322,0.0011749268,0.001953125
2019-07-01T19:26:45.889Z,0.10047661,0.170896,0.72098535,-0.77049255,3.7016907,8.920441,26.348877,-15.457153,-30.197144,-0.8047456,3.7251284,9.035828,0.020697653,-0.016088009,-0.0054540634,0.0074768066,0.00079345703,-0.008911133
2019-07-01T19:26:46.099Z,0.10067957,0.17119911,0.72140837,-0.63648987,3.6514435,8.982651,26.356506,-15.159607,-30.81665,-0.80307883,3.7323558,9.032993,-0.030900776,0.023600817,-0.0042152405,-0.0032196045,-0.0044555664,0.009719849
2019-07-01T19:26:46.301Z,0.09968262,0.17142417,0.7206878,-0.8039856,3.6801605,9.087936,26.777649,-15.074158,-28.851318,-0.8244638,3.7218564,9.035399,0.012090862,0.0006978512,0.004170418,-0.0062713623,0.004714966,-0.0043945312
2019-07-01T19:26:46.502Z,0.09927441,0.17138122,0.7222913,-0.9068756,3.7160492,9.073578,26.269531,-15.541077,-29.605103,-0.8209341,3.7180662,9.037281,0.0123054385,-0.018758535,0.030953407,0.008514404,-0.002319336,-0.0065307617
2019-07-01T19:26:46.696Z,0.09883917,0.17214209,0.722907,-0.8661957,3.7375946,9.085556,26.156616,-16.047668,-30.763245,-0.83307964,3.7237086,9.033846,-0.009739757,0.010041952,-0.015827179,-0.0021209717,0.0033111572,0.0009765625
2019-07-01T19:26:46.917Z,0.09863736,0.17228013,0.7237644,-0.8949127,3.735199,8.941986,26.364136,-14.936829,-31.149292,-0.8328858,3.7241178,9.033694,0.025690556,-0.00054097176,-0.010399818,-0.0070648193,0.006790161,-0.008239746
2019-07-01T19:26:47.098Z,0.09750707,0.17189208,0.72382766,-0.8901367,3.7136536,8.999405,26.600647,-14.993286,-31.472778,-0.84445244,3.704553,9.040662,0.0088146925,-0.009507656,0.0061950684,-0.0035247803,0.005569458,-0.008728027
2019-07-01T19:26:47.304Z,0.09658908,0.17096868,0.7222768,-0.84706116,3.672989,9.102295,25.733948,-14.767456,-30.332947,-0.85538214,3.6782572,9.050366,-0.0106701255,0.020105362,-0.009375572,-0.020187378,0.009475708,-0.0056762695
2019-07-01T19:26:47.518Z,0.094050504,0.16894504,0.7239187,-0.8542328,3.460022,9.107086,26.782227,-14.77356,-30.075073,-0.8589887,3.620339,9.07335,-0.034941137,-0.015065432,0.049408913,-0.007797241,0.0013427734,-0.0019378662
2019-07-01T19:26:47.713Z,0.08233822,0.12624604,0.73019177,1.1605225,3.0293121,9.870392,26.368713,-14.941406,-30.622864,-0.47089428,2.8842309,9.361083,0.57900965,0.5683696,-0.27595806,-0.08128357,-0.10279846,0.049606323
2019-07-01T19:26:47.925Z,0.031922508,0.059895884,0.7052198,4.015152,1.4787598,7.7024994,26.081848,-12.187195,-31.103516,-0.38752133,1.2703243,9.7163,2.8715272,1.185745,-0.22223759,-0.8073578,-0.025466919,-0.190094
2019-07-01T19:26:48.131Z,-0.024793604,0.05319254,0.62408555,-2.5579224,0.32063293,7.429718,27.00653,-1.6830444,-33.53424,-1.1163545,0.27220878,9.739098,-0.7670512,0.93692756,-0.41211224,-0.792572,0.243927,-0.8387146
2019-07-01T19:26:48.331Z,-0.104154006,0.062311437,0.67177236,-3.929016,-0.51924133,10.207779,31.045532,7.5408936,-32.048035,-2.265369,-0.6717774,9.517731,-1.7310348,-0.8758175,-0.788455,-0.113479614,0.18400574,-0.114105225
2019-07-01T19:26:48.534Z,-0.11582228,0.114883386,0.7117193,-2.3641052,-5.883957,14.005188,36.6745,6.944275,-29.078674,-3.1563296,0.051546,9.28468,0.096191406,-1.4880024,1.0858173,-0.680603,0.31814575,0.6946106
2019-07-01T19:26:48.723Z,0.0016290211,0.0023519658,0.72037804,-2.6679993,0.90927124,10.822739,38.427734,6.4712524,-28.416443,-0.008978093,0.055390984,9.80649,-2.2673283,-0.55491483,-0.44480324,0.39213562,0.13665771,0.12162781
2019-07-01T19:26:48.936Z,0.00025697364,0.0025574125,0.71513116,0.047851562,-0.13639832,9.779465,29.829407,6.4819336,-37.501526,-0.03145629,0.039393436,9.80652,0.026629135,-0.16329563,0.10664749,-0.06814575,-1.4330902,0.26634216
2019-07-01T19:26:49.138Z,0.00022944188,0.0019734036,0.7088616,0.06939697,-0.17468262,9.805786,30.464172,6.3064575,-37.487793,-0.024110384,0.03061059,9.806573,0.117162734,-0.1760698,0.010612488,7.6293945e-05,-0.0008544922,-0.0007324219
2019-07-01T19:26:49.332Z,0.00018629749,0.0014273599,0.7032133,0.105285645,-0.13639832,9.812973,30.537415,6.2408447,-37.954712,-0.017334506,0.022284469,9.806609,0.11303495,-0.1696613,0.010763168,0.00032043457,-0.00061035156,-0.00079345703
2019-07-01T19:26:49.541Z,0.00011395465,0.0009071527,0.6976467,0.090927124,-0.13160706,9.805786,28.941345,6.652832,-38.94043,-0.011187852,0.014013976,9.806634,0.10330919,-0.15972134,0.006368637,0.00019836426,-0.00048828125,-0.0006713867
2019-07-01T19:26:49.744Z,-0.00059204665,-0.0021713916,0.6937268,0.04067993,-0.052642822,9.8033905,29.336548,7.975769,-36.949158,0.022617921,-0.037907902,9.806551,0.06808323,-0.10569249,0.003768921,0.00019836426,-0.00016784668,-0.0005493164
2019-07-01T19:26:49.945Z,-0.0011507042,-0.0044269995,0.68506056,0.100494385,-0.22253418,9.810577,30.899048,7.217407,-38.60321,0.047790594,-0.07592345,9.80624,0.04890071,-0.07631041,0.004099846,0.0002593994,-0.00018310547,-0.0013427734
2019-07-01T19:26:50.144Z,-0.0015564742,-0.005783341,0.67815787,0.07417297,-0.18185425,9.78186,30.236816,6.7337036,-38.29651,0.062656544,-0.0993582,9.805946,0.030456856,-0.047623843,-0.00045394897,0.00019836426,0.0001373291,-0.00079345703
2019-07-01T19:26:50.356Z,-0.0018940489,-0.006651457,0.6741251,0.06460571,-0.19621277,9.789032,28.819275,5.467224,-37.51526,0.0713108,-0.1153817,9.805712,0.017503217,-0.033758767,-0.00015640259,0.00044250488,0.0,-0.0008544922
2019-07-01T19:26:50.557Z,-0.0019920645,-0.0073212627,0.6666866,0.093322754,-0.1603241,9.7986145,29.554749,7.70874,-38.29651,0.08097255,-0.124851845,9.805521,0.01883652,-0.020689815,0.0024433136,0.0002593994,0.0,-0.00061035156
2019-07-01T19:26:50.754Z,-0.0020799716,-0.0077208793,0.6634862,0.095718384,-0.114852905,9.7986145,30.37262,5.9295654,-37.03003,0.086226165,-0.13099368,9.805396,0.010708697,-0.012860358,0.0014734268,0.0002593994,-6.1035156e-05,-0.0009765625
2019-07-01T19:26:50.967Z,-0.0021346407,-0.007954225,0.6596394,0.100494385,-0.119644165,9.808182,30.073547,6.4971924,-37.278748,0.08962889,-0.13437428,9.805319,0.0068287477,-0.00803861,0.0009765625,0.0002593994,0.0001373291,-0.00091552734
2019-07-01T19:26:51.166Z,-0.0022641872,-0.008114867,0.65705764,0.105285645,-0.12921143,9.805786,30.375671,6.1569214,-37.890625,0.0907945,-0.13805145,9.805259,0.002298452,-0.008408949,0.0016031265,0.00019836426,-4.5776367e-05,-0.0007324219
2019-07-01T19:26:51.369Z,-0.0024347655,-0.008214943,0.6530431,0.093322754,-0.1531372,9.805786,30.58014,7.267761,-38.42926,0.090828046,-0.14138232,9.80521,-0.00013463199,-0.0072240084,0.00074100494,0.00032043457,-0.00016784668,-0.00061035156
2019-07-01T19:26:51.571Z,-0.0024006604,-0.008223291,0.6503579,0.098098755,-0.13160706,9.805786,30.072021,6.6497803,-38.305664,0.091887444,-0.14065826,9.805211,0.0012008622,0.00018626451,0.00017547607,0.00032043457,-0.00022888184,-0.0006713867
2019-07-01T19:26:51.774Z,-0.0024607752,-0.008359301,0.64775807,0.095718384,-0.1483612,9.8033905,28.869629,6.713867,-38.0188,0.09363579,-0.14296946,9.8051605,0.0025682375,-0.005639896,-0.00067806244,0.0002593994,-0.00016784668,-0.0007324219
2019-07-01T19:26:51.972Z,-0.0025461423,-0.008359606,0.6447331,0.088531494,-0.14117432,9.7986145,29.692078,7.28302,-38.841248,0.09312687,-0.1438808,9.805153,-0.0017090961,-0.0028291792,-0.0010957718,0.0002593994,-0.000289917,-0.0005493164
2019-07-01T19:26:52.172Z,-0.0025366398,-0.008389,0.6439906,0.095718384,-0.13639832,9.800995,29.319763,6.0897827,-38.54065,0.09382752,-0.14401898,9.805144,0.0004799515,-0.001982525,-0.0012140274,0.00044250488,-0.00022888184,-0.00061035156
2019-07-01T19:26:52.387Z,-0.002573164,-0.008422582,0.64181465,0.088531494,-0.1603241,9.796219,29.527283,7.0495605,-38.127136,0.09428152,-0.14472385,9.805129,-0.00022893399,-0.0029396415,0.0022182465,0.00038146973,-0.00022888184,-0.00061035156
2019-07-01T19:26:52.584Z,-0.0025905485,-0.008395557,0.64180565,0.08375549,-0.15792847,9.7986145,30.406189,6.7367554,-37.24518,0.09365797,-0.14464402,9.805136,-0.0015130118,-0.0010965466,3.9100647e-05,0.00019836426,6.1035156e-05,-0.00061035156
2019-07-01T19:26:52.780Z,-0.002612997,-0.008408088,0.64182895,0.093322754,-0.15553284,9.805786,31.123352,6.716919,-37.88147,0.093559414,-0.14514223,9.80513,-0.00022677332,-0.0015558451,0.0005016327,0.0001373291,-6.1035156e-05,-0.0005493164
2019-07-01T19:26:53.003Z,-0.0025818571,-0.008439139,0.6418323,0.088531494,-0.14117432,9.808182,30.093384,6.9351196,-37.190247,0.09441773,-0.14506517,9.805122,0.0010570735,-0.0011301339,0.0019273758,0.00038146973,-0.00010681152,-0.0005493164
2019-07-01T19:26:53.184Z,-0.0026380983,-0.008447665,0.64187384,0.088531494,-0.13877869,9.808182,29.899597,6.4193726,-38.346863,0.09383,-0.1460234,9.805114,-0.0009942874,-0.0018514693,-0.00015926361,4.5776367e-05,0.0,0.00010681152
2019-07-01T19:26:53.396Z,-0.0026020035,-0.008448,0.6418514,0.107681274,-0.14356995,9.808182,30.229187,6.4346313,-37.374878,0.09429371,-0.14548205,9.805118,0.00022402406,-1.7896295e-05,-0.00074005127,0.000289917,-0.00018310547,4.5776367e-05
2019-07-01T19:26:53.603Z,-0.0026078967,-0.00839429,0.6418156,0.093322754,-0.1483612,9.791428,31.0318,6.491089,-38.002014,0.093418635,-0.14489019,9.805135,-0.0017587319,0.0005788654,-0.0022563934,0.00010681152,0.0,0.00030517578
2019-07-01T19:26:53.798Z,-0.0026176474,-0.008375344,0.64180773,0.095718384,-0.13877869,9.7986145,30.973816,6.9229126,-37.683105,0.09359864,-0.14521842,9.805127,-0.00063586235,0.0002425611,9.250641e-05,-1.5258789e-05,0.0,-1.5258789e-05
2019-07-01T19:26:54.005Z,-0.0026165056,-0.008413099,0.64183486,0.095718384,-0.1531372,9.8033905,30.381775,6.6818237,-39.823914,0.09358946,-0.14525877,9.805127,-0.00049339235,-1.6734004e-05,-0.00038146973,4.5776367e-05,-6.1035156e-05,0.00010681152
2019-07-01T19:26:54.201Z,-0.002584674,-0.008428768,0.6418264,0.093322754,-0.14596558,9.8033905,30.917358,5.911255,-39.09607,0.09422743,-0.14497627,9.805126,0.0005522147,-0.0003068745,-0.0010499954,4.5776367e-05,0.0,-0.0001373291
2019-07-01T19:26:54.399Z,-0.0026480288,-0.008462625,0.64189106,0.088531494,-0.1483612,9.796219,30.815125,6.9839478,-37.364197,0.09392663,-0.14636317,9.805108,-0.0008307025,-0.0024980456,0.0010519028,0.00010681152,-0.00024414062,-7.6293945e-05
2019-07-01T19:26:54.603Z,-0.0026571292,-0.008467663,0.6419005,0.088531494,-0.1483612,9.805786,29.919434,6.8573,-38.25836,0.093886,-0.14656459,9.805104,-0.001023829,-0.00036646426,0.0010194778,4.5776367e-05,-0.00012207031,-0.0002593994
2019-07-01T19:26:54.810Z,-0.0026152297,-0.008521465,0.64191383,0.102890015,-0.1603241,9.800995,28.675842,7.6446533,-37.290955,0.09521998,-0.1466135,9.805092,0.0031282008,-7.736683e-05,0.0014820099,-1.5258789e-05,-6.1035156e-05,-0.00019836426
2019-07-01T19:26:55.010Z,-0.0026489107,-0.008509392,0.64192605,0.08375549,-0.1268158,9.800995,30.549622,6.5338135,-38.124084,0.09461204,-0.1469695,9.805092,-0.0010446981,-0.0011482686,0.0009851456,-1.5258789e-05,0.00010681152,-0.00038146973
2019-07-01T19:26:55.213Z,-0.0026416534,-0.008512506,0.6419238,0.100494385,-0.16989136,9.8033905,30.870056,6.4819336,-38.07068,0.09475067,-0.1468993,9.805092,0.00025475025,-3.4093857e-05,-0.00077819824,4.5776367e-05,0.0,-0.0002593994
2019-07-01T19:26:55.428Z,-0.0026983924,-0.00854142,0.64198065,0.093322754,-0.1603241,9.8033905,30.975342,7.0755005,-38.182068,0.094460055,-0.14812355,9.805077,-0.00017251074,-0.0023946166,0.00011062622,4.5776367e-05,4.5776367e-05,-0.00019836426
2019-07-01T19:26:55.628Z,-0.0026305555,-0.0084803635,0.64189315,0.100494385,-0.13160706,9.808182,30.119324,7.595825,-37.739563,0.09441295,-0.14632398,9.805104,0.00011333823,0.0029774904,-0.002005577,4.5776367e-05,0.0,-0.00019836426
2019-07-01T19:26:55.828Z,-0.0025925245,-0.008456689,0.6418519,0.095718384,-0.1603241,9.8033905,29.968262,5.9814453,-37.457275,0.09454363,-0.14544894,9.805116,0.00070787966,0.0013577789,-0.0016565323,0.00016784668,0.00024414062,-7.6293945e-05
2019-07-01T19:26:56.034Z,-0.0026272002,-0.008512633,0.6419148,0.100494385,-0.1483612,9.808182,29.989624,6.6467285,-38.380432,0.094936274,-0.14668244,9.805094,0.0007994771,-0.0026516467,0.00080776215,0.00010681152,0.0,4.5776367e-05
2019-07-01T19:26:56.226Z,-0.002642663,-0.008533677,0.64194,0.07896423,-0.15792847,9.7986145,29.623413,7.116699,-36.457825,0.09505318,-0.14718303,9.805085,0.00043108314,-0.0016667098,0.001490593,0.00010681152,0.0,-1.5258789e-05
2019-07-01T19:26:56.433Z,-0.0026076834,-0.008520173,0.6419081,0.100494385,-0.1531372,9.805786,29.766846,6.916809,-37.712097,0.09529666,-0.14648305,9.805093,0.0006612614,0.0009893775,-0.00011730194,0.00022888184,4.5776367e-05,-0.0001373291
2019-07-01T19:26:56.637Z,-0.0026191436,-0.008544753,0.6419334,0.093322754,-0.1651001,9.8033905,28.88031,6.932068,-37.747192,0.09551713,-0.14696799,9.805084,0.00020837039,-0.0011600256,0.00071525574,-1.5258789e-05,-6.1035156e-05,-1.5258789e-05
2019-07-01T19:26:56.854Z,-0.002599056,-0.008569867,0.6419393,0.098098755,-0.15074158,9.8033905,28.866577,6.488037,-37.158203,0.09614653,-0.14698285,9.805078,0.0010164082,-0.00043268502,-0.00064373016,0.00010681152,-6.1035156e-05,-1.5258789e-05
2019-07-01T19:26:57.055Z,-0.0025955993,-0.00854267,0.6419171,0.090927124,-0.14356995,9.805786,30.236816,6.655884,-37.556458,0.09578536,-0.14658567,9.805087,-0.0005467981,0.0010801703,0.000374794,-7.6293945e-05,4.5776367e-05,-1.5258789e-05
2019-07-01T19:26:57.246Z,-0.0025818048,-0.008514062,0.64188737,0.090927124,-0.14596558,9.800995,28.788757,6.7092896,-38.090515,0.09553454,-0.14601436,9.805098,-0.000517413,0.0014588088,-0.0015087128,-0.0001373291,0.0,-7.6293945e-05
2019-07-01T19:26:57.446Z,-0.0025704259,-0.008547853,0.6419051,0.095718384,-0.15074158,9.8033905,30.62439,6.4697266,-38.51776,0.096182525,-0.14627087,9.805088,0.0014632568,-0.00044237077,-0.0008430481,-7.6293945e-05,-6.1035156e-05,0.00016784668
2019-07-01T19:26:57.651Z,-0.0025970722,-0.008522354,0.64190304,0.090927124,-0.14356995,9.805786,30.465698,6.4559937,-38.13629,0.09546402,-0.14635031,9.805094,-0.0021263212,-0.000111207366,0.0010375977,0.00010681152,0.0,-1.5258789e-05
2019-07-01T19:26:57.857Z,-0.0025913238,-0.008501916,0.64188445,0.090927124,-0.1531372,9.8033905,30.381775,6.454468,-38.735962,0.09523264,-0.14600426,9.805101,-0.00046396255,0.00026503205,0.00068950653,-7.6293945e-05,-0.00012207031,-0.0001373291
2019-07-01T19:26:58.061Z,-0.0025951366,-0.008517681,0.6418984,0.088531494,-0.15553284,9.791428,29.052734,5.4138184,-38.139343,0.09541901,-0.1462618,9.805096,0.00054384023,2.8192997e-05,-0.0008201599,-0.0001373291,0.0,-1.5258789e-05
2019-07-01T19:26:58.257Z,-0.002583717,-0.00852505,0.64189667,0.090927124,-0.1603241,9.800995,30.548096,6.536865,-38.27362,0.09567391,-0.1461826,9.805093,0.00028385967,0.00020097196,0.0010519028,0.00016784668,6.1035156e-05,-1.5258789e-05
2019-07-01T19:26:58.463Z,-0.0025548113,-0.008454578,0.6418267,0.098098755,-0.117248535,9.808182,29.988098,6.4956665,-37.65564,0.09499142,-0.14485207,9.80512,-0.0009465441,0.0024647564,0.0011777878,-7.6293945e-05,0.00010681152,-1.5258789e-05
2019-07-01T19:26:58.669Z,-0.0025627068,-0.008482801,0.6418524,0.098098755,-0.14117432,9.8033905,29.309082,7.2402954,-36.41815,0.09531155,-0.14532927,9.80511,0.0006414056,-0.001362145,-0.00017261505,0.00016784668,4.5776367e-05,4.5776367e-05
2019-07-01T19:26:58.887Z,-0.002588624,-0.008520667,0.64189655,0.088531494,-0.15792847,9.805786,30.80597,6.842041,-37.919617,0.09554627,-0.14620121,9.805095,0.0011211112,-0.0021645278,0.00052165985,0.00010681152,0.00022888184,-1.5258789e-05
2019-07-01T19:26:59.080Z,-0.0026105216,-0.008534455,0.6419204,0.095718384,-0.13877869,9.815353,29.367065,6.8832397,-36.94763,0.09547332,-0.14670706,9.805088,0.00025248528,-0.0011772662,-0.0009355545,-1.5258789e-05,0.0,-7.6293945e-05
2019-07-01T19:26:59.284Z,-0.0026125207,-0.008519778,0.64191085,0.098098755,-0.14356995,9.800995,29.919434,6.9335938,-38.62152,0.0952293,-0.14655116,9.805093,-0.0007151887,0.0005837828,0.0013017654,-0.0001373291,-6.1035156e-05,-0.0001373291
2019-07-01T19:26:59.482Z,-0.0025573159,-0.008484104,0.64185,0.090927124,-0.1268158,9.805786,29.826355,6.6375732,-38.75122,0.09539948,-0.1452643,9.80511,0.0003253743,0.0026458055,-0.0010547638,0.00010681152,4.5776367e-05,-0.0001373291
2019-07-01T19:26:59.688Z,-0.0026325765,-0.008476886,0.6418919,0.071777344,-0.17706299,9.800995,30.230713,6.6619873,-38.537598,0.09433547,-0.14631043,9.805105,-0.0010091439,-0.0013391525,0.0005788803,-0.0002593994,0.000289917,-7.6293945e-05
2019-07-01T19:26:59.878Z,-0.0026643453,-0.008518581,0.6419425,0.095718384,-0.1603241,9.805786,30.792236,6.552124,-38.20343,0.094552726,-0.14731933,9.805088,0.0009169355,-0.0017518997,0.001657486,4.5776367e-05,0.00018310547,-1.5258789e-05
2019-07-01T19:27:00.100Z,-0.002623969,-0.008489329,0.64189565,0.090927124,-0.13160706,9.810577,29.373169,7.183838,-37.86621,0.09463023,-0.1463381,9.805101,0.00012935698,0.0013299733,-0.0014514923,0.00010681152,-0.00012207031,-0.00019836426
2019-07-01T19:27:00.284Z,-0.002515782,-0.008495219,0.6418321,0.095718384,-0.098098755,9.8033905,29.988098,6.4956665,-37.730408,0.09609288,-0.14477736,9.80511,0.0027236417,0.005280599,0.001698494,0.00016784668,-7.6293945e-05,-7.6293945e-05
2019-07-01T19:27:00.486Z,-0.0024887207,-0.008560361,0.6418631,0.08375549,-0.13639832,9.793823,29.93927,7.145691,-37.446594,0.09740727,-0.14519432,9.805092,0.0030890033,-0.0012470931,-0.00030612946,-1.5258789e-05,-0.00018310547,-0.00032043457
2019-07-01T19:27:00.701Z,-0.0026019402,-0.008567563,0.6419394,0.07417297,-0.18424988,9.786652,29.80194,7.5668335,-36.827087,0.09607555,-0.14699721,9.805078,-0.002500452,-0.0035280436,-0.0013227463,0.00010681152,0.00012207031,0.00010681152
2019-07-01T19:27:00.897Z,-0.002529977,-0.008615295,0.6419294,0.098098755,-0.1483612,9.805786,29.510498,6.5307617,-37.249756,0.097701244,-0.14651474,9.805069,0.002795428,0.0003015846,0.0011911392,4.5776367e-05,0.0,4.5776367e-05
2019-07-01T19:27:01.095Z,-0.0025852758,-0.008592199,0.64194703,0.095718384,-0.14356995,9.800995,29.432678,6.755066,-38.33618,0.096654296,-0.14705774,9.805071,-0.0014281571,-0.0003361255,0.0012741089,-1.5258789e-05,0.0,4.5776367e-05
2019-07-01T19:27:01.302Z,-0.0025903825,-0.00856014,0.64192665,0.093322754,-0.13639832,9.8033905,29.77295,6.9091797,-36.732483,0.09611188,-0.14672835,9.805081,-0.001103811,0.0007523149,-0.0021820068,-7.6293945e-05,0.00016784668,-1.5258789e-05
2019-07-01T19:27:01.505Z,-0.0025677104,-0.0085818255,0.64192843,0.095718384,-0.14596558,9.8033905,30.464172,6.4575195,-38.287354,0.09672309,-0.14666067,9.805077,0.0013841465,-0.00027905405,-0.00033855438,-1.5258789e-05,-6.1035156e-05,-7.6293945e-05
2019-07-01T19:27:01.709Z,-0.0025620132,-0.008572925,0.6419183,0.098098755,-0.15074158,9.7986145,30.352783,5.949402,-39.59503,0.09666292,-0.14646167,9.80508,0.00026155263,-1.0281801e-06,-0.0015106201,0.00016784668,0.00016784668,-7.6293945e-05
2019-07-01T19:27:01.897Z,-0.0025633469,-0.008552606,0.6419042,0.100494385,-0.14117432,9.805786,29.769897,7.0632935,-37.983704,0.09634331,-0.14622414,9.805087,-0.0006205514,0.00049605966,0.0023498535,0.00010681152,0.0,-0.0002593994
2019-07-01T19:27:02.116Z,-0.0025843391,-0.008542491,0.6419099,0.100494385,-0.15792847,9.793823,29.496765,6.4682007,-38.772583,0.095925815,-0.14641319,9.805088,-0.0006818697,-0.0007636994,-0.0019454956,-1.5258789e-05,0.00010681152,-0.0001373291
2019-07-01T19:27:02.320Z,-0.0025896614,-0.008538244,0.64191014,0.088531494,-0.1483612,9.805786,29.873657,5.834961,-38.313293,0.09579491,-0.14643979,9.805089,0.00015928596,-0.00025354326,0.0014066696,4.5776367e-05,-6.1035156e-05,-1.5258789e-05
2019-07-01T19:27:02.519Z,-0.002540494,-0.008516998,0.64186364,0.093322754,-0.14117432,9.808182,30.752563,5.8273315,-39.030457,0.096103296,-0.14542711,9.8051,0.0005667433,0.0018486828,0.0002965927,-1.5258789e-05,4.5776367e-05,4.5776367e-05
2019-07-01T19:27:02.717Z,-0.0025362256,-0.008531659,0.64187175,0.093322754,-0.14596558,9.805786,30.508423,7.4813843,-38.30719,0.096375965,-0.14554851,9.805097,0.0005379692,-0.00042517483,4.4822693e-05,0.00016784668,4.5776367e-05,-7.6293945e-05
2019-07-01T19:27:02.937Z,-0.0025437525,-0.008535624,0.6418794,0.102890015,-0.13877869,9.808182,29.403687,5.8654785,-36.92932,0.09633936,-0.14571257,9.805095,0.000102974474,-0.00026327372,-0.00029563904,-7.6293945e-05,-6.1035156e-05,-1.5258789e-05
2019-07-01T19:27:03.131Z,-0.0025702575,-0.008561356,0.64191496,0.093322754,-0.14117432,9.8033905,29.986572,6.4956665,-37.88147,0.09638579,-0.14643955,9.805082,0.00051862746,-0.0011981875,0.0022039413,-7.6293945e-05,0.00010681152,-1.5258789e-05
2019-07-01T19:27:03.336Z,-0.002594011,-0.008533743,0.64190954,0.088531494,-0.1531372,9.805786,30.093384,6.7840576,-36.46698,0.095672585,-0.14644846,9.80509,-0.0016430765,2.579391e-05,0.0013074875,-1.5258789e-05,4.5776367e-05,-1.5258789e-05
2019-07-01T19:27:03.538Z,-0.002600634,-0.0085201645,0.6419037,0.093322754,-0.14356995,9.810577,30.20935,5.845642,-36.738586,0.09538614,-0.14637639,9.805094,-0.0003971681,0.00042961538,0.0003938675,-7.6293945e-05,-6.1035156e-05,-0.0001373291
2019-07-01T19:27:03.730Z,-0.002613755,-0.008533652,0.6419218,0.093322754,-0.14596558,9.800995,30.482483,6.8969727,-38.424683,0.09542026,-0.14674576,9.805088,-0.00019210577,-0.00065115094,-0.0021266937,4.5776367e-05,-6.1035156e-05,4.5776367e-05
2019-07-01T19:27:03.945Z,-0.0025987125,-0.008507481,0.64189315,0.095718384,-0.1531372,9.808182,29.568481,6.3308716,-39.183044,0.09522162,-0.1461865,9.805099,8.895993e-06,0.0016546249,-0.0004606247,-7.6293945e-05,0.00016784668,-0.0001373291
2019-07-01T19:27:04.136Z,-0.0026175696,-0.008519441,0.6419138,0.100494385,-0.14117432,9.796219,30.706787,6.2454224,-37.05597,0.0951601,-0.14662321,9.805093,-0.00014929473,-0.0007914603,-0.0019044876,-0.0001373291,0.0,0.00010681152
2019-07-01T19:27:04.340Z,-0.0026004808,-0.008518339,0.64190227,0.093322754,-0.14596558,9.805786,30.027771,7.524109,-38.42926,0.09536089,-0.14635092,9.805095,0.00012219697,0.00084479153,0.000166893,4.5776367e-05,-7.6293945e-05,0.00016784668
2019-07-01T19:27:04.544Z,-0.0025485724,-0.008540728,0.6418862,0.107681274,-0.15792847,9.800995,29.501343,6.539917,-38.456726,0.096354134,-0.14585015,9.805092,0.0015249178,0.00083199143,-5.054474e-05,-7.6293945e-05,-0.00012207031,4.5776367e-05
2019-07-01T19:27:04.740Z,-0.0025789419,-0.008521569,0.6418911,0.098098755,-0.1651001,9.8033905,29.501343,6.387329,-37.731934,0.09568276,-0.1460663,9.805096,-0.001162827,9.0032816e-05,0.00044631958,-1.5258789e-05,0.00010681152,-1.5258789e-05
2019-07-01T19:27:04.961Z,-0.002560039,-0.008474257,0.64184445,0.093322754,-0.12921143,9.805786,29.777527,7.2113037,-38.02948,0.095218174,-0.14518061,9.805113,-0.0009269342,0.0011266917,-2.0980835e-05,0.00022888184,-0.00018310547,0.00016784668
2019-07-01T19:27:05.167Z,-0.0025090275,-0.008463106,0.6418043,0.102890015,-0.1531372,9.808182,29.785156,7.0510864,-36.099243,0.09570026,-0.14426807,9.805122,0.0007411316,0.0016506165,0.00030136108,-1.5258789e-05,0.0,4.5776367e-05
2019-07-01T19:27:05.364Z,-0.002497445,-0.008535203,0.64185005,0.100494385,-0.14356995,9.817749,29.418945,6.3079834,-37.519836,0.096921586,-0.14500716,9.8050995,0.002626665,-0.0016754419,0.0011663437,-7.6293945e-05,0.000289917,-7.6293945e-05
2019-07-01T19:27:05.569Z,-0.002412519,-0.008430742,0.64171994,0.06939697,-0.098098755,9.78186,29.200745,6.878662,-37.695312,0.096444115,-0.14239863,9.805142,0.00022149086,0.0052814037,-0.0001821518,0.00010681152,6.1035156e-05,0.00018310547
2019-07-01T19:27:05.755Z,-0.0025144545,-0.008543927,0.6418671,0.086135864,-0.15792847,9.796219,30.786133,6.4804077,-38.520813,0.096835405,-0.14537495,9.805095,0.0005530417,-0.0058651865,-0.0012388229,-0.0001373291,-6.1035156e-05,0.00022888184
2019-07-01T19:27:05.970Z,-0.0026090217,-0.008563027,0.6419405,0.08135986,-0.15553284,9.791428,30.647278,6.980896,-38.415527,0.09591796,-0.14704673,9.8050785,-0.0021028966,-0.0032513887,-0.0025844574,4.5776367e-05,6.1035156e-05,-0.00024414062
2019-07-01T19:27:06.166Z,-0.0024514138,-0.008472289,0.6417749,0.098098755,-0.117248535,9.805786,30.72815,6.907654,-37.826538,0.096569106,-0.14351346,9.805124,0.0017848238,0.006625712,0.0017824173,0.00022888184,4.5776367e-05,4.5776367e-05
2019-07-01T19:27:06.387Z,-0.0025319613,-0.008555276,0.6418865,0.095718384,-0.14117432,9.805786,30.033875,5.923462,-38.983154,0.096781984,-0.14578354,9.805089,0.00060524046,-0.0047376454,0.0010242462,-1.5258789e-05,0.00010681152,-0.00019836426
2019-07-01T19:27:06.570Z,-0.0025559338,-0.008552005,0.6418991,0.090927124,-0.12921143,9.8033905,29.530334,5.529785,-39.494324,0.09642857,-0.14610445,9.805088,0.00023881346,-0.00082691014,0.0005264282,-0.0001373291,0.00018310547,-1.5258789e-05
2019-07-01T19:27:06.771Z,-0.0025265485,-0.008470512,0.64182067,0.08135986,-0.110076904,9.8033905,30.400085,6.665039,-37.486267,0.09558796,-0.14462684,9.805118,-0.0010713041,0.0020125657,-0.0015745163,-1.5258789e-05,0.00010681152,4.5776367e-05
2019-07-01T19:27:06.986Z,-0.0025639732,-0.008531661,0.64188915,0.098098755,-0.1651001,9.808182,29.185486,6.893921,-39.80713,0.096023336,-0.14596799,9.805094,0.0008837506,-0.003108129,0.0010137558,4.5776367e-05,4.5776367e-05,0.00010681152
2019-07-01T19:27:07.184Z,-0.0025231289,-0.008437699,0.6417944,0.08375549,-0.12921143,9.7986145,30.941772,6.1920166,-37.530518,0.09514251,-0.14415911,9.805129,-0.0015754253,0.002984494,-0.00028419495,0.00016784668,4.5776367e-05,4.5776367e-05
2019-07-01T19:27:07.388Z,-0.0024564525,-0.00837831,0.64170885,0.098098755,-0.12921143,9.810577,29.237366,5.860901,-37.75482,0.09510464,-0.14239816,9.805155,0.00037556142,0.0031222552,-0.0011491776,4.5776367e-05,4.5776367e-05,0.00022888184
2019-07-01T19:27:07.594Z,-0.0025522667,-0.008511448,0.6418669,0.110076904,-0.14596558,9.808182,29.597473,6.8374634,-38.323975,0.095871,-0.1455347,9.8051,0.001048334,-0.0066728145,-0.0010824203,0.00022888184,6.1035156e-05,-0.0001373291
2019-07-01T19:27:07.787Z,-0.002465139,-0.00839681,0.6417279,0.08375549,-0.107681274,9.793823,30.822754,7.284546,-38.35907,0.095269985,-0.14276402,9.805148,-0.0012115091,0.005391851,-0.0015258789,0.00010681152,-0.00012207031,4.5776367e-05
2019-07-01T19:27:07.997Z,-0.002532173,-0.008489971,0.64183855,0.107681274,-0.1531372,9.805786,30.06134,6.124878,-36.601257,0.09580641,-0.14495862,9.805111,0.0011090487,-0.003886044,0.0023422241,-7.6293945e-05,6.1035156e-05,4.5776367e-05
2019-07-01T19:27:08.199Z,-0.0024462824,-0.008382866,0.6417058,0.093322754,-0.110076904,9.812973,29.45404,7.1136475,-37.509155,0.09530173,-0.14230216,9.805154,-0.0010048077,0.004694447,-0.0011577606,-1.5258789e-05,6.1035156e-05,0.00035095215
2019-07-01T19:27:08.402Z,-0.0024776005,-0.008393751,0.64173347,0.095718384,-0.14356995,9.810577,29.873657,5.760193,-37.95166,0.09506611,-0.14291365,9.805148,0.00017734617,-0.0018665493,-0.00013637543,0.00010681152,-6.1035156e-05,0.00016784668
2019-07-01T19:27:08.599Z,-0.0025227142,-0.008415534,0.6417778,0.086135864,-0.15553284,9.800995,29.092407,6.2164307,-37.599182,0.09481754,-0.14387184,9.805137,-0.00029792637,-0.0025768876,0.0013399124,0.000289917,0.00012207031,0.00010681152
2019-07-01T19:27:08.802Z,-0.0024399636,-0.0084069725,0.64171964,0.086135864,-0.06460571,9.812973,30.030823,7.521057,-38.05237,0.09574126,-0.14251223,9.805147,0.001639694,0.0025290698,0.001534462,0.00010681152,0.0,-1.5258789e-05
2019-07-01T19:27:09.003Z,-0.0025513251,-0.008443156,0.6418161,0.088531494,-0.16989136,9.8033905,30.239868,6.806946,-38.28125,0.09486555,-0.14465456,9.805124,-0.0017780885,-0.0044373125,-0.0020093918,-7.6293945e-05,0.0,0.00012207031
2019-07-01T19:27:09.211Z,-0.0024989557,-0.008422479,0.64176804,0.088531494,-0.08375549,9.810577,30.09491,7.2372437,-38.490295,0.095222875,-0.1436007,9.805137,0.0007313788,0.0016986728,0.0004081726,-1.5258789e-05,0.0,4.5776367e-05
2019-07-01T19:27:09.406Z,-0.002517924,-0.008438976,0.64179206,0.100494385,-0.19621277,9.8033905,30.006409,6.8588257,-37.506104,0.09522768,-0.14409661,9.805129,1.0333955e-05,-0.0011637658,-0.00020694733,0.00016784668,4.5776367e-05,0.00016784668
2019-07-01T19:27:09.625Z,-0.0024824992,-0.008462822,0.6417874,0.08375549,-0.16749573,9.800995,30.467224,6.303406,-37.18567,0.09603309,-0.1438634,9.805124,0.0020871907,0.0007570833,0.00034046173,-0.0001373291,0.00012207031,0.00010681152
2019-07-01T19:27:09.814Z,-0.002480808,-0.008470953,0.64179236,0.13639832,-0.20578003,9.815353,29.632568,7.5653076,-37.95166,0.096175745,-0.14394094,9.805122,1.3709068e-05,-0.0005873889,0.0016698837,0.00010681152,4.5776367e-05,0.00022888184
2019-07-01T19:27:10.029Z,-0.0025654556,-0.00847563,0.64184886,0.08375549,-0.18424988,9.800995,30.630493,6.541443,-38.20038,0.09516979,-0.1452799,9.805112,-0.0013713837,-0.002368167,-0.0009622574,-7.6293945e-05,0.00012207031,-0.0001373291
2019-07-01T19:27:10.231Z,-0.0024767772,-0.0083749015,0.6417191,0.117248535,-0.117248535,9.805786,30.453491,6.088257,-37.60681,0.09479566,-0.14266224,9.805154,-0.00027814507,0.0050668567,-0.00032901764,0.00016784668,4.5776367e-05,0.00010681152
2019-07-01T19:27:10.432Z,-0.0024918523,-0.008445857,0.6417808,0.093322754,-0.13877869,9.812973,29.615784,7.2753906,-38.38806,0.095661476,-0.14378971,9.805129,0.0012556687,-0.002417639,-0.00085926056,-0.0002593994,-0.00012207031,-0.0002593994
2019-07-01T19:27:10.637Z,-0.0025361378,-0.008464154,0.64182204,0.071777344,-0.1603241,9.784256,30.0354,5.770874,-37.954712,0.09537138,-0.1446912,9.8051195,-0.00013077259,-0.00057314336,-0.00040531158,-7.6293945e-05,0.00012207031,-7.6293945e-05
2019-07-01T19:27:10.827Z,-0.0025769833,-0.008576478,0.6419303,0.100494385,-0.117248535,9.812973,29.577637,6.3964844,-38.186646,0.09652556,-0.14673302,9.805078,0.0027854443,-0.004507169,0.00068187714,4.5776367e-05,0.00018310547,0.00016784668
2019-07-01T19:27:11.046Z,-0.0023928795,-0.008406539,0.6416898,0.102890015,-0.102890015,9.808182,30.19104,5.709839,-38.201904,0.09633289,-0.14179483,9.805152,-0.0001354292,0.009705827,0.000289917,4.5776367e-05,-6.1035156e-05,0.00018310547
2019-07-01T19:27:11.242Z,-0.0025035536,-0.008486436,0.641818,0.093322754,-0.1531372,9.800995,29.2984,7.0983887,-36.976624,0.09611741,-0.14448112,9.805115,-0.000884898,-0.0053180307,0.00067329407,-1.5258789e-05,-0.00012207031,4.5776367e-05
2019-07-01T19:27:11.444Z,-0.0024979357,-0.008495565,0.6418212,0.093322754,-0.15074158,9.808182,30.506897,7.25708,-37.446594,0.0963248,-0.14451194,9.805112,0.0008264631,-0.0004901737,0.0007715225,0.00016784668,0.00016784668,-1.5258789e-05
2019-07-01T19:27:11.637Z,-0.0024994472,-0.008489849,0.6418179,0.105285645,-0.14596558,9.805786,29.425049,6.6085815,-38.365173,0.09622044,-0.14446232,9.805114,-2.9057264e-05,-6.890297e-05,-0.00029087067,4.5776367e-05,0.0,4.5776367e-05
2019-07-01T19:27:11.843Z,-0.0025060326,-0.008472897,0.6418096,0.088531494,-0.15074158,9.8033905,29.890442,6.123352,-37.878418,0.09588418,-0.14434692,9.805119,-0.0011292621,-0.00018106401,0.00044631958,-1.5258789e-05,-6.1035156e-05,0.00022888184
2019-07-01T19:27:12.061Z,-0.0024889475,-0.008443683,0.64177734,0.088531494,-0.124420166,9.805786,30.046082,5.987549,-37.760925,0.09566599,-0.14371823,9.80513,-0.0009053871,0.0015773028,-0.0011339188,-0.0001373291,-6.1035156e-05,0.00016784668
2019-07-01T19:27:12.261Z,-0.0024534015,-0.008458596,0.6417661,0.102890015,-0.12921143,9.805786,28.955078,6.715393,-37.34131,0.09633982,-0.1433699,9.805129,0.0017759353,0.0007586628,0.00036144257,0.00010681152,0.0,0.00022888184
2019-07-01T19:27:12.457Z,-0.00251045,-0.008466754,0.64180785,0.095718384,-0.1531372,9.7986145,30.705261,6.3980103,-38.157654,0.095736526,-0.14433582,9.80512,-0.00026024133,-0.0016328245,-8.678436e-05,-7.6293945e-05,0.00024414062,0.00010681152
2019-07-01T19:27:12.655Z,-0.002474574,-0.008441033,0.64176637,0.095718384,-0.14117432,9.796219,29.246521,6.1569214,-38.072205,0.09580912,-0.14346732,9.805133,-8.830428e-05,0.001328066,-5.9127808e-05,4.5776367e-05,0.0,4.5776367e-05
2019-07-01T19:27:12.865Z,-0.0024993613,-0.0084598595,0.6417958,0.090927124,-0.1531372,9.800995,30.01709,7.1533203,-37.74872,0.09577471,-0.14408077,9.805124,-5.45606e-05,-0.00092613697,0.00012493134,-1.5258789e-05,-6.1035156e-05,0.00022888184
2019-07-01T19:27:13.061Z,-0.0024712058,-0.008485087,0.6417967,0.098098755,-0.119644165,9.810577,30.093384,6.932068,-36.96747,0.09650834,-0.14397497,9.805119,-0.0005571991,-0.0010350794,0.00058841705,0.00022888184,-7.6293945e-05,-1.5258789e-05
2019-07-01T19:27:13.260Z,-0.0024743367,-0.008490935,0.64180297,0.090927124,-0.1483612,9.796219,29.949951,7.437134,-37.538147,0.09655568,-0.14409645,9.805116,0.00010750443,-0.00043295324,0.0010328293,0.00010681152,0.0,0.00016784668
2019-07-01T19:27:13.471Z,-0.002453774,-0.00850428,0.6417999,0.098098755,-0.15074158,9.7986145,29.13971,7.38678,-37.817383,0.097015806,-0.1439548,9.805114,0.0010901615,0.00037415326,-0.0017118454,4.5776367e-05,-0.00012207031,0.00024414062
2019-07-01T19:27:13.672Z,-0.0024968758,-0.008508213,0.64182985,0.093322754,-0.14356995,9.8033905,30.581665,7.1899414,-37.763977,0.09652671,-0.1446563,9.805108,-0.000323385,-0.0010830015,-0.0009794235,-0.0001373291,0.00022888184,0.00018310547
2019-07-01T19:27:13.878Z,-0.0024476673,-0.008528749,0.64181405,0.100494385,-0.13400269,9.800995,29.933167,7.0739746,-37.838745,0.09745797,-0.14417274,9.805105,0.0011459365,0.0003336966,-0.0009794235,4.5776367e-05,0.0,0.00010681152
2019-07-01T19:27:14.079Z,-0.0024485923,-0.008400848,0.64172053,0.088531494,-0.114852905,9.7986145,30.683899,6.265259,-39.920044,0.09554037,-0.14256504,9.805148,-0.003165044,0.0032773763,0.000626564,4.5776367e-05,-1.5258789e-05,0.00016784668
2019-07-01T19:27:14.273Z,-0.0024606984,-0.008447093,0.64176214,0.100494385,-0.13400269,9.810577,29.589844,6.767273,-38.641357,0.096075706,-0.14333437,9.805132,0.000607498,-0.0014537722,-0.0010147095,4.5776367e-05,0.0,0.00022888184
2019-07-01T19:27:14.484Z,-0.0024694982,-0.008419624,0.6417475,0.093322754,-0.15074158,9.805786,30.329895,7.0343018,-38.31482,0.09555458,-0.14311916,9.8051405,-0.0010273233,0.00024491549,0.0009098053,-1.5258789e-05,-0.00012207031,0.00030517578
2019-07-01T19:27:14.684Z,-0.0024611037,-0.00837961,0.6417127,0.102890015,-0.12921143,9.810577,29.344177,6.600952,-38.285828,0.09506493,-0.14248496,9.805154,-0.0010189787,0.001774624,0.0017280579,-0.00019836426,0.00016784668,4.5776367e-05
2019-07-01T19:27:14.889Z,-0.0024873186,-0.008423517,0.6417615,0.098098755,-0.14117432,9.8033905,30.46875,6.60553,-38.48419,0.0953862,-0.14343794,9.805138,0.0010581315,-0.0020678192,-0.00059986115,0.00010681152,-7.6293945e-05,4.5776367e-05
2019-07-01T19:27:15.094Z,-0.0025011648,-0.008437675,0.6417806,0.095718384,-0.15553284,9.810577,30.227661,6.4346313,-37.45117,0.09542125,-0.14382677,9.805131,-0.00016673654,-0.0007182658,-8.2969666e-05,0.00010681152,0.0,0.00010681152
2019-07-01T19:27:15.290Z,-0.0025045113,-0.008404359,0.64175814,0.088531494,-0.15074158,9.808182,29.185486,6.3598633,-36.817932,0.09488229,-0.14345497,9.805141,-0.001075536,0.0003414601,-0.00037288666,-1.5258789e-05,0.0,4.5776367e-05
2019-07-01T19:27:15.505Z,-0.0024779001,-0.00839098,0.6417316,0.095718384,-0.14356995,9.808182,29.684448,7.0632935,-38.583374,0.095021,-0.14288305,9.805149,0.00046162307,0.00049068034,0.00054073334,0.00010681152,4.5776367e-05,0.00012207031
2019-07-01T19:27:15.698Z,-0.002501004,-0.008401027,0.6417535,0.098098755,-0.15553284,9.8033905,30.615234,6.173706,-38.050842,0.0948772,-0.1433597,9.805143,0.00012591481,-0.00068612397,0.001326561,0.00010681152,-6.1035156e-05,-1.5258789e-05
2019-07-01T19:27:15.897Z,-0.002492168,-0.008375036,0.6417288,0.095718384,-0.13639832,9.810577,29.646301,6.111145,-38.09662,0.094602145,-0.14289664,9.805153,-0.0005583614,0.0002821535,-0.0004005432,0.00010681152,-6.1035156e-05,-7.6293945e-05
2019-07-01T19:27:16.115Z,-0.002494368,-0.008385961,0.64173824,0.088531494,-0.14117432,9.808182,29.664612,6.2469482,-36.709595,0.094737,-0.14306839,9.805149,2.8304756e-05,-0.00026983023,-0.0009069443,4.5776367e-05,-6.1035156e-05,0.00018310547
2019-07-01T19:27:16.301Z,-0.002508909,-0.008384543,0.64174634,0.086135864,-0.14356995,9.805786,29.597473,6.8359375,-38.17444,0.09453113,-0.14327024,9.805148,0.0004811734,-0.0005606413,-0.0006084442,4.5776367e-05,0.00022888184,0.00022888184
2019-07-01T19:27:16.496Z,-0.0025249938,-0.008419178,0.6417819,0.098098755,-0.14117432,9.805786,30.055237,7.9559326,-37.361145,0.09484287,-0.1439525,9.805135,0.00064042956,-0.0015385449,0.0003976822,-0.0001373291,0.0,0.00022888184
2019-07-01T19:27:16.709Z,-0.0024902045,-0.008409187,0.6417528,0.098098755,-0.13639832,9.8033905,28.788757,6.7092896,-38.015747,0.095135994,-0.14329988,9.8051405,0.00010821968,0.001616016,-0.0010137558,4.5776367e-05,-0.00012207031,0.00010681152
2019-07-01T19:27:16.988Z,-0.0024768477,-0.008346389,0.6416981,0.098098755,-0.1531372,9.800995,29.437256,6.6741943,-37.295532,0.09456724,-0.14394167,9.805138,-0.0015217885,0.0018242449,0.00012683868,4.5776367e-05,0.0,0.000289917
2019-07-01T19:27:17.187Z,-0.002520605,-0.00838479,0.64175385,0.086135864,-0.13877869,9.810577,28.590393,7.183838,-35.343933,0.09438623,-0.1434502,9.805147,-0.0005825013,0.0005853325,-0.00021362305,-7.6293945e-05,-0.00012207031,0.00030517578
2019-07-01T19:27:17.382Z,-0.0025292882,-0.00834871,0.64173275,0.07896423,-0.14356995,9.8033905,28.89862,7.293701,-37.449646,0.09373826,-0.14312409,9.805158,-0.0011209771,0.0007264912,-0.00077342987,-7.6293945e-05,0.0,0.00016784668
2019-07-01T19:27:17.578Z,-0.00254995,-0.008395378,0.6417801,0.095718384,-0.1483612,9.800995,28.648376,6.9839478,-37.121582,0.094171144,-0.14402802,9.80514,0.00013391674,-0.0017255396,-0.0019578934,0.00016784668,0.0,-0.0001373291
2019-07-01T19:27:17.776Z,-0.00250127,-0.008369104,0.6417302,0.090927124,-0.13877869,9.800995,30.0354,5.770874,-38.1073,0.0943981,-0.14295903,9.805153,0.0006297976,0.0019884557,-0.0011434555,-0.0001373291,-0.00012207031,0.00010681152
2019-07-01T19:27:17.978Z,-0.0024653475,-0.008405613,0.64173454,0.095718384,-0.14117432,9.8033905,30.13153,6.2164307,-38.09662,0.09539851,-0.14287876,9.805144,0.0015368611,0.0014201552,3.9100647e-05,-1.5258789e-05,-6.1035156e-05,0.00030517578
2019-07-01T19:27:18.181Z,-0.002529636,-0.008425161,0.64178926,0.088531494,-0.13877869,9.808182,29.56543,7.698059,-36.86371,0.094873026,-0.14409852,9.805132,-0.0015223026,-0.002138421,-0.0002861023,-0.00019836426,0.0,0.00010681152
2019-07-01T19:27:18.373Z,-0.0024985985,-0.008401239,0.6417522,0.090927124,-0.13160706,9.810577,30.227661,6.3598633,-37.313843,0.09491092,-0.14332603,9.805143,-0.0001263544,0.0016219318,0.00012588501,-1.5258789e-05,-0.00018310547,0.00035095215
2019-07-01T19:27:18.573Z,-0.0024704065,-0.008381286,0.6417198,0.098098755,-0.12921143,9.808182,30.154419,6.730652,-38.52234,0.094971724,-0.14264685,9.805152,0.00053042173,0.00094234943,-7.1525574e-05,-7.6293945e-05,4.5776367e-05,0.00022888184
2019-07-01T19:27:18.770Z,-0.0024651028,-0.008427382,0.6417504,0.107681274,-0.13400269,9.800995,29.658508,6.404114,-38.339233,0.09572604,-0.14315107,9.805139,0.0016845465,-0.0011793971,-0.0002117157,4.5776367e-05,4.5776367e-05,-1.5258789e-05
2019-07-01T19:27:18.965Z,-0.002481505,-0.008384782,0.64172935,0.088531494,-0.124420166,9.7986145,29.542542,5.670166,-38.560486,0.094882846,-0.14285898,9.805151,-0.0008087978,0.00042784214,-0.0011014938,0.00010681152,4.5776367e-05,-1.5258789e-05
2019-07-01T19:27:19.161Z,-0.0023852398,-0.008412612,0.6416895,0.08375549,-0.1651001,9.8033905,29.615784,7.2753906,-38.237,0.09652043,-0.1417563,9.80515,0.0037676692,0.0022272468,0.0024585724,0.00016784668,0.00016784668,0.00016784668
2019-07-01T19:27:19.358Z,-0.0024532543,-0.008463828,0.6417698,0.100494385,-0.14596558,9.800995,29.832458,6.555176,-37.409973,0.096419655,-0.14343402,9.805128,-0.0006704554,-0.0023332536,-0.001701355,-0.00019836426,6.1035156e-05,-1.5258789e-05
2019-07-01T19:27:19.564Z,-0.0025316514,-0.008483339,0.6418333,0.093322754,-0.15553284,9.796219,30.210876,6.147766,-38.26294,0.09571423,-0.14486663,9.805113,-0.0014011487,-0.0020889193,0.0003042221,-0.0002593994,0.0,0.00030517578
2019-07-01T19:27:19.819Z,-0.002474116,-0.008450734,0.6417732,0.090927124,-0.13160706,9.800995,30.610657,5.9509277,-37.56714,0.0959595,-0.1435834,9.805129,1.5325844e-05,0.0030850172,0.00035953522,-0.0001373291,-0.00012207031,-7.6293945e-05
2019-07-01T19:27:20.011Z,-0.0024534352,-0.008428386,0.64174384,0.105285645,-0.14117432,9.800995,30.215454,6.0684204,-37.22229,0.09588922,-0.14298739,9.805139,-0.00038151443,0.0008018613,-0.0011959076,-7.6293945e-05,-6.1035156e-05,-7.6293945e-05
2019-07-01T19:27:20.219Z,-0.0024726472,-0.008430986,0.6417578,0.100494385,-0.1531372,9.7986145,30.464172,6.3064575,-37.487793,0.09568387,-0.1433108,9.805136,-0.0008872226,-0.001035586,-0.0012760162,0.00010681152,-0.00018310547,0.00022888184
2019-07-01T19:27:20.414Z,-0.0024972977,-0.008459861,0.6417945,0.090927124,-0.1483612,9.800995,30.17273,7.015991,-37.557983,0.09580096,-0.1440496,9.805124,0.00041854382,-0.0005239099,0.0023479462,-1.5258789e-05,4.5776367e-05,-7.6293945e-05
2019-07-01T19:27:20.615Z,-0.002473889,-0.008496807,0.641807,0.100494385,-0.15074158,9.808182,29.496765,6.164551,-37.0224,0.09664887,-0.14416414,9.805114,0.00077486783,-0.00016307831,0.00028705597,-0.00032043457,-6.1035156e-05,-1.5258789e-05
2019-07-01T19:27:20.835Z,-0.0025051762,-0.008470008,0.6418069,0.102890015,-0.1483612,9.810577,30.549622,6.5353394,-38.04779,0.09585203,-0.14429736,9.80512,-0.0015554503,-8.59797e-06,0.0029087067,0.00016784668,-0.00030517578,0.00016784668
2019-07-01T19:27:21.030Z,-0.0025185866,-0.008499783,0.64183724,0.112457275,-0.13160706,9.805786,29.924011,6.929016,-38.0188,0.09612524,-0.14487763,9.805108,0.00055312365,-0.00062067807,-0.0002965927,-0.0001373291,6.1035156e-05,0.00016784668
2019-07-01T19:27:21.233Z,-0.00258422,-0.008526673,0.6418982,0.102890015,-0.1531372,9.810577,30.2948,6.149292,-37.81433,0.09569171,-0.1462108,9.805094,-0.00021056086,-0.0021609515,0.0013999939,-0.0002593994,0.00010681152,0.00010681152
2019-07-01T19:27:21.433Z,-0.0025688845,-0.008520869,0.6418843,0.105285645,-0.1268158,9.815353,30.371094,6.236267,-38.85498,0.095800154,-0.14590538,9.805097,0.0003951639,0.0004221201,0.0006170273,4.5776367e-05,0.00010681152,-7.6293945e-05
2019-07-01T19:27:21.633Z,-0.0025165046,-0.008454645,0.6418027,0.105285645,-0.13400269,9.808182,30.621338,6.323242,-38.397217,0.09547919,-0.14427383,9.805124,-0.00047034025,0.0038051456,-0.000705719,4.5776367e-05,0.00010681152,-7.6293945e-05
2019-07-01T19:27:21.828Z,-0.0025486732,-0.008461754,0.6418281,0.098098755,-0.1531372,9.800995,28.04718,6.1431885,-37.268066,0.09517634,-0.14485027,9.805119,-0.0006589666,-0.0006337762,0.00065135956,-0.0002593994,-7.6293945e-05,4.5776367e-05
2019-07-01T19:27:22.031Z,-0.0025609732,-0.008492015,0.6418581,0.095718384,-0.14356995,9.808182,29.200745,6.878662,-37.846375,0.09547087,-0.14541991,9.805107,0.0009793118,-0.0012851208,-0.0021209717,-1.5258789e-05,0.00010681152,-7.6293945e-05
2019-07-01T19:27:22.247Z,-0.0025493065,-0.008446232,0.6418171,0.095718384,-0.14117432,9.793823,29.904175,6.414795,-37.669373,0.094937034,-0.14466304,9.805123,-0.0006461218,0.0010826439,0.0016145706,4.5776367e-05,0.00010681152,0.00010681152
2019-07-01T19:27:22.445Z,-0.0025014817,-0.008438789,0.6417816,0.095718384,-0.1483612,9.805786,30.867004,6.335449,-37.87384,0.09543382,-0.14384568,9.805131,0.00051980466,0.0009833127,0.000118255615,0.00022888184,-6.1035156e-05,-1.5258789e-05
2019-07-01T19:27:22.651Z,-0.0024970921,-0.00843183,0.64177376,0.095718384,-0.1483612,9.810577,30.004883,7.0114136,-38.458252,0.0953859,-0.1436911,9.805134,0.00033461303,0.00036208332,0.00087070465,4.5776367e-05,-6.1035156e-05,4.5776367e-05
2019-07-01T19:27:22.856Z,-0.002524681,-0.00841042,0.6417753,0.102890015,-0.14117432,9.800995,29.214478,7.246399,-38.1485,0.09471635,-0.14383674,9.805138,-0.0011599734,-0.00045755506,-0.00053977966,-7.6293945e-05,0.000289917,4.5776367e-05
2019-07-01T19:27:23.057Z,-0.0024847568,-0.008414744,0.64175344,0.102890015,-0.14117432,9.808182,29.527283,6.7459106,-36.453247,0.09528802,-0.14328799,9.8051405,0.0009076148,0.0013901442,0.000120162964,-1.5258789e-05,0.0,4.5776367e-05
2019-07-01T19:27:23.255Z,-0.002525278,-0.0084272055,0.641788,0.095718384,-0.13877869,9.8033905,30.299377,6.451416,-38.885498,0.09495887,-0.14405857,9.805133,-0.0006633401,-0.0019244105,-0.0015192032,-1.5258789e-05,-0.00024414062,0.00016784668
2019-07-01T19:27:23.460Z,-0.0024940053,-0.008429952,0.6417704,0.095718384,-0.12921143,9.796219,30.316162,6.663513,-37.861633,0.09539712,-0.1436206,9.805134,0.0005720332,0.0012078881,-0.0021190643,4.5776367e-05,4.5776367e-05,4.5776367e-05
2019-07-01T19:27:23.666Z,-0.0025501458,-0.008470108,0.6418352,0.110076904,-0.16989136,9.82254,31.240845,10.710144,-34.95941,0.09528208,-0.14497845,9.805116,-0.0005103797,-0.002443701,0.001458168,-7.6293945e-05,0.0,4.5776367e-05
2019-07-01T19:27:23.868Z,-0.17731021,0.25946727,0.49177596,-12.315857,-2.2468567,14.366501,46.481323,4.2800903,-14.923096,-5.8426523,-0.3212971,7.869598,1.2067227,-2.346826,5.593484,-0.12168884,-0.0060577393,-0.15107727
2019-07-01T19:27:24.072Z,-0.12658249,0.5070772,0.4368027,-0.22013855,-0.1483612,0.91645813,47.276306,-3.0273438,-6.25,-8.36608,2.5264776,4.449269,3.5926638,-2.7499166,0.77548933,2.1065826,3.7432861,-1.3096008
2019-07-01T19:27:24.273Z,0.056519166,0.28182146,0.4132586,-6.8027954,2.4023895,1.4524384,38.81378,-4.347229,-21.272278,-4.317939,3.2421,8.186244,-1.4625959,0.95936894,-5.360528,0.647995,1.8737793,1.2658234
2019-07-01T19:27:24.477Z,0.01599253,0.13636477,0.41234043,-0.94277954,-0.16749573,13.036102,27.267456,4.1641235,-33.110046,-1.6088845,2.0045693,9.463804,0.8138366,-0.24753606,2.6680565,-0.3063507,-1.5824585,1.3804932
2019-07-01T19:27:24.672Z,0.18816929,0.0328569,0.53257334,1.4237366,4.811966,9.772293,23.22998,-6.500244,-36.776733,1.4341611,3.386299,9.091014,-0.7872231,-0.16343832,-0.566761,0.82925415,-0.53671265,0.22483826
2019-07-01T19:27:24.870Z,0.29625198,0.05376001,0.46923962,0.8877411,6.305084,6.364914,11.639404,-11.6241455,-39.61029,1.8511813,5.3183746,8.028599,-0.47850525,0.42411566,-1.624165,0.7610779,-1.2959595,-0.092803955
2019-07-01T19:27:25.048Z,0.2620333,0.11593799,0.48866484,0.114852905,5.6733856,6.4654083,10.665894,-17.454529,-38.56964,0.6375223,5.346401,8.196339,-0.3225307,0.4709978,-1.267519,0.32559204,0.34709167,-0.3629303
2019-07-01T19:27:25.246Z,0.22243108,0.09050695,0.51112115,1.0839539,4.9124603,9.209976,15.940857,-16.908264,-35.80475,0.7648323,4.507687,8.675609,-0.1533755,0.8447542,-0.15243721,-0.15449524,0.5295563,0.1552124
2019-07-01T19:27:25.582Z,0.23434386,0.077974156,0.51354665,1.2705841,4.3262177,8.913269,13.491821,-14.002991,-36.320496,1.103665,4.562356,8.610298,-0.0710485,0.20663929,0.43174362,-0.417099,-0.19389343,0.09814453
2019-07-01T19:27:25.762Z,0.2621106,0.07134217,0.5127649,1.134201,4.9292145,8.597412,13.804626,-13.745117,-38.771057,1.4964672,4.904305,8.359352,-0.541446,0.39336443,0.015226364,0.12461853,-0.16584778,0.051361084
2019-07-01T19:27:25.967Z,0.2423245,0.081157714,0.5453971,1.1820526,6.12323,6.8841553,12.472534,-16.299438,-40.522766,1.3214922,4.6621494,8.52575,0.094879866,0.84458876,-0.6301079,0.20573425,-0.15785217,0.18092346
2019-07-01T19:27:26.087Z,0.21352157,0.08845881,0.5724452,0.35414124,4.634903,9.140579,14.511108,-15.727234,-40.41443,1.0324292,4.2877483,8.758978,-0.02769041,0.28618097,0.18523312,-0.33891296,0.5973053,0.25068665
2019-07-01T19:27:26.292Z,0.19989654,0.09864292,0.6054924,0.114852905,4.759323,8.863022,15.9591675,-15.931702,-39.230347,0.8957989,4.1668005,8.832084,-0.35089928,0.54016256,-0.33401203,-0.0143585205,0.11953735,0.24873352
2019-07-01T19:27:26.497Z,0.16765964,0.11662046,0.65692836,0.3756714,3.797409,9.303299,17.60254,-16.912842,-39.648438,0.50016505,3.8891766,8.988578,0.19401732,0.46505117,0.13235188,-0.13702393,0.34268188,0.4828186
2019-07-01T19:27:26.703Z,0.1550484,0.14813676,0.700376,1.4333038,3.998413,9.729218,18.261719,-18.86139,-36.750793,0.15181924,4.105229,8.904742,0.05145827,0.2494812,0.07509041,0.014160156,0.41697693,0.45635986
2019-07-01T19:27:26.907Z,0.16692002,0.14379713,0.7371501,0.28234863,4.6085815,8.209778,19.006348,-20.87555,-33.415222,0.6116799,4.170359,8.854622,-0.14288408,0.23940563,-0.00045776367,0.09461975,0.21147156,0.5018158
2019-07-01T19:27:27.112Z,0.14142141,0.16442233,0.77610165,0.5359955,4.2927246,9.454041,16.845703,-22.329712,-33.850098,0.24312873,4.14527,8.884145,0.31598592,0.22651339,-0.00349617,-0.005508423,0.38093567,0.45178223
2019-07-01T19:27:27.317Z,0.107942335,0.19990267,0.80823076,-0.45703125,5.201996,7.733597,17.462158,-25.07019,-32.165527,-0.41894585,4.319047,8.794355,0.2664669,0.3009944,0.28561115,0.09449768,0.44421387,0.39619446
2019-07-01T19:27:27.522Z,0.12760076,0.19208497,0.82526004,0.6963043,3.7926178,10.308273,18.707275,-26.768494,-28.18451,0.12315141,4.3992944,8.763642,-0.043979764,-0.15646458,0.27155113,0.17463684,-0.13757324,0.22135925
2019-07-01T19:27:27.727Z,0.13458087,0.2155721,0.8307952,0.5240326,5.067993,7.7359924,16.668701,-28.933716,-29.751587,0.09931667,4.819714,8.539957,0.4868426,0.12851334,-0.43099308,0.16651917,0.21777344,0.14976501
2019-07-01T19:27:27.932Z,0.1284683,0.23896575,0.8337098,0.114852905,5.0392914,8.994614,16.752625,-29.388428,-26.67389,-0.15351044,5.1193805,8.36294,0.2553612,0.11797285,0.21515846,0.04525757,0.12754822,0.030227661
2019-07-01T19:27:28.137Z,0.11639095,0.21973881,0.83943814,-0.16270447,4.823929,8.994614,16.633606,-30.26886,-26.924133,-0.16634993,4.720937,8.593921,0.32192588,0.23840904,-0.43157578,0.010192871,0.078552246,-0.04319763
2019-07-01T19:27:28.342Z,0.12357377,0.22608197,0.8321415,0.8829498,5.0321045,9.111862,15.99884,-30.020142,-27.000427,-0.16068894,4.880112,8.50465,-0.16426472,0.3131199,-0.002521515,-0.24588013,-0.35229492,-0.15742493
2019-07-01T19:27:28.548Z,0.12994064,0.20551842,0.8252566,0.088531494,5.1134644,8.260025,17.906189,-28.425598,-28.489685,0.04853416,4.6256137,8.647065,0.2562577,0.15817356,0.27513123,0.17152405,-0.003967285,-0.22096252
2019-07-01T19:27:28.752Z,0.13697724,0.22635515,0.8075913,-0.17706299,5.30011,8.705093,17.76886,-28.001404,-28.019714,-0.17028467,5.0013576,8.43373,0.12664221,0.11821842,-0.115489006,0.1313324,-0.09022522,-0.31002808
2019-07-01T19:27:28.970Z,0.15056697,0.23346415,0.7816263,-0.22492981,5.264206,8.291138,18.766785,-28.947449,-28.858948,-0.24898577,5.2282834,8.292975,0.06592406,0.073329926,0.013924599,0.05619812,-0.2717743,-0.4543152
2019-07-01T19:27:29.162Z,0.16169983,0.2229314,0.7525115,-0.31106567,5.3862457,8.140381,20.207214,-27.093506,-30.049133,-0.22915515,5.187569,8.319075,0.035585463,0.14677858,-0.0023622513,0.03517151,-0.29577637,-0.4695282
2019-07-01T19:27:29.327Z,0.17477019,0.21575543,0.7201663,-0.3134613,5.3814545,8.011169,20.67566,-25.299072,-31.513977,-0.22197835,5.226983,8.294562,-0.005404949,0.14965725,0.012871742,0.05809021,-0.30506897,-0.48760986
2019-07-01T19:27:29.530Z,0.18899998,0.20934919,0.68304205,-0.275177,5.3192444,8.271988,20.06073,-23.092651,-30.284119,-0.23435651,5.302031,8.24645,-0.07824141,0.100233555,-0.012937546,0.020950317,-0.32461548,-0.47636414
2019-07-01T19:27:29.732Z,0.20162727,0.20289451,0.6467622,-0.73698425,5.6757812,7.8508453,21.79718,-21.64917,-32.17621,-0.2558715,5.3697143,8.201895,-0.022830784,0.055173874,0.015069962,0.09870911,-0.21612549,-0.43196106
2019-07-01T19:27:29.933Z,0.21528788,0.2053357,0.61691606,-0.107681274,5.498703,8.513657,21.22345,-19.854736,-33.372498,-0.32949117,5.561161,8.070645,-0.10551709,0.041889668,0.03226185,0.111968994,-0.30989075,-0.3493042
2019-07-01T19:27:30.135Z,0.22763318,0.19062917,0.58651894,-0.63409424,6.0873413,7.6785736,18.640137,-18.203735,-33.309937,-0.19883248,5.5572486,8.077613,-0.11827771,0.12084198,-0.102113724,0.1494751,-0.252594,-0.33892822
2019-07-01T19:27:30.346Z,0.24312252,0.19578905,0.56182367,-0.61016846,5.44606,8.487335,18.095398,-19.473267,-34.150696,-0.26286533,5.8105493,7.8954926,-0.18039516,0.09351921,-0.24601412,-0.21166992,-0.08534241,-0.19732666
2019-07-01T19:27:30.542Z,0.2240492,0.1709009,0.5431953,0.14356995,5.414963,8.824738,18.893433,-15.538025,-36.476135,-0.2640778,5.2962694,8.249252,-0.12043205,0.2550316,0.14928722,-0.10635376,-0.24110413,-0.24118042
2019-07-01T19:27:30.746Z,0.24389419,0.16445656,0.5268071,-0.20578003,5.5322113,8.154739,17.834473,-15.98053,-35.54077,-0.05222026,5.5139456,8.109505,-0.02987349,-0.014965057,-0.109978676,0.08135986,-0.08387756,-0.062927246
2019-07-01T19:27:30.947Z,0.23039463,0.18536665,0.5394331,-0.49531555,5.728424,7.4847565,18.197632,-15.005493,-36.038208,-0.428746,5.5237975,8.091615,0.03939444,0.03109169,-0.08679104,-0.00819397,0.17347717,0.041152954
2019-07-01T19:27:31.150Z,0.2322485,0.1873788,0.53533435,-0.6652069,5.560913,8.922836,18.284607,-16.523743,-36.8042,-0.46542978,5.566762,8.060082,0.07971689,-0.031197071,-0.10482216,0.1051178,0.046783447,0.03779602
2019-07-01T19:27:31.356Z,0.22129995,0.19593641,0.53692144,-0.61016846,5.4963074,7.9944153,19.821167,-16.349792,-36.75537,-0.7060816,5.492989,8.093139,0.06302971,0.16047478,0.100260735,-0.094696045,0.07739258,-0.046676636
2019-07-01T19:27:31.561Z,0.22487101,0.2166813,0.53995657,-0.88534546,5.6351013,7.8388824,19.732666,-16.729736,-35.694885,-0.9402962,5.74203,7.894005,0.016621292,-0.05385065,0.17946291,0.059310913,0.17756653,0.00077819824
2019-07-01T19:27:31.759Z,0.22872786,0.21946684,0.5382669,-1.9046936,6.551544,8.274384,21.298218,-17.793274,-35.298157,-0.94658613,5.820103,7.8358645,-0.18671292,0.14221096,-0.06570864,0.19406128,0.16786194,0.037979126
2019-07-01T19:27:31.965Z,0.22493617,0.19464977,0.54104465,-0.40438843,5.2450714,8.126022,20.417786,-18.165588,-32.54242,-0.61618555,5.5359645,8.071171,-0.15270627,0.10105991,-0.32039642,-0.114852905,-0.18650818,0.0023040771
2019-07-01T19:27:32.171Z,0.22180828,0.18035188,0.5408063,-0.2368927,5.5034943,8.147568,20.429993,-15.6692505,-34.829712,-0.44555375,5.3544874,8.203739,0.030358642,0.19830322,-0.0014324188,-0.19566345,-0.14727783,0.034683228
2019-07-01T19:27:32.369Z,0.2241535,0.17834851,0.5406142,-0.47138977,5.3479614,8.018356,19.55719,-15.057373,-36.405945,-0.39017487,5.368621,8.19732,-0.04403907,-0.037217617,-0.03320408,-0.0398407,-0.04031372,-0.00061035156
2019-07-01T19:27:32.572Z,0.2152909,0.16955322,0.53867054,-0.5024872,5.48674,8.037491,18.684387,-15.05127,-35.464478,-0.37486267,5.155478,8.333721,-0.2128191,0.3903513,-0.6134367,-0.007461548,0.0013427734,0.016174316
2019-07-01T19:27:32.776Z,0.13063997,0.035380084,0.5525618,-0.07417297,3.1609192,7.25264,18.644714,-13.952637,-36.221313,0.84513223,2.490677,9.447363,-1.0410371,1.3306904,-1.9961996,-0.57696533,-0.21276855,0.0134887695
2019-07-01T19:27:32.987Z,0.049267303,0.034462754,0.59534764,2.5938263,1.1652985,10.281952,15.734863,-4.272461,-40.548706,0.033716794,1.1766224,9.735749,1.3933052,0.16546822,0.4397192,-1.4775085,-0.33226013,0.5389557
2019-07-01T19:27:33.182Z,0.005525909,0.12139379,0.60243183,-0.22492981,2.292328,10.155136,18.901062,1.461792,-38.450623,-1.8129435,1.519848,9.51702,1.384464,0.5405483,0.691617,-0.36653137,0.63365173,0.17933655
2019-07-01T19:27:33.384Z,-0.047783084,0.16972846,0.5391145,-0.7154541,1.655838,9.150162,27.067566,1.6052246,-34.150696,-3.2468548,1.0228424,9.196854,2.2343907,0.8290372,-0.39269543,0.21598816,1.134201,-0.090667725
2019-07-01T19:27:33.588Z,0.008129231,0.033990882,0.44886667,-1.4931183,0.6006012,10.222137,32.04651,10.003662,-30.757141,-0.5237149,0.44161475,9.782693,-1.8199391,-0.057613403,0.76301193,-0.023086548,-1.3912048,-0.65449524
2019-07-01T19:27:33.793Z,-0.006777845,0.004804232,0.41845572,-1.1964111,-1.3375854,8.748154,21.330261,16.722107,-39.67285,-0.14120455,-0.08130252,9.805297,-1.0936399,-1.5738722,0.21574974,-0.5003662,-0.36909485,-0.011550903
2019-07-01T19:27:34.000Z,-0.06662837,-0.04395473,0.39559445,0.19381714,-3.1082764,8.8701935,16.81366,20.065308,-39.260864,0.27181235,-1.5366997,9.681686,-0.15974328,-1.2171499,-0.44500256,-0.3690338,0.12840271,-0.2803955
2019-07-01T19:27:34.200Z,-0.044284493,-0.02131189,0.39056695,-0.0143585205,-1.5361938,9.662216,12.953186,23.135376,-35.910034,0.045015413,-0.9616942,9.759277,-0.1678285,-0.38246596,1.2791834,0.37634277,-0.00630188,0.04812622
2019-07-01T19:27:34.397Z,-0.027205097,-0.0146693075,0.4048912,-0.007171631,-0.9571228,9.681366,13.807678,21.022034,-38.03711,0.04688226,-0.6041023,9.787914,0.061675068,-0.23734635,0.06898975,0.20439148,-0.009902954,0.14677429
2019-07-01T19:27:34.610Z,-0.00017297947,-0.0031032495,0.40316793,0.48095703,-0.6508484,10.679169,14.912415,18.692017,-38.328552,0.054330967,-0.027643532,9.806461,0.07623808,-0.25958157,0.05634117,0.13450623,-0.0030059814,-0.0042266846
2019-07-01T19:27:34.805Z,-0.00041000443,-0.0034280177,0.4008966,0.12921143,-0.13400269,9.8033905,14.813232,16.499329,-38.619995,0.058371045,-0.034321167,9.806416,0.07221696,-0.10146061,0.027160645,-0.00044250488,4.5776367e-05,0.00016784668
2019-07-01T19:27:35.003Z,-0.0006116861,-0.0037100497,0.39819473,0.1986084,-0.26081848,9.664612,14.411926,16.697693,-39.468384,0.06197084,-0.039980102,9.806374,0.06837526,-0.09556876,0.024224281,-0.00044250488,0.00030517578,0.00010681152
2019-07-01T19:27:35.219Z,-0.02734911,0.035087038,0.39417386,-3.345169,-5.682953,14.6440735,20.262146,20.846558,-35.165405,-0.8431513,-0.22113909,9.767834,0.61777264,-0.30738622,0.20404339,-0.7785492,0.3480072,0.14189148
2019-07-01T19:27:35.416Z,-0.07540416,0.023067148,0.4785225,0.6915283,0.105285645,7.697708,27.1698,11.99646,-38.082886,-1.1033548,-1.0768654,9.684696,-2.4512959,-3.029273,2.7537556,0.9009094,0.34049988,1.4846954
2019-07-01T19:27:35.627Z,0.021818772,0.08784899,0.60186243,-1.701294,4.515259,6.592224,23.632812,1.272583,-39.36615,-1.109567,1.3765631,9.645948,1.7739307,-1.3959652,-1.2767506,0.56803894,-0.4989624,0.096450806
2019-07-01T19:27:35.824Z,0.11155002,0.123501845,0.56146896,-0.34217834,2.045868,12.323044,23.791504,-4.257202,-39.28833,-0.73505783,3.1334956,9.263438,1.277679,0.100630045,-1.9291973,0.5863037,0.28381348,0.43070984
2019-07-01T19:27:36.030Z,0.086034596,0.09359487,0.5812232,-4.668396,6.1878357,10.693527,22.30835,-1.3626099,-39.694214,-0.4946825,2.4232235,9.489661,0.5233873,-0.3780024,-0.07068157,-0.21038818,-0.090530396,-0.40049744
2019-07-01T19:27:36.228Z,0.08909986,0.05745586,0.52626604,-0.41874695,2.1894379,9.267395,18.90564,0.16784668,-40.830994,-0.03107546,2.0674236,9.586197,-1.5036036,0.7220168,-0.32308102,-0.24697876,-0.55596924,-0.030929565
2019-07-01T19:27:36.425Z,0.08172327,0.059733063,0.5554074,0.5144501,2.555542,8.848663,19.937134,-2.0996094,-40.353394,-0.076759,1.9736886,9.605678,0.4034744,0.08236563,0.029149055,0.24617004,0.17414856,0.2521515
2019-07-01T19:27:36.645Z,0.100164555,0.091046765,0.56060183,-0.14117432,2.7134552,9.834503,20.918274,-3.5644531,-40.238953,-0.35751104,2.6060221,9.447286,0.44284034,-0.21479964,-0.036025047,0.1665802,0.11526489,0.026260376
2019-07-01T19:27:36.835Z,0.102399774,0.10229412,0.5677846,-0.23210144,2.864212,9.037689,22.183228,-4.2160034,-39.440918,-0.4854931,2.76667,9.395755,0.40656453,-0.09140444,0.2954464,0.14506531,0.08526611,0.03791809
2019-07-01T19:27:37.036Z,0.097360075,0.107742116,0.56399095,-0.39959717,2.7708893,9.427719,22.695923,-3.678894,-38.597107,-0.6408591,2.7441127,9.393058,0.2809692,0.12907434,-0.044677734,-0.041305542,0.050994873,-0.05847168
2019-07-01T19:27:37.232Z,0.10475548,0.11369998,0.5629695,-0.6006012,3.1345978,9.276978,21.70105,-4.6325684,-37.013245,-0.65386087,2.923548,9.337865,0.22259468,-0.13415909,0.19537067,0.15264893,0.02192688,-0.02444458
2019-07-01T19:27:37.436Z,0.111636475,0.098880544,0.54591167,0.14596558,2.9718933,9.444473,19.702148,-3.791809,-40.385437,-0.40363705,2.8639393,9.370449,0.1103729,0.12918472,-0.0020637512,-0.030181885,-0.14562988,-0.10574341
2019-07-01T19:27:37.638Z,0.11646208,0.1052243,0.5431817,-0.5288086,2.9694977,9.332016,21.080017,-3.630066,-39.88037,-0.46150863,3.005061,9.323465,0.14991766,-0.13835621,0.18669987,-0.08253479,-0.058151245,-0.059570312
2019-07-01T19:27:37.845Z,0.1251233,0.111150645,0.54246235,-0.36131287,3.1130676,8.908478,20.475769,-4.5440674,-39.967346,-0.46344253,3.2028825,9.257276,0.08646649,-0.09643483,-0.08358288,0.15594482,0.028030396,-0.019683838
2019-07-01T19:27:38.063Z,0.12904826,0.11273558,0.5395948,-0.33021545,3.3236237,8.951553,21.650696,-5.117798,-40.509033,-0.45688087,3.279468,9.230749,0.04129058,0.01566124,-0.05155945,0.08520508,0.0075683594,-0.015655518
2019-07-01T19:27:38.247Z,0.12744115,0.1096449,0.5422795,-0.31106567,3.2015991,8.719452,21.144104,-5.7373047,-40.312195,-0.4148551,3.2238111,9.252315,0.07734728,0.047789574,0.16827965,-0.0077667236,-0.016616821,0.0059814453
2019-07-01T19:27:38.456Z,0.124631055,0.106209815,0.53944945,0.1651001,3.3690948,9.241089,21.017456,-5.0201416,-39.85901,-0.40189698,3.142696,9.28075,0.18649057,0.17407107,-0.27219677,0.096450806,-0.00819397,0.014892578
2019-07-01T19:27:38.652Z,0.115921184,0.108802125,0.5374761,-0.33499146,2.8570251,9.542572,21.173096,-3.3340454,-39.822388,-0.5452568,3.0298524,9.310912,-0.007835031,0.015479326,0.108252525,-0.20440674,0.037139893,-0.05847168
2019-07-01T19:27:38.855Z,0.1131283,0.09561612,0.5351447,-0.22732544,2.8330994,10.00679,20.942688,-2.9800415,-40.345764,-0.37228638,2.8489141,9.376326,0.041775465,0.073239565,0.043800354,-0.05381775,0.0008544922,0.04788208
2019-07-01T19:27:39.059Z,0.10944189,0.087738656,0.535285,0.23928833,2.8570251,8.401199,21.725464,-1.9195557,-38.879395,-0.28436777,2.7090688,9.420747,0.18030307,0.12572408,-0.010523796,-0.07447815,-0.096206665,0.0023651123
2019-07-01T19:27:39.260Z,0.1074833,0.08493928,0.5338886,-0.48812866,2.732605,10.092926,20.825195,-1.8157959,-41.389465,-0.26454064,2.6483915,9.4385605,-0.050725788,-0.0020959377,0.015191078,-0.10501099,0.02003479,-0.0077056885
2019-07-01T19:27:39.465Z,0.1013057,0.08050449,0.53295124,-0.275177,2.4837494,9.992432,20.985413,-1.953125,-40.667725,-0.26137304,2.502973,9.478249,0.18497214,0.042737722,-0.14528656,0.005432129,-0.057418823,0.008712769
2019-07-01T19:27:39.679Z,0.08914405,0.07492242,0.53331155,-0.13877869,2.3330078,9.671783,20.289612,-1.3442993,-40.516663,-0.29877666,2.24862,9.540692,0.07158393,0.06741524,0.20445538,-0.16749573,0.030166626,-0.0466156
2019-07-01T19:27:39.873Z,0.09003454,0.07817789,0.53407985,-0.21296692,2.2779694,9.544968,21.665955,0.6378174,-40.167236,-0.34025043,2.2969258,9.527788,0.084162444,0.018953085,-0.037177086,-0.031402588,0.024307251,-0.026275635
2019-07-01T19:27:40.082Z,0.09070964,0.08306098,0.5322155,-0.35414124,2.3090668,9.439682,21.540833,-0.38757324,-40.446472,-0.4177057,2.3572676,9.509953,0.08765951,-0.06402588,0.0063991547,0.023635864,0.02607727,-0.0026397705
2019-07-01T19:27:40.274Z,0.09220292,0.08638785,0.53288496,-0.30867004,2.3377838,9.578476,21.427917,-1.1245728,-40.290833,-0.45399487,2.415988,9.493539,0.11006853,-0.05059123,0.0606184,0.061203003,0.050750732,0.009033203
2019-07-01T19:27:40.477Z,0.09553335,0.08882909,0.53303677,-0.5742798,2.457428,9.753143,21.824646,-1.1688232,-40.844727,-0.45769855,2.4950607,9.472886,-0.044655293,-0.027427912,-0.0014867783,-0.0014648438,-0.064086914,0.00036621094
2019-07-01T19:27:40.682Z,0.10181854,0.07961444,0.5316133,-0.32063293,2.428711,9.506683,21.122742,-0.78430176,-40.133667,-0.24545185,2.5017369,9.479001,-0.0061687827,-0.023696661,0.072190285,0.026748657,-0.07116699,0.0051116943
2019-07-01T19:27:40.887Z,0.094688244,0.076541826,0.5331384,-0.2679901,2.3617096,9.4253235,20.487976,-2.430725,-39.91394,-0.26675028,2.3552115,9.515892,0.036482394,0.09532976,-0.11188221,-0.08772278,0.03199768,0.0029907227
2019-07-01T19:27:41.086Z,0.09904258,0.07568524,0.537804,-0.15792847,2.4669952,9.346359,21.896362,0.35858154,-39.93225,-0.19301766,2.4180439,9.5019045,0.062279463,-0.014307737,0.011802673,0.035232544,-0.05430603,0.012145996
2019-07-01T19:27:41.291Z,0.09829014,0.07576369,0.53593624,-0.13160706,2.411972,10.140778,20.744324,-1.9714355,-40.434265,-0.20774539,2.4062653,9.504584,0.039978117,-0.028703928,0.10826111,0.06755066,-0.010574341,0.006713867
2019-07-01T19:27:41.494Z,0.10130797,0.07815517,0.53911096,-0.38046265,2.388031,9.949356,19.830322,-1.0192871,-39.448547,-0.20485558,2.4804752,9.485551,0.11198424,0.034554243,-0.05467701,-0.076553345,0.11923218,-0.02859497
2019-07-01T19:27:41.695Z,0.1065757,0.09250753,0.53906155,-0.5383911,2.938385,9.054443,21.77887,-0.82855225,-38.28125,-0.3797847,2.7137625,9.416032,0.14124179,-0.32453442,0.31238747,0.25308228,0.07090759,0.013427734
2019-07-01T19:27:41.915Z,0.114678085,0.12333775,0.5437038,-1.0337067,3.4241333,8.831909,22.146606,-3.1234741,-39.971924,-0.7660592,3.1645713,9.250353,0.06837809,-0.19878125,0.021219254,0.2849579,0.2901001,0.12149048
2019-07-01T19:27:42.112Z,0.11886373,0.1384439,0.5450579,-0.6006012,3.1537476,8.977875,23.81897,-5.7250977,-37.625122,-0.95126814,3.387732,9.15362,-0.036195934,0.021526814,-0.06313419,-0.01802063,-0.018569946,-0.007156372
2019-07-01T19:27:42.300Z,0.11648356,0.13340656,0.544528,-1.2418823,3.4791565,9.18605,23.910522,-5.2719116,-38.970947,-0.90108055,3.2977898,9.191464,0.053102553,0.023774862,-0.10610676,-0.036590576,0.030349731,-0.008743286
2019-07-01T19:27:42.501Z,0.120343246,0.14025629,0.54654443,-0.9020996,3.426529,8.630905,22.744751,-6.150818,-39.178467,-0.9568555,3.4313593,9.136771,0.0050679445,-0.10945678,0.15675545,0.03224182,-0.010025024,0.028457642
2019-07-01T19:27:42.709Z,0.114280045,0.12608132,0.54221606,-0.6628113,3.041275,9.346359,23.408508,-5.592346,-39.69574,-0.81941855,3.1851234,9.238719,-0.17101336,0.13682342,-0.17313385,-0.16403198,-0.15620422,-0.032684326
2019-07-01T19:27:42.930Z,0.1165511,0.10578743,0.54190165,-0.48335266,2.9240265,9.449265,21.601868,-4.5425415,-39.93683,-0.47416723,3.0115752,9.320728,-0.08366716,0.077492714,0.07618427,-0.035003662,-0.11454773,-0.009719849
2019-07-01T19:27:43.126Z,0.11300881,0.103320956,0.54021055,-0.624527,2.7900238,10.143173,20.344543,-4.2800903,-37.490845,-0.4794996,2.9288113,9.346792,0.017023027,0.05395174,0.045152664,-0.043441772,-0.002090454,-0.013504028
2019-07-01T19:27:43.316Z,0.11284273,0.10402064,0.540485,-0.29910278,2.5052795,9.547363,21.871948,-3.8665771,-40.187073,-0.49150896,2.9335487,9.344683,-0.017109126,-0.047516346,0.05121517,-0.043563843,-0.054611206,-0.025726318
2019-07-01T19:27:43.518Z,0.10947088,0.099247344,0.54215884,-0.81355286,2.8857422,9.556931,21.514893,-2.9510498,-39.231873,-0.44610447,2.8313792,9.378415,0.07607421,-0.018000126,0.059231758,0.020523071,0.051742554,0.00982666
2019-07-01T19:27:43.719Z,0.11117927,0.104226,0.5404328,-0.33499146,3.0197449,9.497116,21.757507,-3.0090332,-38.80005,-0.513066,2.9091387,9.351153,-0.04440874,0.011967182,0.037745476,0.105789185,-0.010269165,-0.017242432
2019-07-01T19:27:43.928Z,0.11562884,0.10832282,0.537719,-0.7465668,3.0843506,9.128616,21.565247,-3.6010742,-39.668274,-0.53988785,3.0204449,9.314281,-0.0080782175,-0.0055787563,0.06890583,-0.059936523,0.022659302,-0.020477295
2019-07-01T19:27:44.127Z,0.1105279,0.10119451,0.5392272,-0.32063293,2.8283234,9.085556,21.199036,-4.6463013,-39.48822,-0.47586367,2.8667495,9.3661995,0.047823846,0.007826567,0.068585396,0.012512207,-0.023345947,0.0075683594
2019-07-01T19:27:44.330Z,0.120763026,0.10188094,0.5397752,-0.17228699,3.0771637,9.566513,21.743774,-3.300476,-39.083862,-0.3737367,3.037033,9.317035,0.0007415712,-0.033593655,-0.18321514,-0.03262329,-0.039764404,-0.006668091
2019-07-01T19:27:44.532Z,0.104913235,0.09480672,0.53977424,-0.38285828,2.897705,8.360519,20.126343,-3.2546997,-40.29236,-0.43239018,2.7112706,9.41448,-0.034947723,0.12025595,0.0015459061,0.023086548,0.041534424,0.031082153
2019-07-01T19:27:44.758Z,0.1083393,0.09793653,0.53731465,-0.4019928,2.8570251,9.521042,20.6604,-2.281189,-39.135742,-0.45380816,2.7971268,9.388319,-0.011903852,-0.004672289,0.20172024,-0.1295166,-0.011550903,-0.0064849854
2019-07-01T19:27:44.952Z,0.108086705,0.098352335,0.5361074,-0.43070984,2.7158508,9.274582,20.831299,-3.717041,-40.415955,-0.4672762,2.796683,9.38779,0.06746292,-0.0343225,-0.14015865,0.05203247,-0.021453857,-0.014053345
2019-07-01T19:27:45.153Z,0.10755364,0.09690831,0.5354403,-0.4139557,2.7996063,9.497116,20.878601,-2.8457642,-39.334106,-0.45201176,2.772949,9.395576,0.008343369,0.014757872,0.06116295,-0.022491455,0.0048217773,-0.026153564
2019-07-01T19:27:45.353Z,0.109016515,0.098786816,0.53766924,-0.35891724,2.7972107,9.200409,21.055603,-2.5482178,-38.75122,-0.4589541,2.8169117,9.382151,0.041803718,-0.02098775,-0.014334679,0.012634277,0.009521484,0.0040893555
2019-07-01T19:27:45.551Z,0.108357996,0.100632094,0.53897625,-0.47138977,2.773285,9.57608,21.652222,-3.2196045,-40.953064,-0.49122706,2.8261375,9.377741,0.0057862103,-0.03428912,0.030041695,0.016052246,0.019851685,0.001876831
2019-07-01T19:27:45.770Z,0.1107154,0.102814,0.5363266,-0.5647125,2.8809662,9.291336,21.218872,-2.3864746,-39.25476,-0.5098421,2.884672,9.358905,0.006511867,-0.0029213428,-0.03329277,0.029434204,0.004760742,-0.01008606
2019-07-01T19:27:45.952Z,0.11044878,0.10324463,0.53714585,-0.28953552,2.7876434,9.451645,22.091675,-2.8457642,-38.328552,-0.5167767,2.8853326,9.358322,0.02809757,0.016581297,0.01817894,0.00077819824,0.0033569336,0.0020751953
2019-07-01T19:27:46.155Z,0.10973036,0.10369128,0.5390332,0.047851562,2.6153564,9.51387,20.97931,-4.1503906,-39.604187,-0.5251428,2.8796332,9.3596115,-0.023854196,-0.013799906,0.012690544,0.01159668,0.032669067,-0.007217407
2019-07-01T19:27:46.357Z,0.10933896,0.10492388,0.5379105,-0.7728882,3.0843506,9.365509,22.325134,-2.972412,-38.815308,-0.55300915,2.8853352,9.35625,-0.00042051077,0.024847269,-0.03708744,-0.012527466,0.0041503906,-0.01461792
2019-07-01T19:27:46.565Z,0.11120232,0.10242203,0.5394366,-0.5048828,2.8378906,9.437286,23.442078,-3.0410767,-39.253235,-0.48746818,2.8902912,9.358364,-0.041930556,-0.0051219463,0.054940224,0.034194946,-0.058029175,0.009277344
2019-07-01T19:27:46.764Z,0.1189896,0.105277725,0.5434808,-0.34217834,2.8498535,9.358322,21.551514,-3.9657593,-39.3631,-0.43358156,3.0458179,9.311572,0.026442945,-0.0754714,0.012228966,0.16822815,0.041229248,0.041168213
2019-07-01T19:27:46.966Z,0.11391676,0.11297714,0.5472332,-0.7154541,3.3379822,9.296112,20.637512,-4.533386,-39.970398,-0.59755945,3.047962,9.301787,0.019297957,0.16893697,-0.22885704,-0.15126038,0.073654175,0.0154418945
2019-07-01T19:27:47.168Z,0.11186591,0.10505928,0.5470647,-0.5359955,3.007782,9.135803,22.253418,-4.4311523,-39.335632,-0.49534684,2.9327567,9.344728,-0.08372146,0.012020826,0.05752468,0.0053100586,-0.076309204,-0.0284729
2019-07-01T19:27:47.370Z,0.12565741,0.10103358,0.5394952,-0.5814514,3.1920319,8.999405,21.325684,-3.4667969,-40.159607,-0.30799186,3.10579,9.296752,-0.10304794,-0.07386255,0.12994957,0.077819824,-0.08229065,0.008483887
2019-07-01T19:27:47.573Z,0.12372529,0.100834295,0.5426679,-0.5024872,3.1752777,8.953949,20.722961,-4.458618,-39.730835,-0.31401974,3.07436,9.306992,0.03513658,-0.0027070045,0.045638084,0.110198975,-0.037200928,0.037200928
2019-07-01T19:27:47.777Z,0.13045894,0.10063997,0.5453615,-0.31585693,2.9479523,9.052048,19.822693,-4.7348022,-39.978027,-0.22679625,3.179365,9.27419,-0.015048623,0.118905306,-0.37625885,-0.24960327,0.0012817383,-0.008377075
2019-07-01T19:27:47.979Z,0.11851398,0.08821008,0.5397994,-0.64367676,2.9288177,8.568695,21.066284,-3.9230347,-39.865112,-0.17903773,2.860239,9.378559,-0.047069505,0.0813694,0.28022957,0.032791138,0.004699707,-0.0036773682
2019-07-01T19:27:48.181Z,0.09968869,0.09303105,0.5446967,-0.105285645,2.6823578,8.882156,21.099854,-3.2684326,-39.2807,-0.44484246,2.6117754,9.441988,0.14236757,0.22826242,-0.2309084,-0.15626526,0.11428833,-0.024139404
2019-07-01T19:27:48.386Z,0.09775623,0.10107819,0.54436076,-0.6053772,2.6775665,9.468399,22.38617,-1.512146,-38.74817,-0.59575653,2.6647725,9.418835,0.12753284,-0.011554956,0.06706524,0.008911133,0.07128906,0.002609253
2019-07-01T19:27:48.588Z,0.099855386,0.097537965,0.5446456,-0.55992126,2.732605,9.054443,22.601318,-2.2277832,-38.44757,-0.51533955,2.661542,9.424491,-0.032589376,0.037347317,0.0071172714,0.034439087,-0.022613525,0.022155762
2019-07-01T19:27:48.792Z,0.09666595,0.10887297,0.5477535,-0.77526855,2.7876434,9.585648,21.791077,-2.204895,-39.015198,-0.7207594,2.7316642,9.390894,0.08392006,-0.02764225,0.016625404,-0.0022735596,0.07489014,0.04598999
2019-07-01T19:27:48.994Z,0.09792152,0.10323508,0.54766476,-0.7010956,2.6153564,9.327225,23.158264,-2.4887085,-37.61902,-0.6176273,2.6924262,9.409558,-0.1500426,0.06319523,0.076438904,0.0030975342,-0.06384277,-0.034332275
2019-07-01T19:27:49.196Z,0.097728625,0.09922611,0.54616374,-0.122039795,2.9072723,8.793625,22.66388,-2.5878906,-38.44757,-0.5606832,2.6462162,9.426217,-0.0703879,0.07021952,-0.13758087,0.033340454,-0.082901,0.009521484
2019-07-01T19:27:49.403Z,0.108671755,0.09748987,0.5467346,-0.72502136,2.6656036,9.611969,21.783447,-2.1972656,-40.220642,-0.4111704,2.8027167,9.388616,0.117847234,-0.080830574,-0.046159744,-0.100860596,0.039276123,0.009887695
2019-07-01T19:27:49.606Z,0.101155534,0.09562088,0.54321545,-1.2251282,2.4933167,9.755539,21.554565,-1.9210815,-40.15503,-0.47508046,2.661464,9.426626,0.052259445,0.025562048,0.036432266,-0.00642395,0.04257202,0.0041503906
2019-07-01T19:27:49.838Z,0.09923419,0.10107074,0.54625976,-0.5766754,2.6895294,9.585648,22.60437,-2.230835,-38.072205,-0.5733281,2.6896496,9.413155,-0.030379057,-0.10182929,0.17960835,0.08416748,0.06993103,0.012939453
2019-07-01T19:27:50.007Z,0.094141476,0.116678,0.55181,-1.1772614,2.9144592,8.310272,23.226929,-4.597473,-37.67395,-0.8585235,2.7775614,9.365814,0.17742884,-0.0017974377,-0.033420563,0.05290222,0.13645935,0.047821045
2019-07-01T19:27:50.209Z,0.09441325,0.106555246,0.5523514,-0.45463562,2.5435638,9.497116,23.040771,-3.2196045,-38.442993,-0.69375056,2.6753259,9.40913,0.24955302,0.009574652,0.04026127,-0.08143616,-0.14465332,0.016357422
2019-07-01T19:27:50.412Z,0.09874155,0.1070905,0.5531488,-1.2849426,2.5531464,10.286743,22.528076,-2.09198,-38.11493,-0.65159476,2.7503657,9.39049,-0.12559032,-0.10226011,0.095261574,-0.01675415,0.02418518,-0.024810791
2019-07-01T19:27:50.616Z,0.09572697,0.10318029,0.5539387,-0.9188385,2.6799622,8.73381,23.535156,-2.7420044,-39.4989,-0.62056917,2.6616552,9.418115,0.11832613,0.12271619,-0.11446762,0.03677368,-0.0032958984,0.041900635
2019-07-01T19:27:50.816Z,0.0957144,0.09645135,0.54922813,-0.38763428,2.6990967,9.688538,23.321533,-2.3254395,-38.49945,-0.52877486,2.5869,9.444508,-0.060246646,0.0776279,0.03320217,0.0115356445,-0.07110596,-0.021453857
2019-07-01T19:27:51.022Z,0.09321083,0.09981385,0.5491228,-0.45703125,2.600998,9.504288,22.947693,-2.986145,-41.111755,-0.61023057,2.5823483,9.440842,-0.015847683,0.09948778,-0.05194378,6.1035156e-05,-0.005493164,-0.049301147
2019-07-01T19:27:51.224Z,0.09820433,0.097684436,0.5492232,-0.45942688,2.7589264,8.822342,23.11554,-2.9815674,-40.43579,-0.52107126,2.6396039,9.430343,0.057028115,-0.004637718,-0.13197613,-0.069885254,0.028152466,-0.019500732
2019-07-01T19:27:51.425Z,0.10019069,0.09924826,0.55011845,-0.19621277,2.7302094,9.434906,22.26715,-2.2399902,-39.72168,-0.5211991,2.6882875,9.416574,-0.044272423,-0.03965926,-0.008494377,0.021560669,-0.049179077,-0.0053253174
2019-07-01T19:27:51.630Z,0.09503401,0.09779688,0.5505759,-0.8757782,2.9312134,9.461227,22.135925,-1.6693115,-39.297485,-0.5534738,2.591151,9.441927,0.0681566,0.03913927,0.19586754,-0.034942627,-0.014480591,0.0107421875
2019-07-01T19:27:51.833Z,0.10335723,0.10751886,0.5470823,-0.25842285,2.5986023,9.552155,21.97113,-3.652954,-39.015198,-0.6279555,2.823443,9.370391,0.081254005,-0.09866691,-0.025814056,0.014709473,0.018936157,-0.002456665
2019-07-01T19:27:52.035Z,0.106386185,0.099704854,0.54869986,-0.4091797,2.7828522,9.604797,22.332764,-2.7511597,-39.14795,-0.46490622,2.7906954,9.389689,-0.026555836,0.012115002,-0.09595299,0.07537842,-0.011123657,0.011657715
2019-07-01T19:27:52.237Z,0.10546744,0.1038622,0.5471782,-0.6388855,3.0341034,8.810379,20.089722,-4.362488,-38.62915,-0.5463216,2.818778,9.376907,-0.04748535,0.05839181,0.0064296722,0.031036377,-0.016494751,-0.0042266846
2019-07-01T19:27:52.441Z,0.09851122,0.09534882,0.55046374,-0.42591858,2.663208,9.549759,22.409058,-0.9979248,-39.172363,-0.4765111,2.620583,9.438002,0.030452758,0.043339014,-0.05015564,-0.070617676,-0.013259888,-0.010696411
2019-07-01T19:27:52.643Z,0.10019615,0.09377108,0.5464531,-0.32063293,2.5818634,9.317657,21.421814,-1.4251709,-39.3692,-0.44558161,2.628585,9.437286,0.043431014,-0.0020856857,0.22312069,-0.082351685,-0.00061035156,0.035110474
2019-07-01T19:27:52.850Z,0.11000748,0.10136222,0.54282314,-0.34934998,2.670395,9.808182,21.383667,-2.4551392,-38.597107,-0.47175846,2.8622465,9.3677845,0.030557334,-0.11780977,0.038564682,0.09516907,0.013244629,0.019958496
2019-07-01T19:27:53.053Z,0.11388149,0.09855583,0.5417766,-0.13639832,2.835495,9.274582,21.653748,-3.6026,-38.841248,-0.38833192,2.8942575,9.361776,0.033301115,0.02195263,-0.19290543,-0.0388031,-0.050827026,0.0008392334
2019-07-01T19:27:53.255Z,0.11334271,0.09176626,0.54337734,-0.2416687,2.9120636,9.4253235,21.655273,-3.37677,-39.549255,-0.28003,2.8158207,9.389522,-0.005643189,0.07992029,0.06810188,-0.027130127,-0.016494751,-0.000869751
2019-07-01T19:27:53.469Z,0.11012448,0.09027029,0.5438418,-0.24645996,2.7637177,9.202789,21.406555,-3.4606934,-40.16266,-0.28958878,2.7491527,9.408969,0.028939784,0.03164935,-0.064394,-0.088150024,-0.026153564,-0.013870239
2019-07-01T19:27:53.656Z,0.10573801,0.08394855,0.54475176,-0.21296692,2.6488495,9.6263275,21.165466,-3.326416,-40.803528,-0.23300053,2.613394,9.449141,-0.05248359,0.09652686,0.08937931,-0.048812866,-0.056991577,0.0061035156
2019-07-01T19:27:53.878Z,0.104907386,0.07881504,0.5475881,-0.45703125,2.6847534,10.073776,19.60907,-1.9638062,-41.593933,-0.15075517,2.5468497,9.468961,0.060238138,-0.021306992,0.024233818,0.021072388,-0.0025634766,-0.0019683838
2019-07-01T19:27:54.059Z,0.10553673,0.07973506,0.54554325,-0.057434082,2.6416779,9.087936,20.00885,-2.3910522,-39.65912,-0.16499117,2.5661826,9.463502,0.0169366,0.05771041,-0.102446556,-0.023712158,0.014892578,0.00035095215
2019-07-01T19:27:54.266Z,0.10509978,0.079521775,0.54617536,-0.22732544,2.5531464,9.540192,20.445251,-1.7105103,-39.161682,-0.16436982,2.5570915,9.465974,0.051987976,0.015881777,0.01000309,-0.007583618,-0.0045318604,0.0067749023
2019-07-01T19:27:54.512Z,0.104754664,0.078991264,0.5464902,-0.093322754,2.5842438,9.008972,19.78302,-2.116394,-39.44397,-0.15863702,2.546064,9.469044,0.01664722,0.00985074,0.03418541,0.03578186,0.023330688,-0.016448975
2019-07-01T19:27:54.680Z,0.105248235,0.08064201,0.54492265,-0.12921143,2.629715,9.308075,19.812012,-2.9022217,-41.342163,-0.1846459,2.5709608,9.461842,-0.0015121549,-0.0011763573,-0.03927517,-0.013687134,0.0021972656,0.009399414
2019-07-01T19:27:54.877Z,0.1062813,0.08228499,0.547552,-0.009567261,2.7134552,10.040283,21.017456,-2.8167725,-41.978455,-0.19152592,2.6053061,9.452306,0.029288396,-0.0020740032,0.05276966,0.041046143,0.014221191,0.018005371
2019-07-01T19:27:55.080Z,0.11739702,0.09047846,0.5581046,-0.16270447,3.000595,9.243469,21.118164,-2.6000977,-40.579224,-0.16375391,2.8702571,9.375777,0.078558415,-0.17321229,0.05538082,0.18869019,0.037750244,0.05630493
2019-07-01T19:27:55.283Z,0.11224494,0.09285245,0.5574622,-0.27278137,2.8378906,9.312866,20.256042,-4.0496826,-39.779663,-0.26121068,2.8145478,9.390446,-0.13780257,0.19442558,-0.15437889,-0.0894928,0.036590576,0.012084961
2019-07-01T19:27:55.481Z,0.10949601,0.08762833,0.5545129,-0.36131287,2.8139648,9.348755,21.109009,-2.973938,-39.598083,-0.21892713,2.7146306,9.420895,0.011311829,0.08093858,-0.06299591,-0.060668945,-0.035003662,-0.009719849
2019-07-01T19:27:55.683Z,0.10685372,0.08502872,0.5544768,-0.059814453,2.6440735,9.269791,21.516418,-2.8747559,-39.59503,-0.20699437,2.6451418,9.440909,-0.052891344,0.12203789,0.07664204,0.039215088,0.011001587,-0.013198853
2019-07-01T19:27:55.904Z,0.110389024,0.08826332,0.55354,-0.24645996,2.8163452,9.334396,21.195984,-2.822876,-39.720154,-0.22234958,2.7352352,9.414852,-0.020666912,0.040045023,-0.10960007,-0.00032043457,-0.039642334,-0.0069732666
2019-07-01T19:27:56.089Z,0.11648366,0.08221426,0.5516212,0.18185425,3.0556335,8.482559,20.339966,-3.9718628,-39.770508,-0.06492753,2.767037,9.407959,-0.10837119,0.032567263,-0.036819458,0.11477661,-0.09553528,-0.002029419
2019-07-01T19:27:56.292Z,0.12545776,0.08351027,0.5521938,0.24406433,3.0197449,8.580658,20.39795,-2.8076172,-39.006042,0.015694521,2.922123,9.361161,-0.009934673,0.06425214,-0.14874077,-0.11808777,-0.009902954,-0.00024414062
2019-07-01T19:27:56.495Z,0.113918915,0.07859145,0.5510434,-0.22013855,2.5651093,9.408585,18.374634,-2.7832031,-40.579224,-0.03726925,2.6880703,9.430975,0.04679967,0.16659188,0.039575577,-0.10458374,0.06687927,-0.035507202
2019-07-01T19:27:56.700Z,0.123206966,0.07379747,0.5466379,0.01914978,2.5842438,9.509079,20.697021,-3.0685425,-40.203857,0.126889,2.7847252,9.402106,-0.13640136,-0.0793879,0.17157364,0.0119018555,-0.026153564,-0.030548096
2019-07-01T19:27:56.900Z,0.11260699,0.07226067,0.5475546,-0.095718384,2.8785706,8.776871,18.881226,-4.1381836,-40.196228,0.038655877,2.6003401,9.455534,0.00974264,0.27332735,-0.28456593,0.1688385,-0.08003235,0.022705078
2019-07-01T19:27:57.100Z,0.11138325,0.07527119,0.54945177,0.447464,2.8713837,8.458633,18.730164,-2.3361206,-38.76648,-0.017100709,2.612667,9.452199,-0.016652528,0.034576178,0.10235882,-0.16964722,0.0713501,-0.0332489
2019-07-01T19:27:57.303Z,0.105062306,0.07256591,0.550954,-0.2632141,2.5698853,9.614365,18.843079,-3.1921387,-40.153503,-0.038467485,2.483561,9.486877,-0.043873694,0.10320401,-0.022933006,0.00024414062,-0.0158844,0.058380127
2019-07-01T19:27:57.509Z,0.10117748,0.07210476,0.5497877,0.21296692,2.2707825,8.949158,20.578003,-1.9760132,-41.33606,-0.07714571,2.4166768,9.5039,-0.05047434,0.11070943,-0.06928158,-0.05290222,0.024368286,-0.012527466
2019-07-01T19:27:57.727Z,0.10276149,0.06860401,0.5486677,0.0143585205,2.4311066,8.997009,19.78302,-1.9638062,-40.167236,-0.0067468,2.4047902,9.507226,0.028509302,0.07310629,-0.13730907,-0.048812866,-0.025360107,0.001083374
2019-07-01T19:27:57.911Z,0.10531309,0.07112002,0.5457412,0.1268158,2.3042908,9.67897,19.430542,-1.0513306,-38.835144,-0.02809206,2.472059,9.489917,-0.009264538,-0.07507467,0.12574291,-0.061706543,-0.02432251,-0.019744873
2019-07-01T19:27:58.119Z,0.10241168,0.07108727,0.5453619,-0.052642822,2.4191437,9.497116,20.996094,-0.29296875,-38.59253,-0.060237385,2.4252844,9.501829,0.0022810958,0.024800777,0.06668949,0.079833984,0.034820557,-0.015396118
2019-07-01T19:27:58.324Z,0.10608744,0.07980872,0.546809,-0.18185425,2.6799622,9.667007,19.010925,-1.4434814,-38.897705,-0.15623069,2.5759904,9.460986,0.054711655,-0.020121098,0.014834404,0.020217896,0.016662598,0.016296387
2019-07-01T19:27:58.524Z,0.10649085,0.07968596,0.5441833,-0.105285645,2.572281,9.403793,20.184326,-0.49591064,-38.07373,-0.15804078,2.5806427,9.459688,0.015514329,0.044051647,-0.11268139,0.06944275,0.040985107,-0.0008087158
2019-07-01T19:27:58.729Z,0.10484481,0.079040684,0.5453457,-0.2416687,2.6057892,9.51387,21.235657,-1.9470215,-39.54315,-0.16197138,2.547801,9.468519,-0.08510454,0.060953856,-0.008991241,-0.030059814,0.018798828,-0.0041046143
2019-07-01T19:27:58.929Z,0.10255941,0.07798269,0.5461226,-0.04547119,2.526825,9.372681,21.37146,-2.519226,-39.81781,-0.1674825,2.500312,9.481074,-0.027838215,0.0021862984,0.008471489,-0.00843811,-0.019180298,0.008117676
2019-07-01T19:27:59.141Z,0.10496424,0.07738925,0.5447967,-0.3062744,2.5244293,9.499512,19.844055,-2.3239136,-40.470886,-0.13577183,2.5322769,9.473094,0.00010578334,0.03642106,-0.0013284683,-0.013748169,0.0052490234,-0.0077667236
2019-07-01T19:27:59.333Z,0.10815169,0.07428354,0.5461454,-0.23210144,2.4335022,9.707687,20.15686,-2.520752,-40.522766,-0.04691594,2.5506916,9.469011,-0.014145236,-0.009903431,-0.015244484,0.081604004,-0.025848389,0.028640747
2019-07-01T19:27:59.535Z,0.11224105,0.078244485,0.54390657,-0.17228699,2.651245,8.312668,19.869995,-1.890564,-39.70337,-0.07318194,2.6572862,9.439485,-0.09281244,0.07622719,0.014761925,0.009887695,-0.031829834,0.011657715
2019-07-01T19:27:59.739Z,0.12555945,0.08307129,0.541999,-0.033493042,2.6990967,9.1453705,20.365906,-1.6403198,-39.598083,-0.012334502,2.9191468,9.362096,0.031491887,-0.11966157,-0.021018982,0.12828064,0.02217102,0.047027588
2019-07-01T19:27:59.941Z,0.113290735,0.080196805,0.5474594,-0.114852905,2.8522491,8.408386,19.810486,-3.3569336,-39.094543,-0.08158294,2.6948006,9.428774,0.01823122,0.18453074,-0.020392418,-0.08277893,-0.017715454,-0.0001373291
2019-07-01T19:28:00.144Z,0.11927408,0.08179443,0.5440799,0.21057129,2.7493591,9.5354,19.041443,-2.531433,-39.19525,-0.05308134,2.8062656,9.396406,-0.004599247,0.028482914,-0.22517967,-0.110565186,0.00018310547,-0.012283325
2019-07-01T19:28:00.347Z,0.11906526,0.08061189,0.54243594,0.13160706,2.5363922,10.164719,19.216919,-2.0767212,-39.941406,-0.041918397,2.7905252,9.401149,0.20228086,-0.1298716,0.28213978,0.22509766,0.052108765,0.00010681152
2019-07-01T19:28:00.549Z,0.109338455,0.081376545,0.5426897,-0.17945862,2.5770721,9.190826,20.199585,-3.4698486,-39.888,-0.15902653,2.64352,9.442293,0.06640494,0.14078784,-0.53176594,-0.34629822,0.01184082,-0.03843689
2019-07-01T19:28:00.753Z,0.10338073,0.07499422,0.53487444,0.1603241,2.292328,9.810577,19.581604,-1.1077881,-39.68506,-0.14398505,2.480268,9.486724,-0.046039566,0.036673307,0.2547722,0.036026,-0.018630981,-0.02279663
2019-07-01T19:28:00.955Z,0.101166494,0.081108704,0.53587645,-0.3756714,2.7804565,9.710068,19.847107,-0.8834839,-38.139343,-0.26388964,2.5078633,9.476887,0.16292122,-0.08406377,0.087436676,0.11416626,0.13835144,0.022399902
2019-07-01T19:28:01.158Z,0.11399253,0.10796443,0.543307,-0.18185425,2.778061,8.829514,20.196533,-1.9500732,-38.594055,-0.531672,2.9943628,9.323171,0.08719677,-0.25220942,0.029910088,0.12387085,0.08087158,0.06008911
2019-07-01T19:28:01.362Z,0.10347338,0.08581412,0.54359055,-0.102890015,2.7804565,9.317657,20.283508,-3.7704468,-38.215637,-0.29128116,2.5963514,9.452222,-0.07750797,0.2076242,-0.054353714,-0.11595154,-0.1394043,-0.0069732666
2019-07-01T19:28:01.564Z,0.11654781,0.08752059,0.5431939,0.41874695,2.5387878,9.602402,20.806885,-2.633667,-39.213562,-0.17768101,2.8225374,9.39,0.030384108,-0.0790689,-0.08977032,0.085510254,-0.0072784424,-0.00630188
2019-07-01T19:28:01.764Z,0.10820328,0.09714648,0.54657155,-0.33499146,2.486145,9.635895,20.872498,-2.9953003,-38.986206,-0.4113876,2.7915943,9.391919,0.12092966,-0.017404795,0.06801224,0.038909912,0.16389465,0.039749146
2019-07-01T19:28:01.970Z,0.1111393,0.09385814,0.54537934,0.33259583,2.7302094,9.367905,22.317505,-3.1204224,-38.919067,-0.330758,2.8033369,9.391607,-0.16942674,0.02507639,-0.1057291,-0.08369446,-0.16371155,-0.027496338
2019-07-01T19:28:02.173Z,0.11484197,0.088580176,0.54658103,-0.105285645,2.141571,10.243668,20.857239,-3.3584595,-39.21051,-0.20174515,2.807296,9.394082,0.13700177,0.03662467,-0.18666744,-0.068237305,0.023880005,0.0178833
2019-07-01T19:28:02.375Z,0.097535394,0.07768962,0.542161,0.07417297,2.1966095,9.870392,21.429443,-3.024292,-39.697266,-0.22904262,2.4157574,9.501686,-0.10777922,0.074385405,0.21492767,-0.10354614,-0.03567505,-0.08387756
2019-07-01T19:28:02.577Z,0.09873371,0.08715337,0.54601735,-0.76330566,2.8402863,8.812759,21.661377,-1.3305664,-39.889526,-0.35689753,2.5355163,9.4664755,0.15007341,-0.030594587,0.09719753,0.1073761,0.102493286,0.05545044
2019-07-01T19:28:02.783Z,0.107260264,0.10979424,0.5520572,-0.81355286,3.172882,8.669189,22.311401,-3.2684326,-38.571167,-0.60347795,2.9129395,9.34457,0.1506992,-0.22819829,0.031009674,0.20524597,0.15081787,0.056488037
2019-07-01T19:28:02.983Z,0.11181108,0.11629529,0.551906,-0.27278137,2.720642,9.913467,22.888184,-4.9087524,-38.09967,-0.65583104,3.053057,9.296188,-0.010124326,0.010554075,-0.205657,-0.0715332,-0.030975342,-0.026031494
2019-07-01T19:28:03.186Z,0.100907564,0.09709652,0.55063486,-0.20100403,2.3617096,10.837097,22.87445,-3.2287598,-38.74054,-0.47736967,2.6772785,9.422032,-0.032501698,0.094163895,0.079966545,-0.036895752,-0.11154175,0.002746582
2019-07-01T19:28:03.393Z,0.09867847,0.08816405,0.54706275,-0.27757263,2.3641052,9.674179,23.284912,-2.8274536,-39.95819,-0.37049767,2.5457196,9.463215,-0.081783146,0.0813005,-0.114258766,-0.0932312,0.04623413,-0.013137817
2019-07-01T19:28:03.593Z,0.09832195,0.0909826,0.54754406,-0.07896423,2.3377838,9.674179,21.495056,-1.5640259,-39.6286,-0.41805017,2.5699189,9.454689,0.03846091,-0.056873083,0.025922775,-0.09719849,-0.057785034,-0.037521362
2019-07-01T19:28:03.794Z,0.10191022,0.08858795,0.5451927,-0.279953,2.5986023,9.951752,21.069336,-1.8753052,-40.72876,-0.3478179,2.6010053,9.449031,0.0096566975,-0.020687342,-0.029161453,0.036102295,-0.0010986328,-0.0046539307
2019-07-01T19:28:04.000Z,0.10245168,0.08566979,0.54416746,-0.29193115,2.5746765,9.114258,20.97168,-2.4734497,-39.491272,-0.29827166,2.5787039,9.456835,0.011752546,-0.023102045,0.08051205,0.013793945,-0.03781128,0.0029907227
2019-07-01T19:28:04.208Z,0.118723,0.087465264,0.5420566,-0.447464,2.9431763,9.116653,21.310425,-2.0858765,-39.500427,-0.15701711,2.856304,9.380154,-0.10391921,-0.09021354,0.10198498,0.10371399,-0.03652954,-0.019500732
2019-07-01T19:28:04.399Z,0.12741715,0.093790494,0.54443955,-0.22253418,3.0604248,9.930222,20.716858,-2.6306152,-40.190125,-0.15471742,3.0601132,9.315695,0.06090547,-0.028822899,-0.15294456,0.1793518,-0.08454895,0.019714355
2019-07-01T19:28:04.607Z,0.11376322,0.09607724,0.5430728,-0.04067993,3.041275,9.028122,21.520996,-4.626465,-39.346313,-0.34547472,2.867234,9.371766,0.09612644,0.061598778,0.015485764,-0.08125305,0.051361084,0.006652832
2019-07-01T19:28:04.808Z,0.12034581,0.085896306,0.5455574,-0.25125122,2.892929,9.176468,21.133423,-4.135132,-40.28778,-0.10204216,2.866248,9.377878,-0.10811283,-0.021255732,0.17494202,-0.064208984,0.00390625,-0.009902954
2019-07-01T19:28:05.019Z,0.11842737,0.07556042,0.5467193,0.011962891,2.8426666,9.250656,19.37561,-3.8848877,-40.390015,0.04658899,2.7275417,9.419593,-0.02829403,0.26206017,-0.41086578,0.16712952,-0.06388855,0.014343262
2019-07-01T19:28:05.227Z,0.10785241,0.063720495,0.54793084,0.24885559,2.4047852,9.434906,19.099426,-2.581787,-41.775513,0.12538826,2.434367,9.49887,0.07100718,-0.023395538,0.164505,-0.37843323,-0.116363525,0.0033416748
2019-07-01T19:28:05.418Z,0.109036155,0.06436812,0.54833424,0.1651001,2.4741821,9.437286,19.096375,-1.5182495,-37.709045,0.12906343,2.4600275,9.492207,0.011604652,-0.012693644,-0.031030655,-0.0017852783,0.014465332,-0.0001373291
2019-07-01T19:28:05.617Z,0.1094849,0.06643617,0.55022407,0.4091797,2.2779694,9.765106,19.108582,-2.5878906,-40.722656,0.10634766,2.4888287,9.484979,0.047675602,-0.037015438,0.018107414,0.005554199,0.01184082,-0.0018463135
2019-07-01T19:28:05.825Z,0.10747276,0.069493644,0.55238676,0.14596558,2.3377838,9.334396,19.491577,-2.7740479,-41.83197,0.041664615,2.489186,9.485389,0.031627174,-0.0053915977,0.0073432922,0.026016235,0.050994873,0.010131836
2019-07-01T19:28:06.044Z,0.10922824,0.0812084,0.56058604,0.3397827,2.4933167,9.188446,20.811462,-4.231262,-39.990234,-0.10006621,2.6428063,9.443301,0.13809131,-0.08932567,0.102544785,0.19577026,0.17030334,0.03315735
2019-07-01T19:28:06.254Z,0.11653782,0.09927072,0.56371,-0.2632141,2.9694977,9.030518,20.874023,-3.604126,-35.48584,-0.2918606,2.952767,9.346997,-0.031419694,-0.06288314,-0.08707714,0.060409546,0.054901123,-0.04460144
2019-07-01T19:28:06.432Z,0.11496399,0.09353588,0.5621464,-0.82073975,3.103485,9.238693,21.595764,-4.9179077,-38.653564,-0.22513773,2.8659203,9.375831,-0.23237838,0.1353035,-0.15637875,0.027297974,-0.12998962,0.02784729
2019-07-01T19:28:06.638Z,0.13407478,0.09644017,0.5635855,0.28474426,2.9862366,9.43251,20.45288,-5.1330566,-39.482117,-0.048916634,3.1944106,9.271663,0.057814565,-0.28571486,0.088365555,0.07537842,0.026748657,-0.076675415
2019-07-01T19:28:06.841Z,0.11608404,0.12095577,0.55483997,-0.0765686,3.0915222,9.176468,23.678589,-3.2470703,-38.926697,-0.66994447,3.1716063,9.2554035,0.2920063,0.102365494,-0.16875839,-0.0028686523,0.24494934,-0.07337952