timestamp,rotationVector_x,rotationVector_y,rotationVector_z,accelerometer_x,accelerometer_y,accelerometer_z,magneticField_x,magneticField_y,magneticField_z,gravity_x,gravity_y,gravity_z,linearAcceleration_x,linearAcceleration_y,linearAcceleration_z,gyroscope_x,gyroscope_y,gyroscope_z
2019-07-01T19:24:44.173Z,0.27324575,0.121848315,0.9214379,3.6921234,4.2520447,5.441284,-8.792114,-30.43518,-26.068115,4.3458343,3.5305197,8.051059,-2.0295267,-1.1831219,-0.4262166,0.37075806,-0.529068,-0.21691895
2019-07-01T19:24:44.374Z,0.19542967,0.12986153,0.94537115,6.941574,4.5918274,14.172684,-9.298706,-29.005432,-26.812744,3.0472107,3.2753272,8.726806,-0.7738638,1.1162136,0.06826687,0.103027344,0.08143616,0.3257141
2019-07-01T19:24:44.600Z,0.3078937,0.20046997,0.91483206,5.4269257,4.400406,3.4791565,-13.215637,-30.743408,-24.28894,4.8654466,4.609218,7.159115,0.32039738,-0.6197109,2.2439184,0.8609772,-0.22424316,0.10018921
2019-07-01T19:24:44.788Z,0.17946978,0.20530552,0.95084757,-0.17468262,5.8289185,4.256836,-14.723206,-34.440613,-21.278381,2.7561455,4.345278,8.348209,1.3195078,-0.5112095,-1.8717318,0.014511108,0.9904785,-0.06175232
2019-07-01T19:24:44.993Z,0.18578602,0.22684655,0.94860476,2.6081696,5.5082703,8.975479,-11.878967,-37.153625,-23.005676,2.9269152,4.65435,8.120381,-0.37546182,0.9624729,-2.0065408,-0.27211,0.47935486,0.32131958
2019-07-01T19:24:45.196Z,0.1880608,0.20156462,0.95740753,1.2514496,3.1968079,14.342575,-13.250732,-34.887695,-25.886536,3.1918712,4.101738,8.3161335,0.30666876,1.6067767,1.0894995,-0.18200684,-0.29833984,0.22277832
2019-07-01T19:24:45.392Z,0.2550972,0.26391283,0.9300976,3.7854462,2.170288,10.688736,-16.247559,-36.064148,-22.000122,4.5814657,4.8840537,7.164257,-1.9860487,-0.9948664,1.4568443,0.6797333,0.613327,0.63261414
2019-07-01T19:24:45.598Z,-0.2203762,-0.32080597,-0.91941434,2.7637177,3.5892334,5.2570343,-16.944885,-37.96234,-18.432617,4.329648,5.5406957,6.8355856,-1.886723,-2.120821,0.36811924,0.3478546,-0.29821777,0.1890564
2019-07-01T19:24:45.801Z,-0.2005945,-0.23186858,-0.9496042,5.027313,6.587448,8.104492,-17.163086,-37.164307,-19.844055,4.032545,4.0620155,7.9629765,-1.5598929,-0.37350678,0.9544573,-0.47566223,-0.4814148,0.27799988
2019-07-01T19:24:46.007Z,-0.21581812,-0.19944341,-0.9519392,3.1369934,4.4817505,2.177475,-19.1391,-35.890198,-22.299194,4.367253,3.3582256,8.112941,0.5611205,1.3519871,1.2474699,-0.1798706,0.67752075,0.34355164
2019-07-01T19:24:46.208Z,-0.1889526,-0.2217838,-0.94651496,3.328415,3.7447662,4.6492615,-19.825745,-35.443115,-20.140076,4.1107984,3.6034958,8.141655,0.06246519,-0.36116648,-0.24846268,0.47705078,-0.045196533,0.39590454
2019-07-01T19:24:46.407Z,-0.11133627,-0.17025375,-0.9533019,5.1469574,2.297104,10.025925,-20.526123,-33.085632,-19.78302,2.8271291,2.6958327,8.99501,-0.50115705,-0.05298686,-0.52964115,0.5025177,0.29096985,0.74458313
2019-07-01T19:24:46.623Z,-0.15335122,-0.266231,-0.91483605,5.017746,5.28096,6.757324,-26.38092,-31.61316,-15.6188965,4.120004,3.9887438,7.955242,0.59897804,-0.11004186,-1.0596342,-0.13069153,0.1307373,0.2890625
2019-07-01T19:24:46.814Z,-0.14547615,-0.2367294,-0.95122695,3.0747833,2.3066864,10.853836,-20.059204,-31.52008,-20.61615,3.3363967,4.0341754,8.292422,1.4368947,-1.7105801,-1.5030336,0.10546875,0.5038605,-0.4618683
2019-07-01T19:24:47.039Z,0.13174917,0.13509193,0.9738129,4.3381805,1.2753754,8.025528,-12.763977,-33.799744,-21.228027,2.1803715,2.9078956,9.108267,1.4790139,-2.83207,0.7754774,-0.9476166,-0.3378601,-1.5568542
2019-07-01T19:24:47.227Z,0.11592077,0.054790642,0.9056887,2.5435638,-1.2012024,9.336792,1.53656,-29.216003,-29.112244,1.624919,1.8920096,9.484216,-1.2511238,-1.8067098,0.659153,-1.05867,-0.6399231,-2.8741455
2019-07-01T19:24:47.421Z,0.10661312,0.024097674,0.8271567,0.6652069,1.4763641,10.272385,12.434387,-21.963501,-34.274292,1.4690789,1.5436039,9.5723295,-0.43124485,0.176409,0.22557163,-0.95910645,-0.23504639,-2.3321075
2019-07-01T19:24:47.621Z,0.08917079,-0.014660449,0.73937064,0.6412811,0.7537384,9.963715,16.897583,-13.3377075,-36.627197,1.4849586,0.95430166,9.6464815,-0.3867551,-0.50915205,0.37287235,-0.5072937,-0.06681824,-1.5232544
2019-07-01T19:24:47.836Z,0.11358579,-0.061411414,0.63460565,2.273178,0.28953552,9.580856,15.22522,-4.88739,-40.57617,2.331551,0.9331472,9.479636,-0.18292546,-0.40644026,0.39032555,-0.2342987,-0.5743866,-1.3578949
2019-07-01T19:24:48.033Z,0.11491995,-0.060197957,0.586188,0.18902588,0.50727844,10.707886,12.905884,1.3931274,-43.20526,2.2654588,1.1104374,9.476551,-1.8526411,0.033635616,1.5839424,-0.35739136,-0.40560913,-1.3228302
2019-07-01T19:24:48.235Z,0.08792028,-0.05514659,0.6436631,0.7082825,-0.29670715,6.920044,13.423157,2.307129,-43.870544,1.9300535,0.6113224,9.595392,-2.1859264,-0.6529456,-0.92245483,-0.029296875,-0.034744263,-0.08766174
2019-07-01T19:24:48.438Z,0.1433549,0.012839497,0.72356874,-0.100494385,1.5337982,6.9966125,13.83667,-5.039978,-42.590332,1.8644291,2.0803094,9.400352,-0.44282198,-2.0113268,-2.2443628,0.45225525,0.21565247,1.2211914
2019-07-01T19:24:48.640Z,0.096830264,0.037386686,0.73934823,0.9690857,2.9981995,13.275375,17.536926,-11.238098,-38.56659,0.9163112,1.8056102,9.595339,-0.35641217,0.7550248,0.6638384,0.64149475,0.519928,0.44441223
2019-07-01T19:24:48.852Z,0.06707395,0.028927177,0.7774198,4.199402,2.4430695,10.351349,20.800781,-8.856201,-35.873413,0.668285,1.262928,9.702,0.056446075,0.8693292,2.4244576,-0.3712616,0.33702087,0.26445007
2019-07-01T19:24:49.051Z,0.10345203,0.04131003,0.7959536,0.17706299,1.9597168,11.621933,18.702698,-12.792969,-35.07843,1.1329173,1.8522196,9.5632715,0.49177969,0.81124055,-0.06364441,0.03778076,0.22303772,0.645874
2019-07-01T19:24:49.242Z,0.105640285,0.06263569,0.81982535,2.0434723,1.5074768,11.461624,15.858459,-15.164185,-35.595703,1.0115595,2.1659694,9.510821,1.0178792,-0.85471845,1.1273699,0.10601807,-0.45759583,0.35583496
2019-07-01T19:24:49.452Z,0.16955829,0.095848106,0.80002856,2.4646149,3.2279205,7.417755,15.811157,-20.513916,-32.380676,1.5937952,3.3911347,9.062583,0.6535095,-1.0872028,0.27655792,0.34014893,-0.347641,-0.67097473
2019-07-01T19:24:49.668Z,0.15067022,0.14985092,0.7473908,-1.0265198,3.7662964,8.946762,19.625854,-19.673157,-32.818604,0.35854617,4.0568485,8.920977,-0.47451082,-0.09499216,0.30515957,0.32426453,0.40605164,-0.5367737
2019-07-01T19:24:49.854Z,0.13557528,0.1693826,0.7505109,0.20578003,3.7328033,8.389236,21.165466,-19.654846,-31.594849,-0.078117386,4.153186,8.88343,-0.58796155,-0.46215296,-0.010213852,0.13661194,-0.14537048,-0.05870056
2019-07-01T19:24:50.066Z,0.16260155,0.15994161,0.7370394,-0.105285645,4.2113647,7.848465,20.988464,-20.031738,-31.436157,0.35477805,4.341024,8.786355,-0.31538734,-0.19635344,-2.0924435,-0.34266663,0.018341064,-0.06254578
2019-07-01T19:24:50.267Z,0.12039293,0.15167058,0.73669106,0.06939697,4.7856445,8.559128,21.269226,-17.012024,-32.948303,-0.1878275,3.721392,9.071182,-0.5684948,0.8571117,0.4327469,-0.24987793,0.086257935,-0.2037201
2019-07-01T19:24:50.464Z,0.07301485,0.07569862,0.7567407,1.5673065,0.85902405,11.454437,23.054504,-12.95166,-33.55255,0.12577257,2.0474982,9.589699,-0.019414045,0.9718087,-0.89954853,-0.9492035,-0.19174194,0.45985413
2019-07-01T19:24:50.671Z,0.110971764,0.075042844,0.7416672,0.9379883,1.9812622,8.157135,21.089172,-11.459351,-36.039734,0.6468832,2.5221434,9.454667,0.13376945,-0.54564595,1.26548,0.5504761,-0.34579468,-0.60658264
2019-07-01T19:24:50.868Z,0.07693592,0.06402069,0.7070242,-4.1084747,4.003189,18.111282,20.422363,-10.044861,-36.250305,0.18782769,1.9441639,9.610169,0.2951694,-0.68006563,-3.129815,-1.3775482,0.51612854,-0.43151855
2019-07-01T19:24:51.074Z,0.01224851,0.065447345,0.68915564,-3.2374878,-0.46420288,10.145569,26.222229,-1.298523,-33.34961,-0.760648,1.0579667,9.719697,0.38061517,0.0015263557,3.6304836,0.70417786,-0.08917236,-0.495224
2019-07-01T19:24:51.276Z,0.07702822,0.058839902,0.6633633,0.55992126,1.552948,9.092728,23.005676,-2.7359009,-35.17151,0.14590132,1.8865373,9.622374,-2.0440693,-0.8228303,0.34660244,0.3652649,-0.17518616,0.0043945312
2019-07-01T19:24:51.474Z,0.082961075,0.055050965,0.66339505,0.59103394,1.8999023,10.463806,23.187256,-4.1122437,-34.854126,0.27869135,1.9230013,9.612221,0.1275804,0.30693698,-0.4737301,-0.1658783,-0.23706055,-0.06163025
2019-07-01T19:24:51.681Z,0.09376058,0.055109546,0.6549281,0.7393799,2.2301178,8.544769,21.098328,-3.9535522,-35.7193,0.3960746,2.0831132,9.574661,-0.37945366,-0.2558632,0.2220068,0.1159668,-0.11782837,-0.123931885
2019-07-01T19:24:51.879Z,0.10046697,0.026169682,0.647017,0.18664551,2.1152496,10.825134,20.739746,-2.5756836,-37.76245,0.88722587,1.8205538,9.595249,-0.18214554,0.17136776,-0.26062584,-0.16044617,-0.23144531,0.13616943
2019-07-01T19:24:52.105Z,0.1190386,0.04254573,0.68722856,-0.8374939,2.5052795,9.918243,19.004822,-5.383301,-38.264465,1.007561,2.2436402,9.493223,-0.6636231,0.20443487,0.8228321,0.5347748,0.09719849,0.9630432
2019-07-01T19:24:52.295Z,0.16302235,0.07599885,0.756845,2.9288177,2.4430695,7.824524,16.532898,-14.3081665,-36.657715,1.4833181,3.1372595,9.172118,0.076809764,-1.4918435,0.27376938,0.62849426,0.13989258,0.42736816
2019-07-01T19:24:52.490Z,0.1644564,0.08571542,0.7573529,2.0267181,2.6967163,9.04248,17.63916,-16.947937,-34.74884,1.3902607,3.2927966,9.132089,-0.40349758,0.20238566,-0.56779003,-0.33973694,-0.03804016,0.2960205
2019-07-01T19:24:52.699Z,0.15689342,0.05211418,0.7773658,1.2322998,2.9001007,10.463806,16.644287,-15.467834,-36.52191,1.7717403,2.6622307,9.27059,-0.36213517,0.15510201,0.3375082,0.12147522,-0.17720032,0.38581848
2019-07-01T19:24:52.891Z,0.17792004,0.053554658,0.8138648,2.8091736,1.9549408,9.702896,12.164307,-20.35675,-36.880493,2.261778,2.7760534,9.129527,-0.46453977,0.3187394,-0.057229996,-0.12098694,0.027557373,0.9619293
2019-07-01T19:24:53.103Z,0.17669795,0.054075748,0.85938954,2.6608124,2.4311066,8.317459,10.585022,-21.78955,-34.99298,2.4726691,2.5637572,9.136928,-0.013413668,-0.45946407,0.28364468,0.2194519,0.12107849,0.5126953
2019-07-01T19:24:53.298Z,0.16995089,0.041473165,0.8784154,2.411972,2.3784637,8.810379,8.840942,-23.072815,-34.806824,2.566267,2.1969366,9.206418,0.08411908,0.055978537,0.016263008,0.033065796,0.005874634,0.3039093
2019-07-01T19:24:53.504Z,0.21072054,0.048054304,0.8937543,2.4885406,1.7515411,9.745972,7.875061,-23.06366,-34.838867,3.3233654,2.4668264,8.890467,-0.5034621,-0.43780375,0.32807064,-0.2638092,-0.0021820068,0.28118896
2019-07-01T19:24:53.713Z,0.1406095,0.016063763,0.908386,3.1609192,2.4143524,7.0133667,3.8833618,-24.357605,-33.805847,2.381199,1.3712721,9.413814,0.40332913,0.6402322,-0.39086628,0.3865204,-0.10084534,0.20024109
2019-07-01T19:24:53.908Z,0.14693442,0.05173519,0.90919065,3.0436707,-0.0023956299,10.626526,7.0266724,-22.167969,-35.30121,2.22835,2.035366,9.3307085,-0.114596605,-0.8539305,1.0275679,-0.43327332,0.4519806,0.17074585
2019-07-01T19:24:54.112Z,0.26366132,0.0108120935,0.86969304,2.3617096,1.0887299,11.511871,5.8288574,-24.156189,-33.54187,4.408959,2.341534,8.440894,-1.2387791,0.8609967,-1.3186378,0.64393616,-0.9495239,-0.4560089
2019-07-01T19:24:54.317Z,0.15726106,0.08769889,0.9147116,4.2544403,1.9501495,10.68396,4.0481567,-24.195862,-34.458923,2.1990693,2.6892223,9.170745,0.9442277,-0.67103267,0.64230824,-0.17364502,0.5462494,0.2427063
2019-07-01T19:24:54.517Z,0.030043552,0.08858858,0.92128,0.3397827,0.8566284,11.894714,10.3012085,-27.008057,-31.66504,-0.1130129,1.8231697,9.635023,0.357428,0.9837698,-0.40818214,0.3988037,1.149292,0.12693787
2019-07-01T19:24:54.718Z,0.04287882,0.10827707,0.9105712,0.050247192,1.4931183,9.437286,15.684509,-23.439026,-32.29065,-0.07647765,2.2672985,9.540645,0.05768965,-0.7356446,0.7358818,-0.6929474,0.49066162,-0.15496826
2019-07-01T19:24:54.920Z,0.045287162,0.1469207,0.89322466,0.050247192,2.5028992,10.133606,16.714478,-24.040222,-30.567932,-0.42410964,2.9492009,9.343059,-0.12005553,-0.356668,0.007241249,0.41540527,-0.05014038,-0.37561035
2019-07-01T19:24:55.121Z,0.05439862,0.17045861,0.8841654,-0.20100403,2.663208,8.683548,19.688416,-24.51477,-28.598022,-0.49943662,3.4164286,9.178723,-0.3818079,0.26234984,-0.3204813,0.36880493,-0.010986328,-0.36968994
2019-07-01T19:24:55.388Z,0.014424929,0.16197658,0.9123304,-1.696518,3.287735,10.636093,20.762634,-25.834656,-27.775574,-0.93568885,3.0046933,9.287987,0.16323358,-0.11620927,0.10316467,0.0008239746,0.1179657,0.63645935
2019-07-01T19:24:55.531Z,0.068657234,0.1897832,0.9271906,0.44984436,3.706482,9.511475,17.884827,-27.493286,-26.486206,0.07390214,3.8762069,9.0077715,-0.8384016,-0.5646105,0.7967081,0.5835266,-0.69400024,0.34031677
2019-07-01T19:24:55.731Z,0.18843143,0.23035778,0.8909071,1.5744781,5.5345917,6.6472626,13.742065,-32.374573,-24.667358,1.7424564,5.2931795,8.069478,-0.94626904,-0.41742086,-0.036317825,0.3973999,-0.83621216,-0.35099792
2019-07-01T19:24:55.933Z,0.19332772,0.17961442,0.87103534,0.26081848,5.6327057,8.324631,9.992981,-33.425903,-24.726868,1.8432102,4.6395245,8.44084,-0.07614422,0.44042587,-0.28527164,-0.49319458,-0.35232544,-0.4701233
2019-07-01T19:24:56.144Z,0.19410759,0.16833012,0.8747661,3.0963135,4.1802673,9.743576,12.249756,-29.092407,-28.166199,1.9739943,4.45207,8.511922,-0.9772999,0.59247303,0.12158871,0.19996643,-0.09246826,0.19309998
2019-07-01T19:24:56.344Z,0.22807059,0.18302184,0.8676286,2.2636108,4.99382,8.437088,9.823608,-31.222534,-28.048706,2.437585,4.9133024,8.129455,0.19474506,-0.28326654,0.022361755,-0.024536133,-0.22381592,0.055892944
2019-07-01T19:24:56.543Z,0.24054897,0.16886656,0.8598911,2.8043823,4.902893,7.728821,8.569336,-30.508423,-27.851868,2.6745505,4.817176,8.112459,-0.20572996,0.15580416,-0.07335186,-0.047927856,-0.12069702,-0.09492493
2019-07-01T19:24:56.764Z,0.23865613,0.15691143,0.8620705,2.8546448,4.833496,8.303101,9.210205,-30.308533,-29.118347,2.7468343,4.6126347,8.206638,-0.28241634,0.27001667,-0.036162376,-0.048599243,0.023529053,0.12834167
2019-07-01T19:24:56.949Z,0.23116226,0.1750324,0.87311524,2.6153564,4.462616,7.9250336,7.6812744,-30.644226,-27.313232,2.613148,4.774258,8.157714,-0.030686617,0.16399288,0.029583931,0.15567017,0.30880737,0.27775574
2019-07-01T19:24:57.162Z,0.20003112,0.18509926,0.8921918,2.1511536,4.5631104,8.781662,9.710693,-32.113647,-27.1698,2.1927602,4.652049,8.349889,0.2015667,0.064711094,-0.098576546,0.007293701,0.36842346,0.25871277
2019-07-01T19:24:57.363Z,0.19229864,0.19594638,0.9013743,2.096115,4.7114716,7.903488,8.029175,-33.906555,-26.483154,2.1126025,4.7271924,8.328322,-0.02878046,-0.021811485,0.24362278,0.0617218,0.11026001,0.20996094
2019-07-01T19:24:57.559Z,0.17794566,0.19183592,0.9134596,2.1104736,4.2520447,8.456238,6.967163,-32.52716,-25.779724,2.015472,4.524615,8.463812,0.03495407,0.09854746,-0.035419464,0.012176514,0.17721558,0.23426819
2019-07-01T19:24:57.776Z,0.17262687,0.20232436,0.92261785,1.5696869,4.819153,8.061417,6.6818237,-33.79364,-24.36676,2.01522,4.6070237,8.4193,-0.1743052,0.24296665,-0.25601482,-0.17926025,0.15681458,0.45802307
2019-07-01T19:24:57.964Z,0.15788014,0.15553601,0.94761896,2.8713837,3.0675964,9.92543,3.8833618,-33.094788,-25.994873,2.2327135,3.6029937,8.843292,0.14900064,0.028096676,0.01777172,-0.17529297,0.11198425,0.33372498
2019-07-01T19:24:58.187Z,0.17954592,0.17938446,0.9402785,3.0245209,3.6897278,8.499313,3.1539917,-33.06122,-26.864624,2.5130486,4.1070514,8.54325,-0.06793356,-0.29711533,0.5310974,0.27313232,-0.35630798,-0.017044067
2019-07-01T19:24:58.372Z,0.21403176,0.14851157,0.9365085,3.3954163,3.1944122,8.556732,0.5371094,-32.51953,-25.13733,3.2476902,3.7131262,8.475589,-0.2855606,0.4178741,-0.40528584,-0.6244049,-0.42149353,0.0884552
2019-07-01T19:24:58.583Z,0.17502066,0.071962655,0.9492055,1.5074768,1.4763641,10.6336975,-1.5548706,-29.776001,-30.307007,2.9035478,2.2026951,9.104281,0.69686556,0.4205675,-0.9872799,-0.92977905,0.72865295,0.079055786
2019-07-01T19:24:58.779Z,0.10615425,0.03182997,0.9612974,1.8113708,0.87338257,8.843872,3.2302856,-24.620056,-33.90808,1.8439834,1.1253034,9.5657625,0.3140725,0.13688493,0.32350254,-0.52905273,0.3859558,-0.11843872
2019-07-01T19:24:58.980Z,0.07122985,-0.06571765,0.9340115,1.380661,-0.42114258,9.915863,6.802368,-17.721558,-37.483215,1.7480597,-0.7235142,9.622432,0.08445132,0.5116426,0.50115585,-0.8101654,-0.110809326,-0.6690216
2019-07-01T19:24:59.195Z,0.090426125,-0.09229305,0.9250543,2.3641052,-0.9260254,8.200211,7.05719,-13.613892,-38.319397,2.2871969,-1.0410231,9.479209,-0.33754325,0.035448432,0.3822279,-0.15019226,-0.37182617,-0.34812927
2019-07-01T19:24:59.387Z,0.12842935,-0.110588245,0.8932865,2.325821,-0.45703125,8.740982,3.7597656,-13.162231,-40.431213,3.1531005,-0.8888816,9.24328,-0.10627079,-0.31000715,0.13064003,-0.13119507,-0.38305664,-0.7258911
2019-07-01T19:24:59.592Z,0.16157833,-0.14989631,0.85030794,4.0486603,-0.9260254,8.059021,3.4484863,-9.394836,-39.953613,4.0997405,-0.9853289,8.853906,-0.38250732,0.6320161,-0.4010601,-0.3087616,-0.40444946,-0.4514923
2019-07-01T19:24:59.796Z,0.014041084,0.0017855453,0.94438946,0.91645813,0.830307,7.6211395,2.0584106,-9.925842,-39.778137,0.24857222,0.123545885,9.80272,1.1537093,-0.87867224,1.0734787,0.14021301,0.6463165,0.3982849
2019-07-01T19:24:59.994Z,0.030513225,0.16834202,0.95207477,0.72024536,-0.1268158,10.482956,5.302429,-11.169434,-39.55841,-0.2673472,3.2952418,9.232567,0.5508179,-1.939704,-0.3579216,1.9520569,1.838974,1.9674835
2019-07-01T19:25:00.194Z,0.062236924,0.17517066,0.9484522,-0.31106567,3.3332062,9.753143,12.335205,-26.963806,-29.322815,0.27590835,3.5718849,9.12885,-0.44975796,0.095086336,0.3205042,0.79273987,-0.11489868,0.07875061
2019-07-01T19:25:00.411Z,0.07154592,0.21053365,0.9334205,0.7417755,2.9862366,9.171692,10.961914,-31.234741,-26.133728,0.14713894,4.2494526,8.8369055,-0.02357401,-0.37095737,-0.19346905,0.05090332,-0.26028442,-0.13096619
2019-07-01T19:25:00.603Z,0.07660023,0.1845886,0.9240493,0.18185425,4.546356,8.544769,13.041687,-31.991577,-23.805237,0.20849353,3.8350048,9.023285,-0.46096504,0.4973395,-0.30660725,0.25531006,-0.022720337,-0.3215027
2019-07-01T19:25:00.811Z,0.07679993,0.16313899,0.92358845,0.117248535,3.780655,9.442078,13.557434,-30.543518,-27.534485,0.30862737,3.4648368,9.168971,0.0467875,-0.060014486,0.24650097,-0.3407135,-0.27426147,-0.27824402
2019-07-01T19:25:01.011Z,0.09899975,0.16954608,0.90677375,0.36849976,3.677765,9.403793,14.588928,-29.090881,-27.279663,0.5199532,3.7398286,9.050619,-0.29887408,0.07337952,-0.16678905,0.049560547,-0.16914368,-0.29632568
2019-07-01T19:25:01.216Z,0.11118325,0.15273935,0.898073,1.0073853,2.9551392,9.305695,14.822388,-27.246094,-28.349304,0.7684775,3.5565565,9.106631,-0.2308197,0.20699048,0.012420654,-0.079208374,-0.24415588,-0.27745056
2019-07-01T19:25:01.410Z,0.119320124,0.14555378,0.87847406,0.17945862,4.1683044,8.671585,15.475464,-26.750183,-30.163574,0.8021538,3.5356045,9.111884,0.12415403,-0.40468502,0.3439951,-0.1763916,-0.22001648,-0.1902771
2019-07-01T19:25:01.616Z,0.12968147,0.14566399,0.85693115,-0.1531372,4.364502,9.150162,15.611267,-25.201416,-31.36444,0.81650895,3.6617308,9.060653,-0.14450061,0.058728933,-0.13370323,0.1434021,-0.29821777,-0.65148926
2019-07-01T19:25:01.819Z,0.14299753,0.14244057,0.84763646,1.5792694,2.2564392,9.365509,17.556763,-25.003052,-30.950928,1.0064766,3.744277,9.00765,-1.2013401,0.7291577,-0.23626614,-0.07237244,-0.012207031,-0.27452087
2019-07-01T19:25:02.025Z,0.15139326,0.09381942,0.84344953,1.763504,2.802002,9.040085,14.93988,-21.72699,-34.10034,1.5718613,3.056963,9.184477,0.5899669,-0.49206495,0.21084976,-0.24481201,-0.4636383,0.14691162
2019-07-01T19:25:02.219Z,0.15453036,0.10660427,0.831633,0.65802,3.8859406,8.298309,14.738464,-20.942688,-33.40454,1.4278072,3.3228438,9.1153965,-0.016225934,-0.042734146,0.037407875,0.07809448,0.021881104,0.0006713867
2019-07-01T19:25:02.440Z,0.14480951,0.103384316,0.8448181,1.0791626,3.0867462,9.427719,14.7872925,-21.7453,-32.966614,1.3762589,3.1462142,9.185731,-0.09594083,0.12275362,-0.20242691,0.02128601,0.20251465,0.21783447
2019-07-01T19:25:02.624Z,0.1443977,0.11248935,0.8568166,1.1102753,3.4791565,8.872589,14.109802,-22.746277,-31.707764,1.3630888,3.2555714,9.149515,-0.06855798,-0.067741394,0.11996651,0.07675171,0.09262085,0.27391052
2019-07-01T19:25:02.829Z,0.1393742,0.11615036,0.8731146,1.2634125,3.242279,9.073578,13.896179,-23.77472,-32.513428,1.3559027,3.2259796,9.161057,-0.0901885,0.064863205,0.03534603,0.07675171,0.12742615,0.36932373
2019-07-01T19:25:03.038Z,0.13038023,0.11839509,0.88914883,1.0456696,2.9192505,9.4253235,13.7146,-24.603271,-30.709839,1.292922,3.1447923,9.198316,0.025017142,0.016913652,-0.12059021,-0.24224854,0.07795715,0.25889587
2019-07-01T19:25:03.242Z,0.12695253,0.08378427,0.8993259,2.0075836,2.1343994,9.530609,12.664795,-24.215698,-33.23059,1.5655847,2.49866,9.352862,-0.062086463,0.17378044,0.22271919,-0.09844971,-0.09246826,0.17684937
2019-07-01T19:25:03.442Z,0.14780988,0.058419336,0.894081,2.4095764,2.1726837,9.020935,10.380554,-23.129272,-33.06732,2.1121647,2.2384315,9.311207,-0.07015562,-0.07270646,0.11904049,-0.19081116,-0.3323059,-0.20121765
2019-07-01T19:25:03.641Z,0.15366624,0.050103914,0.8855903,2.0913239,2.3090668,9.169296,9.182739,-22.612,-34.951782,2.2411766,2.1826394,9.294278,-0.10672259,0.15508795,-0.059185028,-0.063568115,-0.109573364,-0.095962524
2019-07-01T19:25:03.849Z,0.15224299,0.059692014,0.88613755,2.0147552,2.445465,9.296112,7.98645,-22.479248,-34.046936,2.1383412,2.3322115,9.282169,0.027272463,0.08440757,-0.09580612,0.09005737,0.14924622,0.0884552
2019-07-01T19:25:04.070Z,0.13890576,0.07042638,0.8922997,1.8352966,2.3641052,9.609573,11.11908,-22.789001,-33.02765,1.8456868,2.3869364,9.3309355,0.1633712,-0.045739174,0.034316063,0.1217041,0.15486145,0.044525146
2019-07-01T19:25:04.250Z,0.14738655,0.084454395,0.89296746,1.6366882,2.9814606,9.202789,11.003113,-23.828125,-31.724548,1.8908714,2.6841059,9.240702,0.05229938,-0.1892097,0.13952732,0.20381165,-0.043045044,0.060913086
2019-07-01T19:25:04.465Z,0.15922682,0.10150026,0.89698553,2.1678925,3.103485,8.688339,10.55603,-26.701355,-31.61316,2.0055447,3.0339324,9.107328,-0.15632534,-0.042052984,-0.036463737,0.16795349,0.04814148,0.18907166
2019-07-01T19:25:04.653Z,0.15115976,0.10993603,0.9025711,1.7611237,2.9766693,9.238693,9.780884,-26.174927,-30.871582,1.8395976,3.0960162,9.121455,0.23787403,-0.10472107,-0.0742836,-0.08811951,0.100494385,-0.005126953
2019-07-01T19:25:04.859Z,0.14557482,0.08710832,0.89994675,1.5601196,2.9599152,9.181259,10.168457,-24.311829,-32.84607,1.8833328,2.6843104,9.242181,-0.046411514,0.16361332,0.030599594,-0.23149109,-0.10115051,-0.10798645
2019-07-01T19:25:05.073Z,0.14470473,0.07078719,0.8946816,2.273178,1.9788666,9.303299,9.907532,-22.944641,-32.785034,1.9607688,2.4246504,9.297679,-0.04343927,0.10112023,0.11926365,-0.14541626,-0.12893677,-0.17481995
2019-07-01T19:25:05.266Z,0.15013257,0.07407631,0.88283277,1.7324066,2.6440735,9.102295,10.539246,-23.118591,-33.29773,1.9620051,2.5748527,9.2569475,0.19468522,-0.22877598,0.03860092,0.08370972,-0.0051116943,-0.2685852
2019-07-01T19:25:05.485Z,0.1549501,0.07834833,0.8717508,1.6199341,3.115448,8.764908,12.10022,-22.505188,-33.010864,1.9452957,2.7319522,9.215348,-0.14208674,0.020454884,0.0026435852,0.0032653809,-0.057403564,-0.15570068
2019-07-01T19:25:05.672Z,0.15151195,0.065388165,0.8734428,1.8927155,2.3377838,9.317657,10.902405,-22.221375,-33.05359,2.008048,2.4815176,9.272551,-0.11334777,0.22563434,-0.08195782,-0.09692383,-0.01361084,0.06878662
2019-07-01T19:25:05.886Z,0.15677175,0.06535338,0.87427753,1.9812622,2.6967163,9.087936,10.174561,-22.039795,-34.422302,2.1053524,2.518891,9.240837,-0.13987708,-0.07174301,0.16272354,0.041015625,-0.07505798,0.015396118
2019-07-01T19:25:06.074Z,0.16721986,0.073823646,0.880568,2.445465,2.3928223,9.047256,9.831238,-22.496033,-34.87854,2.254923,2.7090602,9.151322,0.012489796,-0.01571536,-0.1744566,0.07539368,-0.06651306,0.07513428
2019-07-01T19:25:06.278Z,0.1432812,0.06427429,0.8895405,2.067398,2.6081696,8.886948,9.370422,-23.9151,-34.317017,1.9589678,2.3270183,9.322973,0.16809821,0.07540035,0.13643456,-0.019515991,0.15205383,0.1506958
2019-07-01T19:25:06.502Z,0.14704955,0.054129414,0.88843805,2.3688965,1.8783722,9.482758,10.839844,-21.554565,-34.654236,2.104347,2.1874897,9.325074,-0.0601151,0.08559823,-0.010025978,-0.167099,0.049362183,0.035614014
2019-07-01T19:25:06.681Z,0.15193221,0.04559885,0.88772047,2.2755737,1.976471,9.4253235,10.267639,-21.81549,-34.45587,2.258783,2.0818124,9.3131275,-0.0110788345,-0.05082059,0.0643692,-0.058013916,-0.04776001,0.056015015
2019-07-01T19:25:06.890Z,0.15443483,0.04646544,0.8848057,2.0554352,2.1559296,9.336792,10.174561,-21.961975,-34.936523,2.2816532,2.1305099,9.296525,0.036895752,-0.06853342,0.109814644,-0.04084778,-0.07829285,-0.042144775
2019-07-01T19:25:07.089Z,0.16597055,0.071022995,0.8783524,2.3306122,2.1056824,9.640686,9.262085,-22.528076,-35.54077,2.242681,2.6643493,9.167443,0.10520697,-0.36555505,0.17356968,0.115600586,-0.021194458,-0.060836792
2019-07-01T19:25:07.296Z,0.16991816,0.081930384,0.87449926,1.8376923,3.3116608,8.638092,10.594177,-23.6969,-33.267212,2.1963663,2.89442,9.108715,-0.041094303,0.044483423,-0.22359943,0.28883362,0.041610718,-0.15771484
2019-07-01T19:25:07.499Z,0.16045223,0.08075056,0.876933,1.7754669,2.8666077,9.688538,10.037231,-23.512268,-33.509827,2.053681,2.791753,9.173816,0.07794356,0.108389854,-0.09126949,0.0019683838,-0.011291504,-0.02986145
2019-07-01T19:25:07.693Z,0.1598712,0.08516574,0.8813377,2.079361,2.9024963,9.243469,11.663818,-23.114014,-33.721924,2.0345953,2.8404999,9.163099,-0.12121701,0.026068687,0.11231613,-0.031921387,0.08119202,0.053756714
2019-07-01T19:25:07.912Z,0.17358989,0.09031424,0.88547254,2.1726837,3.397812,9.028122,9.857178,-24.191284,-32.27997,2.2681434,3.0035033,9.0556555,-0.09391689,-0.12162018,0.054980278,0.04272461,-0.022232056,0.13757324
2019-07-01T19:25:08.113Z,0.18858498,0.09851216,0.88994926,2.4382935,3.419342,8.673981,9.066772,-25.701904,-32.330322,2.512317,3.2115526,8.9187765,0.034678698,-0.13832879,0.117082596,0.19366455,-0.07695007,0.19810486
2019-07-01T19:25:08.314Z,0.18384781,0.10914686,0.89366966,2.2636108,3.3619232,9.28894,7.5668335,-26.971436,-31.697083,2.3779013,3.3356698,8.910067,0.117046595,-0.04722023,-0.19325733,0.1749115,-0.032730103,0.07940674
2019-07-01T19:25:08.512Z,0.18119629,0.094972275,0.89409876,2.519638,2.8666077,8.882156,8.886719,-26.304626,-31.312561,2.4353614,3.0813699,8.985797,-0.12598681,0.22333622,0.09475708,-0.05508423,0.11430359,0.03048706
2019-07-01T19:25:08.711Z,0.18452317,0.07798411,0.89146996,2.9647064,2.773285,9.0759735,8.074951,-24.606323,-31.538391,2.6047459,2.8342872,9.019562,0.033632517,-0.055161,0.09103966,-0.10522461,-0.12588501,-0.1381073
2019-07-01T19:25:08.925Z,0.18367323,0.07437149,0.8829412,3.0508423,2.555542,9.198013,6.7474365,-25.039673,-33.987427,2.5599096,2.821171,9.036495,0.08735275,0.01946807,-0.014903069,-0.025939941,-0.010681152,-0.19987488
2019-07-01T19:25:09.120Z,0.18775441,0.08161886,0.8729601,2.6081696,3.0580292,8.906082,8.364868,-24.861145,-33.865356,2.5059004,3.0278664,8.984591,0.11281681,-0.14597797,-0.035084724,0.07344055,0.011795044,-0.21716309
2019-07-01T19:25:09.324Z,0.1908911,0.08106772,0.8642,2.6799622,2.720642,8.874985,9.143066,-23.794556,-33.229065,2.5066817,3.0904014,8.963055,-0.15271759,0.19833255,-0.0752573,-0.10595703,-0.10395813,-0.020950317
2019-07-01T19:25:09.519Z,0.19759618,0.054654982,0.86268914,2.691925,3.0795593,8.549561,9.161377,-23.278809,-33.87909,2.847777,2.7164836,8.982275,-0.06487727,-0.019456148,0.18496132,-0.056854248,-0.14628601,-0.08380127
2019-07-01T19:25:09.725Z,0.1973077,0.06635788,0.86288404,2.6129608,3.041275,9.102295,8.627319,-24.177551,-35.324097,2.7398443,2.9052656,8.956733,-0.06323004,0.04275322,-0.096097946,0.09312439,0.03616333,0.05845642
2019-07-01T19:25:09.940Z,0.199154,0.08159375,0.8721132,2.8211365,3.2374878,9.241089,8.300781,-24.499512,-33.940125,2.703303,3.1121056,8.898165,-0.010959148,0.012017012,-0.10597706,0.17155457,0.14942932,0.2301178
2019-07-01T19:25:10.135Z,0.1925153,0.09609463,0.8799293,2.526825,3.2614136,9.018555,9.715271,-25.737,-31.607056,2.5241368,3.2578466,8.898626,0.20020938,-0.12016153,-0.00070762634,0.037475586,0.14276123,0.08772278
2019-07-01T19:25:10.343Z,0.18977368,0.087588884,0.88348943,2.5531464,3.1704865,8.910873,9.048462,-26.065063,-32.478333,2.5682137,3.0781937,8.949826,-0.09672308,0.098974705,0.14351845,-0.07254028,-0.06700134,0.07287598
2019-07-01T19:25:10.548Z,0.19136365,0.08056006,0.8856066,2.7541351,2.9407806,8.913269,6.7367554,-25.48523,-33.02002,2.6675065,2.9585638,8.961122,0.05479908,0.0058722496,0.014499664,-0.03100586,-0.03187561,0.005065918
2019-07-01T19:25:10.740Z,0.19691347,0.07456978,0.8811285,2.9072723,2.7996063,8.886948,6.8130493,-25.553894,-33.1131,2.7837627,2.923969,8.937084,-0.021786928,-0.009816885,0.012813568,-0.08366394,-0.12979126,-0.10371399
2019-07-01T19:25:10.950Z,0.2031753,0.066372685,0.8743439,2.399994,3.2087708,9.08316,7.347107,-23.96698,-35.606384,2.9170134,2.87446,8.910605,0.07692933,-0.04130459,0.013767242,-0.03302002,-0.079833984,-0.13529968
2019-07-01T19:25:11.153Z,0.21156032,0.0713218,0.86817664,3.9338074,2.4693909,8.446671,8.13446,-24.809265,-33.166504,2.9824383,3.0534594,8.829034,-0.16331983,-0.04872179,0.21444416,0.16030884,-0.06651306,-0.12547302
2019-07-01T19:25:11.354Z,0.21925378,0.08791804,0.85665315,2.847458,3.5892334,8.671585,8.520508,-24.920654,-34.336853,2.8930085,3.4494328,8.712193,0.14983511,-0.1966033,-0.12180042,0.009674072,-0.113601685,-0.18130493
2019-07-01T19:25:11.557Z,0.22856851,0.0670691,0.8488512,2.9862366,3.2805634,8.769699,7.810974,-24.526978,-34.605408,3.1845977,3.2322335,8.693755,-0.11894369,0.17032576,-0.09084511,-0.10662842,-0.07836914,-0.04159546
2019-07-01T19:25:11.753Z,0.22688527,0.063461855,0.84993917,3.2015991,3.139389,9.621536,7.4508667,-25.271606,-35.876465,3.19561,3.1550703,8.718027,-0.012882471,0.037473917,0.0487957,0.13380432,0.066101074,-0.0037231445
2019-07-01T19:25:11.972Z,0.2285476,0.08297925,0.8525777,3.3547363,3.5437775,8.93959,7.8552246,-25.550842,-33.76007,3.0688741,3.4611716,8.64712,-0.11176205,-0.0013821125,0.040272713,0.1444397,0.025054932,0.057174683
2019-07-01T19:25:12.164Z,0.23006824,0.10796393,0.850476,2.622528,4.0414734,8.518448,8.163452,-26.278687,-31.35376,2.8624654,3.8790758,8.539874,0.15526819,-0.15029836,-0.041810036,0.13117981,0.099823,-0.00390625
2019-07-01T19:25:12.369Z,0.22875148,0.10848483,0.8545143,2.9742737,3.8332977,8.882156,8.6502075,-26.019287,-32.30133,2.8687968,3.8530807,8.549512,-0.03032875,0.011386156,0.04412651,0.06135559,0.023651123,0.07366943
2019-07-01T19:25:12.562Z,0.23307331,0.13081853,0.8614766,2.9886322,3.907486,8.516052,8.999634,-27.235413,-32.487488,2.8302832,4.1841073,8.405541,0.051362514,-0.10895252,0.06781101,0.12800598,0.0569458,0.13175964
2019-07-01T19:25:12.767Z,0.23280376,0.13299052,0.8644271,2.945572,4.165909,8.429916,6.590271,-29.0802,-31.556702,2.8376667,4.196707,8.396766,0.021943808,0.0012798309,-0.061797142,0.12451172,0.06854248,0.08924866
2019-07-01T19:25:12.975Z,0.21854708,0.1354967,0.8706143,2.7302094,4.197006,8.315063,7.9223633,-28.346252,-30.10254,2.6172168,4.111481,8.509776,0.09024215,0.021665096,-0.064395905,-0.04133606,0.055664062,0.048568726
2019-07-01T19:25:13.182Z,0.21037807,0.12691063,0.874254,2.5531464,4.1611176,8.657227,9.249878,-29.203796,-30.482483,2.5651374,3.9038053,8.622688,0.043177128,0.06464863,0.1007185,-0.021347046,0.19725037,0.07727051
2019-07-01T19:25:13.387Z,0.21487847,0.11842965,0.87280285,2.646469,3.8644104,8.539978,8.375549,-28.890991,-30.836487,2.6983714,3.805517,8.625962,-0.05442071,0.095914364,-0.008757591,-0.11341858,-0.057525635,-0.0012817383
2019-07-01T19:25:13.576Z,0.21303456,0.10766088,0.87005657,2.979065,3.5246277,8.561523,8.317566,-28.463745,-30.444336,2.724622,3.6393397,8.689191,0.21541047,-0.0052518845,0.038788795,-0.060638428,-0.060028076,-0.014160156
2019-07-01T19:25:13.782Z,0.22170281,0.08584161,0.8202345,3.625122,1.8975067,3.8428802,8.299255,-26.850891,-31.552124,2.6906772,3.643337,8.698089,1.6073587,-2.2784946,0.6271124,-0.13290405,-0.08319092,-0.17451477
2019-07-01T19:25:14.004Z,0.25674248,0.13155752,0.59577,1.0001984,5.005783,10.145569,8.987427,-25.708008,-32.099915,1.065978,5.3116913,8.174352,-3.6459718,0.61426973,-0.65743923,0.52053833,0.038375854,-2.4970398
2019-07-01T19:25:14.193Z,0.27506214,0.07266575,0.64630127,3.632309,4.3956146,6.898514,20.051575,-19.134521,-32.876587,2.4775712,4.7410383,8.21916,-0.250767,-0.087654114,0.40179825,-0.622818,-1.2248993,-1.3665161
2019-07-01T19:25:14.402Z,0.24682732,0.0026498481,0.6123768,2.5172424,2.5052795,10.360916,15.617371,-13.20343,-36.621094,2.9255428,3.667694,8.611597,-0.40441275,-0.45188713,0.16008472,-0.3096161,-0.8034668,0.381485
2019-07-01T19:25:14.592Z,0.22730933,0.07510757,0.62025726,1.4931183,3.9768677,8.767303,10.597229,-9.57489,-40.133667,1.6649112,4.2439294,8.682598,0.06811035,-1.0301094,0.53087044,-0.4506073,0.21784973,-0.24848938
2019-07-01T19:25:14.803Z,0.224441,0.09795977,0.62342566,0.87098694,4.1204376,8.415558,13.800049,-8.273315,-39.39514,1.3176787,4.4664936,8.630443,0.049056053,-0.42309475,0.14055061,0.38920593,0.51930237,-0.050704956
2019-07-01T19:25:14.993Z,0.20458235,0.101921596,0.6290885,0.5048828,3.9792633,8.370087,18.392944,-10.089111,-38.667297,1.0390271,4.238756,8.782013,-0.15479112,-0.31783295,0.21758556,-0.030334473,0.2936554,0.05430603
2019-07-01T19:25:15.206Z,0.21514505,0.08685848,0.62755406,1.1318054,4.0797577,8.085342,18.031311,-9.088135,-39.053345,1.3819934,4.2051682,8.750832,-0.5110415,-0.39604998,0.28387547,-0.046585083,-0.081970215,0.12614441
2019-07-01T19:25:15.404Z,0.18658641,0.07926536,0.6313951,0.102890015,3.5772705,9.911072,17.845154,-9.608459,-39.305115,1.1469883,3.7207708,9.000593,0.119090796,-0.0018780231,-0.23281384,-0.14425659,0.24417114,0.04496765
2019-07-01T19:25:15.628Z,0.18734495,0.10853242,0.6422288,0.047851562,3.7495575,9.305695,19.288635,-9.962463,-37.698364,0.79462343,4.0689206,8.887229,0.01805532,-0.60442257,0.36707306,0.19317627,0.15229797,0.07385254
2019-07-01T19:25:15.820Z,0.17925818,0.13710274,0.65489733,0.026321411,3.8596191,9.566513,21.287537,-12.394714,-36.161804,0.36309153,4.2967906,8.807732,-0.18947667,-0.4566288,-0.0067834854,0.05267334,0.30122375,0.24586487
2019-07-01T19:25:16.020Z,0.16191974,0.12816761,0.66893417,-0.04307556,3.6969147,10.365707,21.951294,-12.216187,-34.640503,0.32939023,3.9492586,8.970242,0.0742906,-0.08445382,0.17907715,-0.11419678,0.16708374,0.078811646
2019-07-01T19:25:16.220Z,0.14677875,0.16066743,0.68880594,0.59580994,3.0652008,9.767502,23.631287,-12.698364,-33.299255,-0.1961591,4.1613126,8.877803,-0.0031846315,-0.35092878,-0.0001783371,-0.0032806396,0.5293884,0.16664124
2019-07-01T19:25:16.426Z,0.119487904,0.17227106,0.6828087,-0.7848511,3.426529,7.7934265,25.933838,-11.904907,-31.193542,-0.7645249,3.9472578,8.944553,0.048572123,-0.38404965,0.61559963,0.03930664,0.14129639,-0.13908386
2019-07-01T19:25:16.614Z,0.10773772,0.18747756,0.6797516,-1.3686981,3.5844421,9.131012,27.278137,-12.701416,-29.597473,-1.1406637,3.9804316,8.889626,-0.007817626,-0.41862106,0.052212715,0.07901001,0.18504333,-0.092422485
2019-07-01T19:25:16.818Z,0.11327793,0.20714068,0.6741603,-2.096115,4.496109,7.795822,29.170227,-11.849976,-29.125977,-1.3454092,4.29378,8.713421,-0.2983588,-0.42005205,0.38804817,0.16123962,-0.05882263,0.008560181
2019-07-01T19:25:17.023Z,0.12222268,0.19007164,0.67886186,-0.7010956,3.3930206,9.279373,26.864624,-12.870789,-30.2948,-0.9770765,4.205495,8.805085,-0.6306595,0.11581755,-0.28850365,-0.09875488,-0.19259644,0.16401672
2019-07-01T19:25:17.225Z,0.13488193,0.18973838,0.6773637,-0.7034912,3.8907318,8.398804,27.339172,-12.82959,-31.515503,-0.80499744,4.3668675,8.7437315,0.053023398,-0.6054616,0.059049606,0.051834106,-0.013793945,-0.078552246
2019-07-01T19:25:17.428Z,0.1125165,0.17336684,0.67392164,-1.1581268,3.4049835,9.820145,26.174927,-11.811829,-31.486511,-0.9246231,3.856841,8.968847,-0.17050487,0.056688786,-0.123259544,-0.30400085,0.030181885,-0.07096863
2019-07-01T19:25:17.634Z,0.10678851,0.17070097,0.6733144,-1.1652985,3.5317993,9.224335,26.940918,-10.888672,-31.40564,-0.97156924,3.7442946,9.011476,-0.21002668,-0.26084232,0.35427284,0.07736206,-0.010009766,-0.0068359375
2019-07-01T19:25:17.843Z,0.119136915,0.1799552,0.67063946,-1.1102753,3.8811646,9.018555,27.76947,-12.219238,-31.332397,-0.9378131,4.025351,8.893112,-0.17809564,-0.33759165,0.14437103,0.18695068,-0.019958496,0.018325806
2019-07-01T19:25:18.043Z,0.13268349,0.18596107,0.67214465,-1.0121613,4.1228333,8.944366,27.354431,-12.767029,-29.84314,-0.8196287,4.2843566,8.783102,-0.2529536,-0.28747606,-0.004872322,0.06440735,-0.018310547,0.074035645
2019-07-01T19:25:18.242Z,0.12864022,0.18369661,0.6753896,-0.94755554,3.9840546,8.827118,27.398682,-13.490295,-30.444336,-0.8271151,4.205898,8.820244,-0.15477717,-0.12797976,-0.007545471,-0.08610535,0.02999878,0.03579712
2019-07-01T19:25:18.441Z,0.10663472,0.17662066,0.6815437,-1.8999023,4.1036835,9.994827,27.644348,-11.656189,-29.852295,-1.0067042,3.8293407,8.971794,0.018721223,0.038514376,-0.21648788,-0.28659058,0.1907196,0.068847656
2019-07-01T19:25:18.643Z,0.10101178,0.18538597,0.6971241,-1.2921295,3.259018,9.650253,27.322388,-13.650513,-28.964233,-1.1101446,3.8921895,8.932459,-0.20617664,-0.41863847,0.44542885,0.18164062,0.0953064,0.11148071
2019-07-01T19:25:18.846Z,0.12415974,0.18700099,0.6878653,-1.105484,3.5892334,8.8701935,25.43335,-16.023254,-30.802917,-0.85658705,4.2037926,8.818434,-0.7363074,-0.34955359,-0.16868687,0.28840637,-0.6404877,-0.008422852
2019-07-01T19:25:19.058Z,0.20403907,0.16649634,0.7381297,0.9906311,5.52742,9.308075,20.428467,-17.869568,-32.86133,0.92555535,4.8961105,8.446409,-0.1410414,-0.050519943,0.54426956,0.2303772,-0.3670044,0.39590454
2019-07-01T19:25:19.252Z,0.17319429,0.18916832,0.7479861,2.7182465,3.8979034,8.4227295,19.16809,-22.918701,-31.874084,0.2696091,4.8546314,8.516469,1.4202325,-0.13454485,-0.2674904,0.2868805,0.24832153,0.7707367
2019-07-01T19:25:19.464Z,0.12856713,0.16554336,0.76152915,-1.0384827,4.347763,7.412964,21.452332,-20.515442,-31.100464,-0.07100909,4.01909,8.944958,-0.4562506,0.1958232,-0.3765669,-0.33869934,0.54429626,-0.17971802
2019-07-01T19:25:19.669Z,0.099216275,0.16519065,0.77064127,-0.1483612,3.826126,9.221939,23.176575,-19.741821,-31.315613,-0.46842098,3.6788745,9.078372,0.027154922,0.021389246,0.38054943,-0.44059753,0.23477173,0.099868774
2019-07-01T19:25:19.867Z,0.09601634,0.17423071,0.7702516,0.16989136,3.5126648,9.533005,24.485779,-19.293213,-30.900574,-0.6200324,3.773198,9.030445,0.115949154,-0.1442833,-0.05501175,-0.040603638,0.072769165,0.035369873
2019-07-01T19:25:20.076Z,0.09369039,0.16795647,0.7684859,-0.7800598,3.6705933,9.193222,24.685669,-18.482971,-30.21698,-0.5982212,3.6529694,9.081208,-0.16306186,-0.0034503937,0.056544304,-0.0002746582,0.13220215,-0.04324341
2019-07-01T19:25:20.269Z,0.124607846,0.14355657,0.76311475,-0.110076904,3.6059875,9.025726,24.319458,-17.63153,-30.255127,0.1258986,3.6582153,9.097912,-0.37747985,-0.1371696,0.12687302,-0.057937622,-0.26901245,-0.03199768
2019-07-01T19:25:20.470Z,0.11412645,0.16782396,0.7664987,0.33021545,3.4815521,9.116653,22.276306,-18.35022,-30.393982,-0.28995028,3.8869276,8.998783,-0.0004222989,-0.27164173,0.15581131,0.06263733,-0.10798645,-0.02558899
2019-07-01T19:25:20.679Z,0.1291667,0.17387389,0.7473422,-0.5168457,4.134796,9.552155,22.671509,-18.54248,-30.37262,-0.24881232,4.1399446,8.886469,0.0979898,-0.035912037,-0.23562336,0.24571228,0.057800293,-0.06713867
2019-07-01T19:25:20.884Z,0.12356912,0.17579846,0.745732,-0.5144501,3.8452606,8.164307,22.543335,-17.974854,-29.496765,-0.3670914,4.099698,8.901017,-0.12721515,-0.058389664,0.23018551,-0.04347229,-0.0048675537,-0.19631958
2019-07-01T19:25:21.087Z,0.113783166,0.18251367,0.7476866,-0.7657013,3.974472,8.846268,24.14856,-18.165588,-28.845215,-0.5803839,4.078549,8.899382,-0.15574455,-0.08183622,0.040763855,0.02116394,0.106781006,0.0008544922
2019-07-01T19:25:21.284Z,0.121885985,0.15983146,0.7335512,-0.4665985,3.3714905,8.886948,24.786377,-17.887878,-31.080627,-0.2816051,3.8515947,9.014228,-0.20001405,0.00033903122,-0.3812704,-0.042373657,-0.015686035,-0.016296387
2019-07-01T19:25:21.492Z,0.07999227,0.12604763,0.73339516,-0.22970581,2.5507507,9.61676,23.64502,-14.4592285,-31.619263,-0.48895663,2.8536222,9.369534,-0.19405442,0.416296,0.20515537,-0.38494873,-0.12539673,-0.052841187
2019-07-01T19:25:21.696Z,0.08722335,0.12226511,0.73112434,-0.5288086,2.9575348,9.138184,23.422241,-12.139893,-31.970215,-0.3451403,2.8917618,9.36424,-0.011050999,-0.2268424,0.19760323,0.15164185,-0.00970459,-0.014343262
2019-07-01T19:25:21.900Z,0.09982002,0.120031945,0.7303555,0.36849976,2.7972107,8.958725,22.23816,-13.304138,-32.684326,-0.13563977,3.0213332,9.328641,-0.2757676,-0.0580976,0.040467262,0.010650635,-0.21580505,0.010574341
2019-07-01T19:25:22.102Z,0.114682294,0.10944991,0.7268907,0.13160706,3.1872406,8.642868,23.75946,-13.267517,-34.025574,0.20057473,3.063391,9.313743,-0.067423835,-0.12663746,-0.063319206,-0.0574646,-0.064315796,0.0066070557
2019-07-01T19:25:22.294Z,0.094993904,0.10301519,0.73181224,-0.023925781,2.5172424,9.820145,22.987366,-12.744141,-32.75299,0.015931781,2.7212167,9.421524,0.09801318,0.013314486,-0.0902586,-0.11476135,0.1317749,-0.039886475
2019-07-01T19:25:22.514Z,0.09398276,0.112737015,0.7264287,-0.16270447,2.7589264,9.430115,24.517822,-12.565613,-33.53424,-0.1454966,2.8438127,9.384132,0.02286318,-0.17226982,0.21666336,0.19714355,0.048080444,-0.09510803
2019-07-01T19:25:22.706Z,0.09706834,0.12462391,0.72287834,-0.34457397,3.0245209,9.451645,23.318481,-12.730408,-31.782532,-0.2679758,3.0475833,9.317232,-0.040036082,-0.07572818,-0.052757263,0.024520874,0.0158844,-0.025405884
2019-07-01T19:25:22.912Z,0.09980691,0.12890996,0.7239567,-0.26560974,2.9527435,9.147766,23.294067,-13.165283,-32.322693,-0.27758685,3.1425645,9.285344,-0.0211142,-0.10074091,0.044556618,0.0050354004,-0.008666992,-0.0071411133
2019-07-01T19:25:23.114Z,0.100132234,0.12913764,0.72010624,-0.55992126,3.2374878,9.22673,24.180603,-13.180542,-32.13501,-0.293763,3.148262,9.282916,-0.018297315,-0.12454796,0.09793186,0.07839966,-0.0029144287,-0.07330322
2019-07-01T19:25:23.311Z,0.10235542,0.13052858,0.7157166,-0.5168457,3.0173492,9.568893,23.21167,-13.320923,-31.674194,-0.29996502,3.1942232,9.267003,-0.16523647,0.033085585,-0.16927338,-0.058441162,0.013687134,-0.03627014
2019-07-01T19:25:23.526Z,0.09486119,0.12800041,0.7200467,-0.25602722,3.0628204,9.363113,24.111938,-12.739563,-33.026123,-0.35589436,3.064273,9.30881,0.012352169,-0.06221819,0.18313313,0.014511108,0.013198853,0.007888794
2019-07-01T19:25:23.728Z,0.097837865,0.13497323,0.71778196,-0.5694885,3.242279,9.095123,24.208069,-12.672424,-31.655884,-0.4122312,3.1973877,9.261596,0.15156811,-0.15562797,0.051898003,0.060928345,0.04624939,-0.049835205
2019-07-01T19:25:23.924Z,0.096454084,0.13786325,0.7152924,-0.5814514,3.2183533,9.190826,24.255371,-13.320923,-31.942749,-0.48082653,3.2172525,9.251404,-0.11036953,0.036084414,-0.076851845,-0.034851074,-0.022705078,-0.020950317
2019-07-01T19:25:24.128Z,0.09531386,0.12887819,0.7159636,-0.41156006,2.8953094,9.403793,24.971008,-11.517334,-32.888794,-0.37911975,3.0800052,9.302699,-0.14071435,0.026401281,-0.007946968,-0.05947876,-0.08294678,-0.014526367
2019-07-01T19:25:24.328Z,0.09487108,0.123102665,0.713766,-0.38046265,2.9024963,9.375076,24.034119,-12.672424,-33.08258,-0.3207529,2.99409,9.332895,0.046365887,-0.050524235,0.02591896,-0.04109192,0.02432251,-0.022659302
2019-07-01T19:25:24.530Z,0.09062422,0.12843378,0.7144193,-0.5862427,2.9934235,9.320038,24.528503,-10.751343,-32.183838,-0.44770837,3.011548,9.322045,-0.050862193,-0.04204321,0.070988655,0.049194336,0.049301147,-0.014831543
2019-07-01T19:25:24.741Z,0.09629235,0.13339628,0.7127976,-0.5001068,3.270996,9.454041,23.658752,-12.268066,-32.23114,-0.43762738,3.1525786,9.275781,-0.14555743,-0.13485146,0.067230225,0.09263611,-0.040298462,0.035308838
2019-07-01T19:25:24.941Z,0.10267886,0.1418975,0.7162721,-0.5814514,3.3954163,8.755341,25.157166,-12.8967285,-32.1167,-0.43744037,3.353776,9.204957,-0.006129712,-0.103182554,0.09113312,0.11669922,0.07875061,0.070007324
2019-07-01T19:25:25.137Z,0.10056678,0.143818,0.721082,-0.39959717,3.2566376,9.236298,24.63379,-13.877869,-32.22046,-0.4683269,3.3560336,9.202614,-0.100030154,0.005256653,-0.129138,-0.08018494,0.0069122314,0.10206604
2019-07-01T19:25:25.336Z,0.056153182,0.1309168,0.7362043,-0.5383911,3.1130676,9.444473,24.987793,-11.457825,-30.987549,-0.88797194,2.6190093,9.408649,0.06589389,0.434237,-0.31124783,-0.091171265,0.08644104,0.10096741
2019-07-01T19:25:25.539Z,0.039550334,0.1325202,0.7423645,-0.36131287,1.4763641,10.155136,25.552368,-11.5737915,-30.352783,-1.1280628,2.438055,9.431529,0.115006804,-0.47904158,0.49997807,-0.5776062,0.3608551,0.0635376
2019-07-01T19:25:25.741Z,0.04539792,0.13971347,0.7465892,-1.2634125,2.847458,9.243469,27.415466,-11.456299,-29.425049,-1.1132778,2.6235852,9.383379,-0.08398783,0.09207559,-0.11661625,0.2916565,0.003250122,0.011795044
2019-07-01T19:25:25.946Z,0.04830762,0.14063223,0.7542973,-1.2514496,2.589035,9.659821,25.83313,-12.80365,-28.805542,-1.0491561,2.6864314,9.372979,0.08220911,-0.09026241,-0.01667118,0.027633667,-0.012390137,0.13615417
2019-07-01T19:25:26.151Z,0.041442383,0.15321678,0.75651217,-1.138977,2.8618164,9.698105,25.741577,-12.875366,-29.79889,-1.2915959,2.78906,9.312535,0.11805415,-0.007663965,0.10507679,0.015731812,0.045394897,0.042999268
2019-07-01T19:25:26.350Z,0.05614702,0.14861025,0.7543065,-1.2275238,2.7421722,9.265015,25.883484,-13.380432,-29.379272,-1.0260589,2.9001012,9.31166,-0.07089937,-0.08635235,-0.04852581,0.042541504,0.059326172,0.045272827
2019-07-01T19:25:26.549Z,0.02641336,0.13907348,0.7545132,-1.0049896,2.7708893,8.784058,26.28479,-13.35144,-29.76532,-1.3571237,2.390065,9.413617,0.09321296,0.26247668,-0.08980179,-0.018966675,-0.03627014,-0.053131104
2019-07-01T19:25:26.756Z,0.03713094,0.14928111,0.7523691,-1.4691925,2.9742737,8.111664,26.687622,-11.732483,-28.16925,-1.3274808,2.6693296,9.342529,-0.09718442,-0.340662,0.25548458,-0.20492554,0.13452148,-0.017837524
2019-07-01T19:25:26.960Z,0.04753035,0.14701234,0.74988866,-1.0576324,2.8091736,9.346359,26.086426,-12.571716,-28.54004,-1.155734,2.7618997,9.338446,-0.05458653,0.019109726,-0.15912533,0.18518066,-0.09893799,-0.028945923
2019-07-01T19:25:27.163Z,0.046735387,0.15137956,0.7465542,-1.2107697,2.766098,9.166901,25.457764,-13.842773,-29.754639,-1.2342436,2.8088758,9.314357,0.077250004,-0.043729544,0.08842182,0.039489746,-0.030349731,-0.029006958
2019-07-01T19:25:27.364Z,0.057237774,0.15320681,0.7355983,-1.1772614,2.9192505,9.506683,27.287292,-12.559509,-29.19159,-1.1495523,2.9483802,9.282023,-0.043637276,-0.09001374,0.019634247,0.07595825,-0.028396606,-0.096450806
2019-07-01T19:25:27.566Z,0.07043265,0.15492417,0.7229949,-0.8805542,2.9910278,9.150162,25.72174,-13.314819,-29.660034,-1.0357629,3.1218207,9.238605,0.037255526,-0.08222151,-0.038568497,0.08395386,-0.14414978,-0.16615295
2019-07-01T19:25:27.774Z,0.076753974,0.1558222,0.7089221,-0.7513428,3.122635,8.386841,26.753235,-13.38501,-30.921936,-1.021885,3.1956332,9.214883,-0.09874773,-0.08825755,0.087470055,0.08590698,-0.06803894,-0.17817688
2019-07-01T19:25:27.975Z,0.046314865,0.15745616,0.70190895,-0.9786682,1.5266266,10.112076,26.69983,-11.054993,-30.523682,-1.5028478,2.7972624,9.278317,-0.08845341,0.428226,-0.5235319,-0.5140228,0.25143433,-0.036346436
2019-07-01T19:25:28.177Z,0.050600257,0.15830673,0.69878924,-1.6773682,3.1417694,8.673981,28.604126,-9.9105835,-30.368042,-1.4667505,2.8601747,9.264903,-0.058520913,-0.7715156,0.5965805,0.40820312,-0.13865662,-0.11141968
2019-07-01T19:25:28.391Z,0.049811713,0.15391354,0.69610614,-1.4859467,2.6847534,9.399002,28.248596,-8.843994,-29.985046,-1.4314662,2.7847397,9.293358,-0.12985337,0.20220113,-0.24637318,-0.0901947,-0.0033569336,0.030914307
2019-07-01T19:25:28.582Z,0.04229992,0.15811752,0.6999147,-1.6701965,2.703888,9.200409,28.036499,-8.277893,-29.634094,-1.5753386,2.747362,9.281201,0.07173121,0.004457712,0.046649933,-0.031982422,0.13476562,0.074157715
2019-07-01T19:25:28.786Z,0.04125638,0.15969823,0.705742,-1.6319122,2.7756805,9.396622,27.523804,-8.892822,-29.73938,-1.5870279,2.7680533,9.273058,-0.07203901,-0.07924032,0.055336952,0.04901123,-0.004760742,0.09535217
2019-07-01T19:25:28.989Z,0.045102026,0.16389456,0.7125315,-1.5673065,2.864212,9.310471,29.257202,-9.724426,-29.9057,-1.5579338,2.8926218,9.239911,0.0010961294,-0.0312047,-0.084739685,-0.008895874,0.041122437,0.10189819
2019-07-01T19:25:29.195Z,0.03746546,0.1622769,0.71683264,-1.701294,2.7182465,9.245865,27.69165,-10.482788,-30.296326,-1.6282007,2.7790446,9.262628,0.04764366,0.013676167,0.02881527,-0.088974,0.066101074,0.04814148
2019-07-01T19:25:29.397Z,0.037161626,0.14326373,0.73014086,0.2632141,2.280365,8.817551,28.356934,-10.307312,-28.475952,-1.3422248,2.53781,9.377012,-0.5339813,0.07692337,0.059944153,-0.117752075,-0.25953674,0.19914246
2019-07-01T19:25:29.594Z,0.035254087,0.13915204,0.7350441,-1.2299042,2.2660065,10.037888,27.740479,-11.056519,-31.019592,-1.300277,2.464293,9.402495,0.39946628,0.0505116,-0.31865788,-0.19917297,0.19934082,0.027679443
2019-07-01T19:25:29.798Z,0.0045253956,0.12498201,0.74088824,-1.8065796,1.4596252,10.482956,27.799988,-9.815979,-30.467224,-1.5518143,1.8747164,9.49988,0.095463395,0.32041955,0.0071372986,-0.2601471,0.07807922,0.06365967
2019-07-01T19:25:30.000Z,0.009468696,0.13319196,0.74305993,-1.8352966,2.3904266,9.224335,27.598572,-10.932922,-29.40216,-1.5750905,2.0629048,9.456949,0.015231252,-0.34564137,0.3099079,0.22787476,0.023468018,0.05632019
2019-07-01T19:25:30.206Z,0.010229977,0.14171413,0.7470678,-1.6438751,2.1152496,9.39183,27.946472,-10.629272,-28.070068,-1.6550621,2.2067564,9.410706,0.059797645,0.0336864,-0.055134773,0.007843018,0.07019043,0.033416748
2019-07-01T19:25:30.410Z,0.012359562,0.14332004,0.752056,-1.9597168,2.2588196,9.257828,27.102661,-11.410522,-28.497314,-1.6257409,2.2699351,9.4007845,-0.12885118,-0.098329306,0.053004265,0.04095459,-0.046295166,0.13806152
2019-07-01T19:25:30.619Z,0.013438309,0.14035888,0.76533973,-1.1988068,2.3641052,9.236298,27.436829,-12.994385,-28.30658,-1.5270793,2.272424,9.416714,-0.04204011,-0.007332325,-0.03922558,-0.058624268,0.017669678,0.15112305
2019-07-01T19:25:30.835Z,0.020427903,0.13745482,0.7696597,-1.0791626,2.5914307,8.951553,26.405334,-12.471008,-29.515076,-1.3715993,2.3246279,9.427896,-0.10491717,-0.03841567,0.06213951,0.07217407,-0.11317444,0.02810669
2019-07-01T19:25:31.017Z,0.023116538,0.13195944,0.7672996,-1.208374,2.2133636,9.475586,26.533508,-11.366272,-29.522705,-1.2752496,2.2702336,9.454637,0.08960664,0.11542535,-0.1416645,-0.10821533,0.013809204,-0.059127808
2019-07-01T19:25:31.220Z,0.009364583,0.12757829,0.7547977,-1.6247253,1.8257294,10.372879,27.185059,-11.103821,-29.797363,-1.4712101,2.0068452,9.4857,0.2994734,0.18011427,0.16200638,0.04058838,-0.035110474,-0.30793762
2019-07-01T19:25:31.423Z,0.06587868,0.1360263,0.7320582,-2.108078,2.2157593,8.640488,25.393677,-12.87384,-32.954407,-0.82631683,2.8113713,9.35862,-0.7827088,-0.31931233,0.17206097,0.42536926,-0.5211792,-0.15631104
2019-07-01T19:25:31.636Z,0.083864056,0.18410349,0.7158242,0.17468262,3.534195,8.003998,24.699402,-16.140747,-31.402588,-1.235843,3.684061,9.003932,0.25419986,0.13775921,-0.36819744,0.5740509,0.2132721,0.02810669
2019-07-01T19:25:31.854Z,0.08381712,0.16720757,0.7202393,-1.5218353,3.7926178,8.958725,27.566528,-13.485718,-29.620361,-1.0067946,3.4602232,9.120504,-0.1622963,0.107064486,-0.016052246,-0.14315796,0.08454895,-0.18881226
2019-07-01T19:25:32.032Z,0.074582346,0.16065516,0.7204506,-0.7513428,3.1944122,9.138184,26.629639,-14.335632,-31.489563,-1.0588704,3.2509441,9.19133,0.0686028,0.022285461,0.14088726,-0.14248657,-0.088012695,0.03591919
2019-07-01T19:25:32.231Z,0.07883397,0.1620933,0.72104424,-1.1676941,3.4432678,8.903687,26.312256,-12.767029,-29.345703,-1.0121073,3.3267887,9.169433,-0.09262729,0.11880112,-0.101379395,-0.024108887,0.009231567,-0.01625061
2019-07-01T19:25:32.456Z,0.08257533,0.15629825,0.7247204,-1.0049896,3.2949219,9.028122,25.985718,-14.303589,-31.530762,-0.86784637,3.3002565,9.193777,0.00902611,-0.054330587,0.007054329,-0.014389038,-0.045440674,0.047836304
2019-07-01T19:25:32.635Z,0.0843714,0.1534875,0.7261665,-0.8063812,3.3308105,9.229111,25.592041,-14.111328,-31.55365,-0.7997547,3.286219,9.204974,-0.051531136,0.028265,0.07569504,-0.0074920654,-0.0438385,0.020217896
2019-07-01T19:25:32.841Z,0.09423198,0.15626922,0.7294309,-0.87338257,3.2303162,8.858231,24.235535,-13.990784,-30.717468,-0.67248446,3.454127,9.153532,-0.14221072,-0.010759115,0.1650734,0.01687622,-0.016296387,0.03250122
2019-07-01T19:25:33.044Z,0.095763125,0.16372894,0.7359234,-1.174881,3.5030975,8.812759,24.180603,-15.153503,-31.407166,-0.70493716,3.584007,9.101008,0.28405493,-0.11069775,-0.2024908,0.1273346,-0.040237427,0.10281372
2019-07-01T19:25:33.245Z,0.09598567,0.15270564,0.73651826,-0.007171631,3.2231293,8.492126,23.46344,-15.135193,-30.690002,-0.5659946,3.4332318,9.168584,-0.21743995,0.075363636,0.033926964,-0.07095337,0.010879517,0.029205322
2019-07-01T19:25:33.451Z,0.09953537,0.14400195,0.73737615,-0.33259583,3.3834534,9.054443,24.44458,-14.477539,-32.10907,-0.40310436,3.3562472,9.205623,0.0015135705,-0.045433283,-0.0169878,-0.08299255,-0.09815979,0.010147095
2019-07-01T19:25:33.650Z,0.10078048,0.14491546,0.73714423,-0.4283142,3.4528503,9.040085,23.42987,-15.637207,-31.925964,-0.39687148,3.3844724,9.195555,0.057256937,0.0057041645,-0.004337311,0.029708862,-0.029006958,0.015090942
2019-07-01T19:25:33.855Z,0.09783074,0.1450313,0.7392897,-0.3756714,3.3379822,9.011368,24.118042,-14.794922,-31.178284,-0.43117222,3.3506608,9.206387,0.019208401,0.032753706,0.00082588196,0.005340576,0.0037994385,0.004043579
2019-07-01T19:25:34.055Z,0.09595269,0.1459848,0.7400503,-0.47138977,3.3475647,9.396622,23.942566,-15.100098,-31.158447,-0.46684453,3.3412077,9.208082,0.033243805,-0.0033297539,0.005019188,-0.024475098,0.017410278,0.0014648438
2019-07-01T19:25:34.257Z,0.09592439,0.14947613,0.74135923,-0.48812866,3.402588,9.207581,24.34082,-15.066528,-31.921387,-0.5025617,3.3910584,9.187957,0.04850954,-0.015213013,0.008343697,0.01083374,0.022247314,0.005569458
2019-07-01T19:25:34.465Z,0.088466555,0.15392888,0.7415647,-0.5264282,3.3619232,9.080765,24.16687,-15.52124,-31.10199,-0.66651183,3.361383,9.188431,0.07295972,0.031906366,0.009725571,-0.0044403076,0.13830566,0.00831604
2019-07-01T19:25:34.667Z,0.07470701,0.17461011,0.74649763,-1.1868439,3.4552307,8.786438,25.778198,-15.716553,-29.698181,-1.0901396,3.4909182,9.099202,0.17522907,-0.07073784,0.14370728,0.090927124,0.20666504,0.04257202
2019-07-01T19:25:34.864Z,0.068643495,0.18732052,0.7486,-2.1750793,3.7016907,9.841675,26.252747,-16.210938,-28.08075,-1.3151765,3.6016116,9.026023,0.21941614,-0.070509434,-0.12391949,0.15280151,0.14479065,0.007888794
2019-07-01T19:25:35.069Z,0.0824416,0.20367108,0.7439689,-1.3040924,3.9768677,8.999405,27.435303,-16.940308,-26.994324,-1.3178939,3.9922915,8.859749,-0.27583516,-0.11117983,0.044220924,0.042053223,-0.053253174,-0.00970459
2019-07-01T19:25:35.271Z,0.08161762,0.19138633,0.74425155,-1.1581268,3.7304077,8.824738,26.052856,-16.79535,-29.399109,-1.1909615,3.809676,8.957587,-0.15268755,0.09168506,-0.02931118,-0.12696838,-0.11000061,-0.0053100586
2019-07-01T19:25:35.472Z,0.081750005,0.17773852,0.7461727,-0.88534546,3.883545,8.879761,25.387573,-15.452576,-29.704285,-1.0219667,3.6215165,9.05597,-0.10221505,-0.0007004738,0.008533478,-0.03956604,-0.09992981,-0.018508911
2019-07-01T19:25:35.676Z,0.094908565,0.14035974,0.74131745,-0.062210083,2.670395,8.477768,23.54126,-13.381958,-30.337524,-0.40784594,3.2496529,9.243582,-0.39665708,0.3865118,-0.2803278,-0.61743164,-0.510437,0.012832642
2019-07-01T19:25:35.878Z,0.07876583,0.119680494,0.75244117,-0.31825256,2.6990967,9.466003,23.15216,-12.583923,-33.25653,-0.34665504,2.7593977,9.404038,0.12352896,-0.19029403,0.3170662,0.25872803,0.21492004,0.08644104
2019-07-01T19:25:36.083Z,0.090869874,0.14574008,0.7505578,-0.24645996,3.5533447,9.78186,24.095154,-15.229797,-31.64215,-0.48627174,3.2826777,9.2281065,0.0706639,-0.26824427,-0.036478996,0.20503235,0.08576965,0.052352905
2019-07-01T19:25:36.292Z,0.09834552,0.13672817,0.7454697,-0.24645996,3.3212433,8.822342,22.705078,-15.460205,-32.992554,-0.29152656,3.2430723,9.25029,-0.38139793,0.11079478,0.05238819,-0.09307861,-0.28666687,-0.17848206
2019-07-01T19:25:36.487Z,0.11778801,0.1305942,0.73532546,-0.107681274,3.4145508,9.011368,22.546387,-15.470886,-32.762146,0.022337379,3.3954794,9.200034,0.113149695,-0.22168589,0.008543968,0.25933838,-0.017333984,-0.046661377
2019-07-01T19:25:36.708Z,0.12520128,0.13954768,0.7322598,0.023925781,3.7016907,8.731415,22.691345,-15.90271,-32.32422,0.0062066033,3.6119034,9.117264,-0.009777949,-0.014966726,-0.012130737,0.06745911,-0.032730103,0.0
2019-07-01T19:25:36.906Z,0.1296114,0.15202886,0.7340885,-0.050247192,3.8500519,8.98027,22.624207,-15.843201,-31.028748,-0.0690514,3.838726,9.023847,-0.0079296455,-0.053735018,0.0013828278,0.09965515,0.050949097,0.035614014
2019-07-01T19:25:37.102Z,0.13014549,0.15587606,0.73500586,-0.105285645,3.8763733,8.922836,22.923279,-16.40625,-31.00586,-0.10168998,3.8984597,8.997892,-0.0067426264,0.004605055,-0.06286621,-0.03527832,0.013198853,0.01222229
2019-07-01T19:25:37.299Z,0.12548333,0.15295842,0.73626673,-0.16749573,3.7950134,9.004196,22.605896,-16.207886,-31.253052,-0.1293263,3.801478,9.038939,0.019601315,0.047819853,-0.037460327,-0.053482056,0.029632568,0.0096588135
2019-07-01T19:25:37.501Z,0.12249452,0.15218033,0.7374705,-0.16749573,3.7328033,9.166901,22.257996,-16.511536,-32.73468,-0.15788326,3.7544227,9.058133,-0.016014367,0.019247532,0.024262428,-0.011581421,0.020233154,0.009353638
2019-07-01T19:25:37.706Z,0.119817376,0.15283476,0.738196,-0.20100403,3.7256317,9.061615,22.647095,-16.848755,-32.743835,-0.20175801,3.7309866,9.066941,-0.0078891665,0.008224964,0.023353577,-0.0040130615,0.015151978,0.0048980713
2019-07-01T19:25:37.915Z,0.11932097,0.15303244,0.7385098,-0.23449707,3.728012,9.166901,22.166443,-16.885376,-32.203674,-0.20977437,3.7277663,9.068083,-0.0005246699,-0.0016436577,-0.014746666,-0.0034637451,0.01234436,0.0018310547
2019-07-01T19:25:38.164Z,0.117957115,0.15431224,0.73989695,-0.21057129,3.7447662,9.095123,22.94159,-15.890503,-31.504822,-0.23755243,3.7294261,9.066716,-0.011749163,-0.0037379265,0.028207779,0.009979248,0.005508423,0.0015411377
2019-07-01T19:25:38.316Z,0.116697945,0.15623164,0.74107426,-0.2871399,3.6897278,9.109482,21.513367,-17.227173,-31.41632,-0.2725084,3.741345,9.060821,-0.004221767,0.015591621,-0.002913475,0.0071105957,0.014297485,0.0053863525
2019-07-01T19:25:38.527Z,0.114794925,0.15481208,0.7420169,-0.2679901,3.7040863,9.035294,23.606873,-17.007446,-32.43866,-0.27893862,3.6986892,9.078121,-0.002524078,0.0052525997,-0.015642166,-0.0234375,0.011672974,0.009048462
2019-07-01T19:25:38.722Z,0.10994065,0.15205936,0.7434545,-0.2679901,3.7136536,9.025726,22.351074,-16.436768,-32.044983,-0.31135488,3.601448,9.116085,0.03086716,0.045778275,0.053400993,-0.038101196,0.021148682,0.00831604
2019-07-01T19:25:38.926Z,0.112029195,0.15628824,0.74511564,-0.1268158,3.6586304,8.784058,23.954773,-16.473389,-32.118225,-0.3203428,3.6872234,9.081418,-0.110182494,-0.050047636,-0.06357765,0.00894165,0.032196045,0.024993896
2019-07-01T19:25:39.128Z,0.12181293,0.16682239,0.742308,-0.4355011,3.9026947,9.047256,23.651123,-16.363525,-30.497742,-0.31212723,3.9516919,8.969788,0.14680108,-0.11048961,0.09159279,0.04650879,-0.05203247,0.004211426
2019-07-01T19:25:39.331Z,0.119811535,0.17035198,0.7446904,-0.3637085,3.9768677,8.886948,24.075317,-17.645264,-30.62439,-0.368629,3.9781656,8.955932,-0.022102505,-0.023867607,-0.056778908,0.13380432,0.078445435,0.02003479
2019-07-01T19:25:39.535Z,0.12028656,0.16279534,0.7436455,-0.2416687,3.7902374,9.023331,23.435974,-17.463684,-31.391907,-0.2801205,3.8777115,9.00307,-0.036738485,0.044307232,-0.059687614,-0.02746582,-0.033462524,0.00843811
2019-07-01T19:25:39.736Z,0.122107245,0.15708701,0.7397784,-0.15553284,3.8213348,8.772095,22.883606,-16.906738,-32.617188,-0.20862786,3.8186178,9.030228,0.004050687,-0.0031647682,0.09863567,-0.07737732,-0.057891846,-0.017288208
2019-07-01T19:25:39.936Z,0.12528342,0.15796976,0.73764724,-0.105285645,3.8883362,8.944366,22.499084,-16.569519,-32.53174,-0.18392684,3.8688436,9.009361,0.025120676,-0.03037572,0.02973175,0.004486084,-0.048431396,-0.02558899
2019-07-01T19:25:40.156Z,0.12875246,0.15999344,0.7363016,-0.13877869,3.8859406,9.111862,22.631836,-17.292786,-32.154846,-0.1638286,3.9386408,8.979457,0.014164656,-0.03670931,0.021064758,0.0491333,-0.0025024414,-0.0021362305
2019-07-01T19:25:40.342Z,0.13231368,0.16777244,0.7316874,-0.29431152,3.940979,9.011368,22.859192,-17.642212,-32.235718,-0.23113224,4.087446,8.911214,0.35479215,0.015349865,-0.02244091,0.06037903,-0.029922485,-0.021499634
2019-07-01T19:25:40.545Z,0.13234882,0.16286716,0.7226465,-0.13639832,3.7878418,9.142975,23.504639,-17.599487,-32.10144,-0.22792985,4.0179596,8.9428425,-0.34291315,-0.005932331,-0.10723114,0.09440613,0.056640625,-0.16255188
2019-07-01T19:25:40.747Z,0.1296922,0.1562247,0.7246249,-0.20817566,4.019943,8.894119,22.918701,-16.25061,-32.258606,-0.17463931,3.895467,8.998068,0.06969045,0.03844762,0.11018467,-0.0010223389,0.039230347,0.019180298
2019-07-01T19:25:40.955Z,0.12695952,0.15752119,0.726913,-0.13160706,3.7926178,9.119049,22.883606,-17.059326,-31.89087,-0.21741305,3.8799336,9.003845,0.014999911,-0.0034294128,0.011624336,-0.01109314,0.004348755,0.0084991455
2019-07-01T19:25:41.161Z,0.12680918,0.1590609,0.72701156,-0.26560974,3.9098663,8.989838,22.439575,-16.137695,-32.36389,-0.23772004,3.8991344,8.995033,0.029051214,-0.0055778027,0.014426231,0.0028381348,0.010879517,0.011917114
2019-07-01T19:25:41.380Z,0.1261532,0.15854655,0.7289063,-0.24885559,3.8428802,9.052048,24.008179,-17.129517,-31.800842,-0.23000225,3.8846657,9.0014925,0.05053328,-0.0032413006,-0.0027923584,-0.0048065186,0.012466431,0.0020751953
2019-07-01T19:25:41.567Z,0.12533438,0.15956303,0.72840977,-0.24406433,3.8763733,8.908478,22.996521,-16.471863,-31.474304,-0.2574163,3.8882806,8.999189,0.008546501,0.0173285,-0.023028374,-0.019714355,-0.0029144287,-0.0052490234
2019-07-01T19:25:41.760Z,0.12485311,0.15694624,0.7295069,-0.22013855,3.809372,9.011368,22.918701,-16.401672,-31.608582,-0.22648685,3.846877,9.017795,0.011229068,-0.020935774,0.033729553,-0.0018157959,-0.0017089844,0.001159668
2019-07-01T19:25:42.004Z,0.12640281,0.15779792,0.7270552,-0.18185425,3.900299,8.963516,24.917603,-14.96582,-30.715942,-0.22819866,3.8768647,9.004901,-0.0026260614,-0.0010232925,-0.022480965,-0.004562378,-0.018737793,1.5258789e-05
2019-07-01T19:25:42.165Z,0.1274557,0.15164316,0.7249949,-0.06939697,3.7998047,9.006592,24.263,-15.226746,-30.592346,-0.14959253,3.8053143,9.037013,-0.025611326,0.020833254,0.00805378,-0.039627075,-0.05380249,-0.0010986328
2019-07-01T19:25:42.368Z,0.12992059,0.14621782,0.72555363,-0.090927124,3.8428802,8.953949,22.43805,-16.363525,-31.277466,-0.0432984,3.761992,9.056265,-0.021451917,-0.014472961,-0.023501396,-0.06008911,-0.13150024,-0.0048217773
2019-07-01T19:25:42.571Z,0.14101739,0.12695315,0.7257513,0.9882355,3.349945,8.602203,21.44928,-15.04364,-31.422424,0.36074466,3.6360593,9.1005125,-0.14530024,0.075917244,0.06543732,-0.031555176,-0.18476868,0.013931274
2019-07-01T19:25:42.778Z,0.13940887,0.12796335,0.71797276,0.29910278,3.7854462,8.903687,20.381165,-15.245056,-33.23059,0.28193897,3.6335194,9.104309,0.49927792,-0.117939234,-0.03713894,0.007659912,0.104644775,-0.17884827
2019-07-01T19:25:42.980Z,0.12881349,0.13384481,0.70662826,0.009567261,3.3403778,9.269791,21.88263,-15.57312,-34.71985,-0.0070883282,3.579976,9.129848,0.16355796,0.17071033,-0.1103735,-0.060440063,0.07232666,-0.18753052
2019-07-01T19:25:43.182Z,0.123191625,0.13374355,0.6961532,-0.3014984,3.653839,9.444473,22.799683,-13.264465,-33.22754,-0.13969442,3.504123,9.158166,-0.192294,-0.14041877,0.25705624,-0.01133728,-0.13816833,-0.13035583
2019-07-01T19:25:43.383Z,0.15179318,0.085696496,0.6829267,-0.61016846,4.08934,9.104691,22.821045,-12.828064,-32.83844,0.84085894,3.2598112,9.210698,-1.0124843,0.45369458,0.09095001,-0.17132568,-0.71043396,0.12724304
2019-07-01T19:25:43.584Z,0.16898881,0.03025032,0.70613605,2.651245,2.2612152,9.32962,18.728638,-12.054443,-35.98633,1.9328641,2.6958013,9.2286005,-0.33846772,0.4083438,-0.6844559,-0.33198547,-0.1712799,0.43945312
2019-07-01T19:25:43.787Z,0.15946075,0.022579614,0.7202886,2.5746765,2.3617096,8.439484,13.809204,-10.028076,-38.619995,1.9539329,2.4292085,9.297929,0.43045676,-0.46581507,0.53545666,0.04437256,0.031723022,-0.0076904297
2019-07-01T19:25:43.993Z,0.14610717,0.041078527,0.71386015,1.2514496,2.6895294,9.279373,15.518188,-11.5234375,-38.012695,1.4948671,2.5342264,9.354862,0.55147195,-0.096265554,-0.3614359,-0.017440796,0.2942047,-0.18521118
2019-07-01T19:25:44.207Z,0.12068484,0.053885486,0.71121234,0.7465668,2.3736877,9.645462,18.89801,-9.776306,-37.04071,0.9537517,2.3859534,9.464036,-0.054665506,0.35599327,-0.13850021,-0.15763855,0.19902039,0.05180359
2019-07-01T19:25:44.400Z,0.10704493,0.052346576,0.72015774,0.80877686,1.9214325,9.726822,20.095825,-9.983826,-37.358093,0.81023103,2.1743922,9.528166,0.18000168,-0.11806512,0.21717739,-0.028747559,0.094696045,0.027069092
2019-07-01T19:25:44.605Z,0.10333907,0.056125578,0.72018313,0.8231354,2.165512,9.59761,19.004822,-9.408569,-36.138916,0.70701,2.1786115,9.535418,-0.11546767,0.067579985,0.04673004,-0.018676758,0.017120361,0.060913086
2019-07-01T19:25:44.811Z,0.105111316,0.053194124,0.72428596,0.830307,2.1918182,9.410965,20.066833,-9.124756,-35.897827,0.78438705,2.156214,9.534456,0.020329475,0.0447762,0.009608269,0.01651001,-0.008850098,-0.008361816
2019-07-01T19:25:45.005Z,0.108614035,0.053991493,0.7238435,0.9954071,2.0434723,9.583252,18.515015,-9.666443,-35.717773,0.82272935,2.2134416,9.518098,0.029994786,-0.07099795,-0.003361702,0.008453369,-0.029678345,0.016860962
2019-07-01T19:25:45.206Z,0.10703389,0.054664973,0.7247435,0.8063812,2.2660065,9.339188,19.381714,-10.044861,-35.983276,0.79403156,2.2013156,9.523346,0.064201355,-0.0058488846,-0.019560814,0.01902771,-0.0030517578,0.0037384033
2019-07-01T19:25:45.414Z,0.1088392,0.055039797,0.7256689,0.8063812,2.268402,9.387039,19.892883,-9.27887,-36.30066,0.8180932,2.2288735,9.514896,0.04471916,-0.022618055,0.04319954,0.004425049,0.013626099,0.0010986328
2019-07-01T19:25:45.615Z,0.10986709,0.05517932,0.72412217,0.7920227,2.2564392,9.542572,18.89801,-10.153198,-35.30426,0.82593846,2.2460191,9.510185,0.006152153,-0.008225203,-0.019695282,0.019317627,-0.0020141602,-0.011779785
2019-07-01T19:25:45.814Z,0.111154504,0.054743234,0.72575957,0.91645813,2.3066864,9.434906,20.60852,-9.521484,-36.302185,0.855665,2.2545197,9.505544,-0.0147794485,-0.011060953,0.01772213,0.005645752,-0.009460449,-0.005493164
2019-07-01T19:25:46.023Z,0.11284788,0.054500304,0.72445244,0.9762726,2.2707825,9.39183,19.395447,-9.754944,-35.546875,0.8788831,2.2746606,9.498625,0.017744243,0.0035612583,0.0034284592,0.009918213,-0.015136719,0.007095337
2019-07-01T19:25:46.226Z,0.11344183,0.054767925,0.723668,0.78723145,2.3162537,9.533005,19.04602,-10.510254,-35.081482,0.8812493,2.2871118,9.495415,0.043832958,-0.008729458,-0.02883625,0.011077881,-0.010681152,0.00074768066
2019-07-01T19:25:46.432Z,0.11309025,0.055545993,0.7252501,0.9188385,2.2899323,9.549759,18.833923,-9.866333,-35.01892,0.87126064,2.2914383,9.495294,-0.017248273,0.0057992935,-0.0056409836,0.00680542,0.013809204,-0.016113281
2019-07-01T19:25:46.631Z,0.11296034,0.056246944,0.7250821,0.8805542,2.3497467,9.578476,20.652771,-10.317993,-36.392212,0.8595765,2.2998178,9.494333,-0.017228007,0.0034253597,0.015460014,-0.0035858154,0.004470825,0.0018310547
2019-07-01T19:25:46.839Z,0.11366577,0.056129526,0.72571564,0.91166687,2.3306122,9.470795,20.495605,-10.256958,-36.3739,0.87344706,2.3064563,9.491456,0.022910833,-0.011660337,0.01403141,0.0055236816,-0.006225586,0.0050811768
2019-07-01T19:25:47.036Z,0.113482885,0.056362122,0.72473425,0.80158997,2.3401794,9.360718,18.563843,-10.316467,-36.003113,0.86439973,2.3086226,9.491757,0.00976783,0.004878521,0.0018415451,0.006134033,0.0010528564,-0.0045776367
2019-07-01T19:25:47.234Z,0.113625355,0.05609442,0.7251733,0.9140625,2.2755737,9.360718,19.111633,-10.566711,-36.454773,0.87147844,2.3061419,9.4917145,-0.015489697,0.0066349506,-0.01702118,-0.0034637451,-0.0017089844,0.004043579
2019-07-01T19:25:47.444Z,0.113001555,0.056150626,0.7258366,0.8494568,2.3473663,9.454041,18.624878,-10.598755,-36.593628,0.86400336,2.2980356,9.494362,0.034125447,-0.015503645,-0.011218071,-0.0039520264,0.013809204,-0.016311646
2019-07-01T19:25:47.653Z,0.111851394,0.057419054,0.725531,0.8829498,2.239685,9.726822,19.520569,-10.392761,-36.587524,0.82967234,2.3014002,9.49661,-0.012196124,0.023733854,0.02908802,0.015167236,0.008132935,-0.012390137
2019-07-01T19:25:47.843Z,0.1171121,0.059781175,0.725099,0.84706116,2.239685,9.650253,20.114136,-9.849548,-35.746765,0.8729345,2.402867,9.467554,0.10607737,-0.057076216,0.099565506,0.1503601,-0.032669067,-0.061569214
2019-07-01T19:25:48.046Z,0.13016067,0.10047802,0.72250754,-0.34934998,2.9120636,9.846466,20.173645,-12.2543335,-35.331726,0.52109814,3.1381714,9.276353,0.07826561,-0.41137195,0.25192165,0.5367279,0.18797302,0.0032348633
2019-07-01T19:25:48.257Z,0.15384911,0.13828109,0.72456324,0.66760254,3.1369934,8.587845,20.71228,-15.083313,-32.6828,0.40330812,3.948917,8.967373,-0.35328794,-0.29690146,-0.29732227,0.31462097,0.50782776,-0.16334534
2019-07-01T19:25:48.461Z,0.13162673,0.17118137,0.6629426,-1.5409851,4.417145,9.322433,26.85852,-12.713623,-31.697083,-0.69531006,4.076437,8.892108,0.6674451,-0.38106537,0.014742851,0.19689941,0.15711975,-0.6811218
2019-07-01T19:25:48.664Z,0.12095275,0.20666443,0.70230055,-1.3280182,4.204193,8.106888,25.701904,-15.725708,-29.167175,-1.0513189,4.43706,8.682029,-1.2638886,0.47801113,-0.20161247,-0.21255493,0.10006714,1.2089081
2019-07-01T19:25:48.865Z,0.13171397,0.15334429,0.7552827,0.08135986,3.8548431,9.001801,22.740173,-18.678284,-31.156921,0.07608765,3.8821554,9.005191,-0.009983651,-0.5619724,0.15379715,-0.09869385,-0.3434143,0.025177002
2019-07-01T19:25:49.062Z,0.16318816,0.1515927,0.76071316,2.1056824,4.340576,9.533005,19.029236,-20.671082,-31.562805,0.62207437,4.213142,8.83362,-0.9384727,-0.026378632,0.32975864,0.36575317,-0.33963013,0.63108826
2019-07-01T19:25:49.263Z,0.1874349,0.14625834,0.7949226,0.653244,4.455429,8.791229,15.939331,-23.208618,-31.64978,1.3210827,4.332345,8.698041,0.40514088,0.0063323975,-1.1615162,-0.46907043,0.1486969,0.61026
2019-07-01T19:25:49.471Z,0.19420274,0.07868066,0.83530414,2.7062836,2.589035,8.463409,10.562134,-22.377014,-34.431458,2.3972461,3.2250962,8.945521,-0.7707212,0.12547779,0.6148863,-0.0526886,-0.3537445,0.63830566
2019-07-01T19:25:49.675Z,0.17723426,0.118537165,0.8516905,1.6055908,3.969696,8.798416,11.988831,-25.292969,-31.610107,1.8476548,3.6441562,8.91497,1.0886855,-0.4880731,-0.25258923,0.17124939,0.68193054,0.16700745
2019-07-01T19:25:49.875Z,0.15638465,0.13154519,0.8657172,0.6316986,4.019943,9.066406,11.198425,-27.035522,-30.044556,1.476481,3.6350465,8.987593,0.22607386,-0.14180517,0.68949986,0.42323303,0.15835571,0.15388489
2019-07-01T19:25:50.078Z,0.16387509,0.14801745,0.8740349,0.9714813,4.1730804,9.9756775,11.100769,-27.784729,-28.004456,1.5528532,3.9284327,8.850223,-0.62848413,0.38191867,-0.58763313,0.021408081,-0.060287476,0.59236145
2019-07-01T19:25:50.282Z,0.1852311,0.14555681,0.9152026,4.175476,2.2899323,7.429718,4.281616,-30.85785,-28.878784,2.391486,3.8006313,8.718164,-0.3014891,0.19409132,-0.14496803,-0.13363647,0.1408844,1.0605316
2019-07-01T19:25:50.486Z,0.17764553,0.13237083,0.92677635,3.4767761,2.7373962,7.245468,5.0323486,-30.220032,-29.307556,2.4415886,3.4629707,8.844029,0.21456194,-0.5146682,0.3065729,-0.10406494,-0.12576294,-0.19895935
2019-07-01T19:25:50.688Z,0.18582647,0.13936493,0.9183159,2.5507507,3.6299133,7.7982025,5.581665,-30.5542,-28.718567,2.47081,3.67837,8.748433,0.38237572,-0.3455515,0.049263,0.16777039,-0.014038086,-0.052597046
2019-07-01T19:25:50.886Z,0.17836672,0.1268093,0.9219326,2.4933167,3.3092804,9.198013,5.781555,-29.664612,-28.92456,2.430356,3.4110644,8.867266,0.10527563,-0.010200262,-0.08313656,-0.109436035,0.03189087,-0.024002075
2019-07-01T19:25:51.091Z,0.1738502,0.122425504,0.91779906,2.4526367,3.3332062,8.786438,5.503845,-28.582764,-29.373169,2.3243525,3.347123,8.919895,0.25084853,-0.116611004,-0.00808239,-0.10284424,0.003921509,-0.27549744
2019-07-01T19:25:51.292Z,0.1779014,0.110408135,0.8955467,2.1128693,3.4384918,8.851059,8.227539,-28.691101,-30.110168,2.2745469,3.309251,8.946826,-0.23528504,0.12524676,-0.3473835,-0.007858276,-0.04751587,-0.2979126
2019-07-01T19:25:51.494Z,0.17718023,0.07100245,0.87807083,2.445465,3.4432678,8.891724,8.3984375,-26.332092,-31.976318,2.4402857,2.7477114,9.092055,0.286232,-0.078727484,0.54013634,-0.40638733,-0.17274475,-0.23335266
2019-07-01T19:25:51.698Z,0.17006585,0.058048118,0.86893266,2.3018951,2.7278137,8.654846,10.379028,-24.72229,-34.298706,2.3733385,2.5275002,9.173298,0.03464198,0.3057642,-0.42237663,-0.07835388,-0.23828125,-0.388443
2019-07-01T19:25:51.901Z,0.13523959,0.045799296,0.8788499,2.7469635,0.6269226,10.810776,11.405945,-21.290588,-35.754395,1.9222217,1.9969478,9.406788,-0.11513889,0.017603636,0.09782219,-0.5997925,0.09176636,-0.20140076
2019-07-01T19:25:52.108Z,0.1462988,0.051544942,0.8592036,1.2634125,2.9599152,8.956329,11.355591,-20.565796,-35.75592,1.9725,2.2676148,9.33475,-0.33370173,-0.10241246,-0.34786606,-0.043777466,0.07185364,-0.028762817
2019-07-01T19:25:52.306Z,0.13737483,0.11230115,0.85702944,0.7082825,3.2686005,9.253052,13.827515,-21.357727,-34.50775,1.2436447,3.1911016,9.189157,0.3560778,-0.5004113,0.5472479,0.49934387,0.30722046,-0.19993591
2019-07-01T19:25:52.510Z,0.15112737,0.12371076,0.8519506,1.9980011,3.1130676,8.367706,15.460205,-23.016357,-32.4234,1.3464519,3.5072217,9.058524,-0.30572987,0.21349502,0.15202999,0.31089783,0.05357361,-0.21031189
2019-07-01T19:25:52.718Z,0.13845849,0.13331585,0.85806435,0.93559265,3.665802,8.886948,14.645386,-25.11139,-32.211304,1.0849911,3.5368612,9.082059,0.32050657,-0.1046021,-0.20891857,0.119628906,-0.017333984,0.13977051
2019-07-01T19:25:52.921Z,0.120464765,0.14131792,0.8669801,0.73220825,3.4049835,9.217148,15.745544,-24.33014,-29.833984,0.766637,3.4956617,9.130334,0.16665232,0.18013406,-0.14955616,0.0012969971,0.22547913,0.066467285
2019-07-01T19:25:53.127Z,0.10521698,0.14198305,0.8751679,0.43070984,3.3882294,9.257828,16.48407,-23.989868,-29.718018,0.55181515,3.366578,9.194131,-0.02772361,0.03614068,0.11373615,-0.06277466,0.22045898,0.14929199
2019-07-01T19:25:53.320Z,0.10171178,0.14342566,0.88412607,0.38763428,3.4576263,9.150162,16.105652,-25.100708,-30.60913,0.5459686,3.3506908,9.200281,-0.015113056,0.021791697,-0.031041145,-0.02935791,0.11845398,0.15748596
2019-07-01T19:25:53.525Z,0.09711813,0.13859805,0.89504,0.85902405,3.0747833,9.449265,16.091919,-25.619507,-29.580688,0.5832042,3.2190225,9.244898,0.019499898,0.041318893,-0.036842346,-0.0011444092,0.07165527,0.2059784
2019-07-01T19:25:53.733Z,0.097387224,0.13311735,0.9019914,1.0169525,3.053238,8.918045,14.012146,-25.54779,-28.49884,0.6811232,3.1171212,9.273081,0.23456687,-0.13709903,0.10992432,0.015289307,-0.002380371,0.074279785
2019-07-01T19:25:53.928Z,0.09338758,0.13220458,0.90317845,0.7680969,2.8402863,9.489929,14.952087,-25.990295,-29.231262,0.6233858,3.0701346,9.292795,0.17730981,0.04054761,-0.05620098,-0.040359497,0.026397705,0.011734009
2019-07-01T19:25:54.141Z,0.0923321,0.1373636,0.9010937,0.18424988,3.4767761,9.138184,13.75885,-25.553894,-29.77295,0.5520227,3.1534982,9.269363,0.12479216,-0.18883443,0.031126976,0.08773804,0.048324585,-0.0748291
2019-07-01T19:25:54.342Z,0.08769705,0.13896611,0.9023743,0.4857483,3.1992035,9.375076,14.51416,-26.896667,-28.869629,0.4662519,3.1447473,9.277045,-0.00428313,0.089668274,-0.04979992,-0.00541687,0.03353882,-0.010620117
2019-07-01T19:25:54.541Z,0.086454235,0.14128454,0.9020858,0.46899414,3.0867462,9.39183,15.637207,-26.815796,-29.806519,0.42534667,3.175455,9.268546,-0.0013925135,0.074918985,-0.050419807,-0.032348633,0.004776001,0.0038604736
2019-07-01T19:25:54.746Z,0.08755372,0.14024906,0.9027291,0.2871399,3.0795593,9.265015,15.011597,-26.42212,-29.472351,0.45766556,3.165208,9.270512,0.0476813,-0.034353733,0.0013532639,-0.0016937256,-0.005065918,0.0025177002
2019-07-01T19:25:54.941Z,0.08393518,0.14059538,0.9042514,0.4283142,3.3332062,9.121445,14.105225,-26.997375,-28.948975,0.401166,3.1427166,9.280774,-0.060268342,0.029934645,0.011719704,1.5258789e-05,0.024627686,-0.0015869141
2019-07-01T19:25:55.154Z,0.08396801,0.13557807,0.9047568,0.32302856,2.9623108,9.578476,14.918518,-24.975586,-28.797913,0.4398183,3.0563028,9.307843,0.057027727,0.023207188,-0.006814003,-0.028686523,-0.015625,0.008255005
2019-07-01T19:25:55.355Z,0.08597323,0.13657479,0.90383,0.4019928,3.0508423,9.315262,15.124512,-25.683594,-29.553223,0.46251485,3.0893085,9.29584,-0.042460263,0.0150232315,-0.024710655,-0.019470215,-0.0138549805,-0.00061035156
2019-07-01T19:25:55.549Z,0.08632932,0.13434412,0.90399855,0.550354,3.053238,9.231506,15.464783,-25.300598,-29.112244,0.48565927,3.0534856,9.30649,-0.0011401176,-0.013832092,0.0014762878,-0.017456055,-0.0020141602,0.007583618
2019-07-01T19:25:55.759Z,0.08523374,0.1335915,0.9045837,0.4857483,3.048462,9.243469,14.865112,-26.142883,-29.032898,0.47527748,3.031742,9.314132,0.0080088675,0.0066082478,0.019202232,-0.004928589,-0.0051879883,0.0015869141
2019-07-01T19:25:55.954Z,0.0849502,0.13133694,0.9059333,0.52163696,3.0149536,9.382263,14.61792,-26.231384,-29.342651,0.49586418,2.9892218,9.326793,0.0070460737,-0.006645441,-0.008120537,-0.013717651,-0.009094238,0.0022125244
2019-07-01T19:25:56.159Z,0.086115494,0.13085878,0.9060831,0.5623169,2.8881378,9.260223,13.85498,-25.106812,-30.441284,0.5216394,2.989361,9.325341,-0.000854373,0.0123848915,-0.019000053,-0.012924194,0.0033721924,0.004470825
2019-07-01T19:25:56.374Z,0.085288875,0.13054433,0.9064893,0.44267273,2.9431763,9.32962,14.561462,-25.645447,-29.901123,0.51172346,2.9773498,9.329733,-0.0069383383,-0.011907816,0.011898994,-0.0020599365,-0.009094238,0.0061187744
2019-07-01T19:25:56.591Z,0.085222505,0.13012193,0.90689003,0.52163696,3.0173492,9.446869,15.757751,-25.631714,-31.004333,0.51643395,2.9690614,9.332114,0.006180465,-0.023229122,0.011885643,0.0058288574,-0.0021972656,-0.0053710938
2019-07-01T19:25:56.772Z,0.086448155,0.12993908,0.90552413,0.48335266,2.9479523,9.444473,15.466309,-25.071716,-30.197144,0.5298261,2.9767296,9.32892,0.010486126,0.008364439,-0.011561394,0.0025939941,-0.0015258789,0.0062408447
2019-07-01T19:25:56.973Z,0.08694837,0.13019685,0.9042111,0.46899414,2.9718933,9.401398,13.587952,-26.16272,-27.926636,0.5273097,2.9866118,9.325904,-0.0056094527,0.008592129,-0.0044994354,-0.0024261475,-0.00077819824,0.004470825
2019-07-01T19:25:57.175Z,0.08644758,0.13047588,0.9063093,0.6197357,2.9718933,9.408585,14.857483,-26.135254,-29.937744,0.5320726,2.984903,9.326181,0.00045770407,-0.010555029,0.01028347,-0.0035247803,-0.0063476562,0.00030517578
2019-07-01T19:25:57.381Z,0.08709993,0.12963614,0.90691125,0.5479584,2.9694977,9.276978,13.847351,-25.405884,-29.670715,0.5543616,2.97438,9.328245,-0.014647901,0.0055377483,-0.009737968,0.0067443848,-0.00012207031,0.0012207031
2019-07-01T19:25:57.577Z,0.08734323,0.12983362,0.9072798,0.63409424,2.8785706,9.233902,14.137268,-26.11084,-30.05371,0.56028813,2.9790275,9.3264065,0.0041434765,-0.009634256,-0.00867939,0.00050354004,0.0005645752,0.002029419
2019-07-01T19:25:57.782Z,0.08691615,0.1295149,0.90811765,0.6316986,2.9981995,9.245865,14.241028,-25.74768,-28.849792,0.5610048,2.9692295,9.329487,0.014820337,-0.0069801807,-0.004052162,-0.005722046,-0.001159668,-0.0004272461
2019-07-01T19:25:57.982Z,0.08574109,0.12994562,0.90886766,0.5359955,2.967102,9.317657,14.247131,-25.601196,-28.971863,0.5422333,2.9671,9.331275,-0.017960608,0.009725094,0.009674072,-0.00090026855,0.004837036,-0.0063476562
2019-07-01T19:25:58.186Z,0.08630157,0.1295974,0.9072028,0.6077728,2.9886322,9.221939,15.014648,-24.375916,-30.189514,0.5421876,2.9674811,9.331156,0.0011275411,-0.00033712387,0.004117012,-0.00065612793,0.0009918213,0.00018310547
2019-07-01T19:25:58.388Z,0.08678606,0.13025111,0.90682024,0.6269226,2.9144592,9.308075,13.719177,-24.758911,-29.307556,0.5437083,2.9828074,9.3261795,-0.0033738017,0.0013511181,-0.0051841736,0.004486084,0.0027008057,-0.0056152344
2019-07-01T19:25:58.588Z,0.08704368,0.1306515,0.9055641,0.46180725,3.0963135,9.317657,15.30304,-25.15564,-30.133057,0.5361322,2.9933112,9.323253,0.011643589,-0.0072586536,0.00028705597,-0.0010223389,-0.004638672,0.0050811768
2019-07-01T19:25:58.794Z,0.08576834,0.13017015,0.90684354,0.42114258,3.0556335,9.324829,13.842773,-25.628662,-28.961182,0.52576447,2.9739466,9.330038,-0.006903589,-0.004940033,0.018710136,0.010040283,0.0057525635,-0.00390625
2019-07-01T19:25:58.994Z,0.086212665,0.13123605,0.90791833,0.6197357,2.9407806,9.317657,13.973999,-26.197815,-29.536438,0.53490484,2.994087,9.323074,-0.021900117,0.029205084,-0.012684822,0.0101623535,0.00062561035,-0.004211426
2019-07-01T19:25:59.206Z,0.08705952,0.131288,0.9081879,0.5766754,3.0293121,9.276978,14.694214,-26.219177,-30.097961,0.5522048,3.0007317,9.319928,0.010513604,-0.021499872,4.7683716e-06,-0.0004119873,-0.008605957,0.012161255
2019-07-01T19:25:59.404Z,0.08769841,0.13151559,0.90814894,0.5359955,2.938385,9.367905,14.474487,-25.726318,-29.838562,0.56212217,3.0093212,9.316566,0.008844256,0.011647463,-0.016488075,0.0017242432,-0.006652832,-0.0007324219
2019-07-01T19:25:59.612Z,0.087606795,0.1314551,0.9078008,0.5048828,3.0221405,9.298508,14.685059,-26.287842,-30.792236,0.5581456,3.0081196,9.317192,0.0015283227,-0.002916336,0.0023183823,-0.0039520264,0.0014801025,0.0017242432
2019-07-01T19:25:59.810Z,0.08774802,0.13128538,0.90765154,0.53359985,3.0149536,9.3511505,15.223694,-25.163269,-29.981995,0.5607337,3.0064337,9.317582,-0.006908238,-0.0054752827,0.014867783,0.004486084,0.0023345947,-0.0026855469
2019-07-01T19:26:00.009Z,0.087915376,0.13071217,0.9066994,0.5742798,2.9694977,9.255432,15.557861,-24.850464,-29.93164,0.56036913,2.9991496,9.31995,-0.00018447638,0.016368866,-0.0017557144,-0.0032196045,-0.008300781,0.0025177002
2019-07-01T19:26:00.220Z,0.088011004,0.13028234,0.9054223,0.45942688,3.053238,9.406189,14.703369,-26.074219,-29.692078,0.5553256,2.9942715,9.321821,0.016019583,-0.016604185,-0.01019001,-0.00016784668,0.0050811768,-0.00592041
2019-07-01T19:26:00.427Z,0.087250315,0.12998475,0.90629995,0.53359985,2.9431763,9.348755,14.9383545,-25.978088,-31.040955,0.5500895,2.9823413,9.325954,-0.0055320263,0.0037078857,0.02546215,0.005645752,-0.0005493164,-0.0008544922
2019-07-01T19:26:00.619Z,0.08816926,0.13103232,0.90509635,0.6197357,2.9335938,9.315262,13.903809,-25.907898,-29.852295,0.55057937,3.0087783,9.31743,-0.011893511,0.021516323,-0.037213326,-0.010299683,0.00032043457,0.0070343018
2019-07-01T19:26:00.824Z,0.08773477,0.13082871,0.90615696,0.59580994,3.0029907,9.353546,14.376831,-26.017761,-30.647278,0.55210584,3.0006063,9.319975,0.013137519,-0.024989367,0.01625824,0.0009460449,-0.0017547607,-0.0029907227
2019-07-01T19:26:01.026Z,0.0878809,0.13022012,0.9064805,0.46420288,2.9934235,9.332016,15.036011,-25.759888,-30.169678,0.5614217,2.9907453,9.322588,0.0237208,-0.017583847,0.0029735565,0.0039367676,0.0050811768,-0.007385254
2019-07-01T19:26:01.233Z,0.088183865,0.13109022,0.9056103,0.5168457,3.036499,9.274582,14.611816,-26.069641,-31.19812,0.55437225,3.0091603,9.317081,-0.0023896098,-0.0016951561,-0.0030107498,0.004425049,0.0038604736,-0.0036621094
2019-07-01T19:26:01.438Z,0.08739941,0.13074285,0.9060936,0.4905243,3.0580292,9.336792,14.553833,-25.793457,-29.702759,0.54605824,2.9967635,9.321567,0.008935988,-0.013251543,0.007054329,0.0050354004,0.0035552979,-0.011657715
2019-07-01T19:26:01.638Z,0.08646511,0.13198636,0.9063111,0.44267273,3.0652008,9.379868,14.039612,-26.481628,-30.125427,0.52208585,3.0110219,9.318345,-0.019410849,0.017798185,-0.00013923645,0.005340576,0.005142212,-0.002380371
2019-07-01T19:26:01.835Z,0.08585166,0.13265476,0.9072878,0.5264282,2.9814606,9.253052,13.6154175,-27.023315,-29.76532,0.5138183,3.0167584,9.316949,-0.005619049,0.009201288,0.0054712296,0.002456665,0.0062408447,-0.0014648438
2019-07-01T19:26:02.047Z,0.08485347,0.1337444,0.9089629,0.4139557,3.0867462,9.451645,15.620422,-25.358582,-29.58374,0.5012146,3.0261254,9.314598,0.005435109,-0.0037078857,-0.004221916,0.0024719238,6.1035156e-05,0.00012207031
2019-07-01T19:26:02.247Z,0.085353635,0.1329317,0.90780455,0.5120697,3.0101776,9.198013,15.107727,-26.202393,-28.826904,0.50680774,3.0172348,9.317179,-0.014146924,-0.0062003136,0.026524544,0.0121154785,-0.004638672,0.001663208
2019-07-01T19:26:02.443Z,0.08629085,0.13430691,0.9074689,0.6388855,2.9694977,9.257828,14.021301,-25.022888,-30.355835,0.5121742,3.048154,9.306816,-0.012944162,0.022062063,-0.039440155,-0.012741089,-0.001953125,0.0060577393
2019-07-01T19:26:02.647Z,0.08688617,0.13319397,0.90711987,0.5742798,3.0269165,9.336792,15.063477,-25.479126,-28.300476,0.5278784,3.033784,9.310633,0.011925459,-0.02057004,0.011159897,-0.0028533936,-0.0087890625,0.0027618408
2019-07-01T19:26:02.863Z,0.08758038,0.13277625,0.906655,0.55274963,3.0029907,9.207581,15.106201,-25.820923,-31.01654,0.5398435,3.032281,9.310436,-0.00052541494,-0.002389431,0.0013160706,0.0028839111,-0.00036621094,0.0028839111
2019-07-01T19:26:03.061Z,0.088172995,0.13271013,0.9056144,0.4857483,3.0580292,9.379868,15.196228,-25.976562,-29.013062,0.54311335,3.0369081,9.308738,0.0044706464,-0.014523983,0.000166893,0.0046691895,-0.004699707,-0.00012207031
2019-07-01T19:26:03.264Z,0.0885621,0.13313116,0.90519756,0.5096741,3.069992,9.260223,13.452148,-27.03247,-29.910278,0.54414994,3.0475652,9.305194,-0.00077700615,0.011397123,0.0015802383,0.0043640137,0.0018920898,0.0013427734
2019-07-01T19:26:03.480Z,0.08798661,0.1323577,0.9072278,0.5766754,3.0173492,9.260223,14.633179,-25.78888,-30.007935,0.5545886,3.027228,9.311214,-0.005423665,0.010879278,-0.0066165924,-0.0004119873,-0.0013427734,-0.0014038086
2019-07-01T19:26:03.759Z,0.08807661,0.13307814,0.9060038,0.5766754,2.9910278,9.312866,15.6814575,-25.791931,-29.750061,0.54185116,3.0419884,9.307153,-0.01042819,0.015377283,-0.003460884,0.00039672852,0.0017242432,-0.0025024414
2019-07-01T19:26:03.901Z,0.08802153,0.1332343,0.9062871,0.5264282,3.0795593,9.317657,14.685059,-26.438904,-29.99115,0.54197985,3.0438783,9.306527,0.009568512,-0.017686605,0.004122734,0.0028839111,-0.00065612793,0.0050811768
2019-07-01T19:26:04.093Z,0.087304175,0.13361529,0.90730804,0.6316986,3.0029907,9.336792,14.955139,-27.584839,-30.386353,0.5341901,3.04381,9.307,-0.0017080903,0.019392014,-0.018712044,0.002166748,0.00079345703,-0.007019043
2019-07-01T19:26:04.312Z,0.086705536,0.13299349,0.90650284,0.46420288,3.069992,9.308075,14.382935,-25.871277,-30.46875,0.5211267,3.029849,9.312296,0.025630653,-0.016681433,0.015388489,-0.012130737,0.01008606,-0.0020141602
2019-07-01T19:26:04.523Z,0.08639296,0.13604665,0.9056375,0.40438843,3.2015991,9.317657,14.007568,-25.468445,-29.464722,0.48794833,3.0811572,9.297245,0.008230895,-0.04362583,0.026177406,-0.0007171631,0.0084991455,-0.024429321
2019-07-01T19:26:04.722Z,0.085328825,0.13798632,0.9016039,0.6125641,2.8139648,9.765106,15.557861,-25.001526,-29.283142,0.42369273,3.1111517,9.290403,0.0990262,-0.07329559,0.042337418,0.050354004,0.005569458,-0.047088623
2019-07-01T19:26:04.925Z,0.09052664,0.1772353,0.8782983,-0.20578003,3.7926178,9.487549,15.948486,-25.49591,-28.114319,0.048268687,3.8249772,9.029819,0.35269392,-0.54939914,0.46971703,0.5821228,0.00831604,-0.52497864
2019-07-01T19:26:05.128Z,0.11172087,0.2295813,0.8415743,-0.35653687,4.6612244,8.104492,18.391418,-27.101135,-25.672913,-0.29922616,4.83247,8.528076,-0.047900587,-0.24023533,0.05506897,0.20161438,-0.25794983,-0.6101227
2019-07-01T19:26:05.336Z,0.12328372,0.18271704,0.8337017,0.71784973,4.319046,9.588043,19.47174,-26.300049,-25.479126,0.20141062,4.211999,8.85375,-0.87886935,0.50715256,-0.6239166,-0.36550903,-0.28269958,0.07434082
2019-07-01T19:26:05.535Z,0.1328659,0.16882633,0.8269557,2.1583252,4.9340057,9.355942,18.826294,-24.06311,-28.39508,0.4344607,4.0923066,8.901384,0.33747306,0.020210743,0.043577194,0.25309753,0.03715515,-0.4632721
2019-07-01T19:26:05.746Z,0.12193672,0.20369762,0.7978746,-0.071777344,4.977066,9.193222,21.662903,-23.660278,-27.824402,-0.30557698,4.5128474,8.70122,-0.620456,-0.25513983,-0.09706688,-0.21218872,-0.28788757,-0.070739746
2019-07-01T19:26:05.946Z,0.13929068,0.16513662,0.7988703,0.22970581,4.0295105,8.817551,19.833374,-22.743225,-30.204773,0.36427283,4.1210704,8.891259,0.0926739,0.12723684,0.04130459,0.030563354,0.026031494,0.084732056
2019-07-01T19:26:06.141Z,0.13586628,0.17537047,0.8038341,0.01914978,4.5631104,9.059235,19.711304,-21.951294,-29.736328,0.24360128,4.235661,8.841392,0.21749932,-0.18044281,0.098036766,0.068374634,0.017181396,-0.024307251
2019-07-01T19:26:06.350Z,0.13534594,0.1698027,0.80515695,0.32063293,4.0989075,8.944366,19.335938,-23.2193,-29.374695,0.29937986,4.146496,8.881854,-0.12615967,0.10426235,-0.15833282,-0.06259155,0.013015747,-0.010009766
2019-07-01T19:26:06.557Z,0.1296463,0.17367424,0.8030368,-0.110076904,4.199402,9.245865,21.211243,-22.579956,-30.001831,0.15102796,4.146965,8.885395,0.0327242,0.020178318,0.007276535,0.0022888184,0.045333862,-0.016921997
2019-07-01T19:26:06.750Z,0.13053444,0.17652096,0.80328894,0.088531494,4.19223,8.798416,20.565796,-22.549438,-30.044556,0.13976617,4.198574,8.861311,-0.10779461,0.004612446,0.09013367,0.08755493,0.030670166,0.028411865
2019-07-01T19:26:06.964Z,0.13111986,0.1879318,0.8054939,0.13160706,4.311859,8.774475,20.817566,-22.540283,-28.996277,0.057082474,4.374467,8.776741,0.04444513,-0.07336235,-0.014888763,0.056167603,0.059143066,0.027130127
2019-07-01T19:26:07.160Z,0.1306759,0.18707038,0.80808604,0.30389404,4.2065887,8.865402,20.326233,-24.694824,-28.131104,0.07855117,4.356804,8.785356,-0.09256235,0.06559181,-0.042886734,-0.031677246,-0.023025513,0.021133423
2019-07-01T19:26:07.363Z,0.1300156,0.18658145,0.80886674,0.105285645,4.2305145,8.786438,19.720459,-23.857117,-28.163147,0.07834425,4.3427463,8.7923155,0.0076602027,-0.013994217,0.021342278,-0.0129852295,-0.015014648,-0.011413574
2019-07-01T19:26:07.575Z,0.13206504,0.18455388,0.8054361,0.0,4.371689,8.678772,20.405579,-22.56012,-30.19104,0.10442411,4.333633,8.796539,-0.024056554,-0.003590107,-0.01535511,-0.022460938,-0.022415161,-0.015930176
2019-07-01T19:26:07.777Z,0.13135111,0.18169762,0.8045733,0.06939697,4.278366,8.705093,19.700623,-22.323608,-29.057312,0.11307657,4.283929,8.820745,-0.016467042,0.0051021576,0.008698463,-0.0071868896,-0.005859375,-0.007385254
2019-07-01T19:26:07.975Z,0.13096364,0.18166615,0.8044558,0.093322754,4.261612,8.848663,21.240234,-23.744202,-29.862976,0.106021516,4.27954,8.822964,-0.033872247,0.014985561,0.0004453659,-0.00077819824,-0.012878418,0.019485474
2019-07-01T19:26:08.182Z,0.13264282,0.17853561,0.80563724,0.32302856,4.101303,8.784058,20.480347,-22.927856,-28.83606,0.17324765,4.249522,8.836398,-0.024590611,0.010023117,-0.015248299,-0.03552246,-0.023071289,0.009109497
2019-07-01T19:26:08.380Z,0.13221686,0.17854589,0.8051816,-0.04307556,4.421936,8.810379,21.083069,-23.683167,-29.768372,0.16253805,4.2454915,8.838539,0.055260807,-0.050612926,0.022499084,0.028182983,0.0066070557,-0.029129028
2019-07-01T19:26:08.582Z,0.13269246,0.17756593,0.80445164,0.17468262,4.2998962,8.987442,21.02356,-22.871399,-31.640625,0.21333964,4.2180543,8.850587,-0.038288087,0.04839468,0.003712654,-0.012741089,-0.022415161,0.003540039
2019-07-01T19:26:08.788Z,0.1370988,0.17671728,0.79968905,0.36849976,4.1730804,8.740982,19.880676,-21.569824,-30.723572,0.21907003,4.270019,8.825493,0.0025321841,-0.020829678,-0.023860931,0.0067443848,-0.014953613,-0.0052490234
2019-07-01T19:26:08.989Z,0.1378376,0.17570199,0.8011854,0.1531372,4.3238373,8.712265,18.946838,-22.95227,-29.380798,0.2527405,4.26188,8.828527,-0.02041635,0.0011501312,-0.014520645,0.0050354004,-0.012207031,0.010269165
2019-07-01T19:26:09.191Z,0.14024223,0.17409708,0.7993547,0.32781982,4.204193,8.8701935,20.13092,-23.15216,-30.981445,0.29430595,4.2635703,8.826424,0.0029097795,0.013043404,-0.020736694,-0.0044403076,-0.024734497,0.008987427
2019-07-01T19:26:09.395Z,0.14108187,0.17421433,0.80259234,0.38763428,4.249649,8.736191,19.250488,-23.373413,-29.025269,0.33195636,4.272042,8.820989,0.018331707,-0.02190113,0.03405094,0.0015411377,-0.018310547,0.0041503906
2019-07-01T19:26:09.592Z,0.14088196,0.17308961,0.80208087,0.34217834,4.3549347,8.748154,18.56842,-22.395325,-29.327393,0.33570263,4.253598,8.829756,0.0019470453,0.0010371208,-0.0029354095,0.0027770996,-0.004333496,0.008255005
2019-07-01T19:26:09.805Z,0.14093614,0.17362162,0.80248755,0.27278137,4.273575,8.901306,19.355774,-22.781372,-29.286194,0.33452022,4.2618136,8.825839,0.02591303,-0.014420509,0.0027618408,-0.009689331,-0.004333496,-0.006164551
2019-07-01T19:26:10.002Z,0.14091884,0.17345168,0.80200785,0.22492981,4.3286133,8.788834,19.267273,-22.854614,-29.980469,0.3322043,4.2594,8.827091,0.022871464,-0.0011935234,0.0055913925,0.0074768066,0.009109497,-0.0037841797
2019-07-01T19:26:10.202Z,0.14211567,0.16930458,0.80200535,1.2801666,3.5030975,8.803192,19.010925,-23.086548,-30.543518,0.39282528,4.209892,8.848326,0.059636205,-0.02548933,-0.024816513,0.0046691895,-0.000289917,-0.01361084
2019-07-01T19:26:10.407Z,0.13451126,0.19694032,0.79226923,-2.2899323,5.716461,7.068405,19.73114,-23.336792,-29.718018,-0.07921594,4.5419617,8.69107,-0.08133643,0.007915974,0.014181137,-0.02142334,-0.023513794,-0.07678223
2019-07-01T19:26:10.613Z,0.12989765,0.1741209,0.797597,-0.51924133,4.3142548,8.128418,20.100403,-22.520447,-28.356934,0.11033733,4.1575017,8.881069,0.42518896,-0.23469114,0.23591995,0.028182983,0.14056396,0.012710571
2019-07-01T19:26:10.805Z,0.121596314,0.18172243,0.7972067,0.06939697,4.615753,8.532806,20.684814,-22.045898,-28.135681,-0.10436804,4.1834173,8.868964,-0.17841938,0.23388529,-0.033436775,0.011138916,0.037887573,-0.1292572
2019-07-01T19:26:11.009Z,0.10995454,0.15558995,0.80923814,-1.0408783,2.6321106,8.994614,19.95697,-21.711731,-30.377197,0.04929748,3.6679683,9.094723,0.03694687,0.38859034,-0.16162872,-0.22227478,-0.041412354,0.18026733
2019-07-01T19:26:11.214Z,0.14733307,0.21057813,0.76964897,-0.9906311,5.54657,8.188232,20.455933,-23.210144,-30.175781,-0.18984054,4.8676505,8.511188,0.94078845,-1.3811989,-0.58763504,0.14859009,-0.2162323,-0.16938782
2019-07-01T19:26:11.420Z,0.10178341,0.20029381,0.76217717,-1.0121613,4.3621216,7.8053894,25.271606,-18.389893,-28.030396,-0.8635278,4.2061753,8.81662,-0.7164375,0.4204259,0.90764904,0.13264465,0.086868286,0.025360107
2019-07-01T19:26:11.631Z,0.092552595,0.2113343,0.7578956,-1.3639069,4.3573303,8.822342,26.00708,-20.0943,-27.276611,-1.1535523,4.249155,8.7626705,0.14581752,0.08372593,-0.16204357,0.026351929,0.12878418,-0.05038452
2019-07-01T19:26:11.820Z,0.09749429,0.22435783,0.7550244,-1.414154,4.175476,8.492126,27.49939,-19.352722,-25.601196,-1.2332606,4.485696,8.632959,-0.08729267,-0.087477684,0.025205612,0.12359619,0.0049591064,-0.0126953125
2019-07-01T19:26:12.023Z,0.1091036,0.22068493,0.75166726,-0.97387695,4.5176544,8.638092,26.05896,-19.076538,-26.46637,-1.0399356,4.562826,8.617977,-0.18773532,-0.03742361,-0.12939835,0.018539429,-0.12295532,-0.029922485
2019-07-01T19:26:12.224Z,0.11284606,0.2220581,0.7444692,-0.96191406,4.7449646,7.7359924,25.468445,-19.548035,-27.14386,-1.0501755,4.613405,8.589762,-0.03236997,-0.0027689934,0.22523308,0.099472046,0.009963989,-0.06468201
2019-07-01T19:26:12.429Z,0.10280856,0.22876473,0.74464965,-1.5385895,4.9100647,9.030518,25.819397,-20.613098,-27.600098,-1.2737702,4.5883546,8.572917,0.07759845,0.13602018,-0.22401333,-0.14897156,0.025238037,-0.029006958
2019-07-01T19:26:12.630Z,0.10738162,0.20326555,0.7439852,-1.0265198,4.261612,9.229111,25.74768,-18.499756,-28.149414,-0.93437165,4.2874365,8.770132,-0.20329136,0.16754198,-0.14774609,-0.15818787,-0.22698975,-0.026931763
2019-07-01T19:26:12.834Z,0.104482494,0.18468466,0.7450191,-0.6388855,3.9457703,8.750549,23.910522,-17.956543,-29.623413,-0.76397604,3.9945948,8.923561,-0.006439984,0.14045072,0.061761856,-0.13931274,0.00050354004,0.005874634
2019-07-01T19:26:13.036Z,0.100156195,0.18825217,0.7462082,-0.34457397,3.6155548,8.446671,24.876404,-17.89093,-29.80194,-0.86262095,3.9940042,8.914831,-0.023714483,-0.040670156,0.06956482,0.01272583,0.03678894,-0.006958008
2019-07-01T19:26:13.244Z,0.09764006,0.18343459,0.7464324,-1.2442627,4.1395874,9.839294,24.60785,-16.819763,-29.119873,-0.84499484,3.8961434,8.959712,0.011446238,0.050717115,-0.28653622,-0.11592102,-0.05508423,-0.0025634766
2019-07-01T19:26:13.450Z,0.09400868,0.17482404,0.74433804,-0.98106384,3.8692017,8.956329,25.016785,-16.496277,-29.82483,-0.813896,3.7279007,9.033865,0.082372606,0.115255594,0.1849575,-0.054153442,0.024261475,-0.053512573
2019-07-01T19:26:13.661Z,0.080347605,0.18057802,0.74354655,-1.0911255,3.591629,8.676376,26.055908,-15.202332,-27.868652,-1.0907412,3.640126,9.040473,0.14368618,0.0035717487,0.15308762,-0.016403198,0.21583557,-0.05619812
2019-07-01T19:26:13.848Z,0.04884198,0.17876318,0.7438986,-2.0315094,3.3595276,9.669403,26.751709,-13.83667,-28.825378,-1.5386176,3.2232964,9.133094,0.04177797,0.22031188,-0.31298542,-0.29856873,0.13220215,-0.03878784
2019-07-01T19:26:14.050Z,0.048856784,0.18044184,0.74442285,-1.4787598,3.2733765,9.164505,27.98767,-13.323975,-27.940369,-1.5552199,3.2487962,9.121239,-0.08910036,-0.10975623,0.17505455,0.1351471,0.019500732,0.0035552979
2019-07-01T19:26:14.257Z,0.054062236,0.18977469,0.7418394,-1.9142609,3.2303162,9.265015,27.1698,-15.493774,-27.82135,-1.5988524,3.4407647,9.042964,-0.11006379,-0.046525717,0.13796902,0.2011261,-0.033462524,0.010269165
2019-07-01T19:26:14.454Z,0.071881145,0.2261035,0.7330275,-1.5194397,3.9649048,9.358322,28.823853,-16.635132,-26.083374,-1.7935507,4.1494465,8.702623,0.52897584,-0.49175978,0.006508827,0.4636078,0.36183167,-0.15075684
2019-07-01T19:26:14.658Z,0.060375966,0.2587958,0.72079736,-2.6392822,4.134796,8.583054,31.140137,-17.52472,-23.187256,-2.395904,4.416735,8.421549,-0.4902742,0.19617128,-0.0013942719,-0.011276245,-0.11929321,-0.027908325
2019-07-01T19:26:14.861Z,0.07605886,0.22099747,0.7265696,-1.4237366,4.220932,8.504089,28.62091,-15.855408,-25.386047,-1.7167315,4.1131687,8.735277,-0.11558938,0.11747503,-0.16417694,-0.18084717,-0.19552612,0.046432495
2019-07-01T19:26:15.065Z,0.06989738,0.20580938,0.7306124,-1.529007,3.763916,9.001801,27.952576,-16.101074,-27.372742,-1.6111733,3.8365495,8.880056,0.021354437,0.13744783,-0.08491707,-0.12991333,-0.04953003,0.009475708
2019-07-01T19:26:15.267Z,0.063357435,0.22816741,0.72939116,-1.6247253,3.7830505,8.906082,26.760864,-15.591431,-28.051758,-1.9657764,4.0616484,8.706843,0.4072181,-0.26862144,0.33297062,-0.04762268,-0.0064086914,-0.008239746
2019-07-01T19:26:15.471Z,0.06482305,0.21508144,0.7317149,-2.5363922,4.371689,8.145172,28.320312,-15.513611,-24.700928,-1.7844068,3.9048882,8.816922,-0.58966744,0.24334192,-0.29565334,0.2429657,0.29249573,0.011001587
2019-07-01T19:26:15.671Z,0.07345599,0.19650263,0.7334747,-0.9068756,3.3762665,8.903687,28.70636,-15.699768,-25.662231,-1.4350555,3.7583296,8.943487,-0.1484319,0.07191539,-0.22525597,-0.16809082,-0.20909119,0.013626099
2019-07-01T19:26:15.876Z,0.07400966,0.18717693,0.73399234,-1.6749725,3.7184448,9.408585,26.766968,-15.673828,-26.933289,-1.3158404,3.63616,9.012064,0.06485188,-0.017429829,0.10638237,-0.1537323,-0.21818542,0.028411865
2019-07-01T19:26:16.098Z,0.076196045,0.18704657,0.7346925,-0.99780273,3.3020935,9.059235,26.461792,-15.103149,-27.864075,-1.2779586,3.6631594,9.006579,0.0316118,0.01551795,0.1427517,-0.006454468,-0.04763794,-0.024734497
2019-07-01T19:26:16.283Z,0.06625266,0.22845706,0.722175,-2.5292206,4.3860474,8.702698,27.424622,-15.107727,-28.207397,-1.9719661,4.079932,8.696889,0.55649924,-0.31890106,0.18214989,0.12420654,0.124435425,-0.016311646
2019-07-01T19:26:16.485Z,0.075517625,0.22293895,0.7212503,-1.6319122,4.106079,7.932205,29.59137,-15.716553,-25.398254,-1.7802507,4.1186185,8.719981,-0.8760687,0.2399211,-0.41746044,0.32389832,0.45474243,-0.1904602
2019-07-01T19:26:16.686Z,0.108789966,0.13069652,0.74280035,-0.279953,3.3954163,7.8269196,27.84729,-14.720154,-27.76947,-0.07500701,3.2858002,9.239495,-1.2126589,0.64296746,-0.2686348,-0.356781,-0.6513519,0.14666748
2019-07-01T19:26:16.896Z,0.110676594,0.07326528,0.7719797,1.763504,1.2897339,11.32283,20.393372,-14.801025,-34.197998,0.78248847,2.4587188,9.461121,0.63726765,0.06822777,-0.19389248,-0.47413635,-0.7467041,0.5660248
2019-07-01T19:26:17.093Z,0.15159155,0.14680599,0.7663772,1.0504456,4.0821533,8.738586,19.210815,-16.271973,-33.164978,0.5315828,4.0106354,8.93323,0.9093456,-1.3931181,0.42154026,0.056411743,-0.06437683,0.26768494
2019-07-01T19:26:17.297Z,0.12871963,0.19102739,0.7257521,-1.0959167,4.405182,8.27916,21.530151,-18.455505,-32.64923,-0.596525,4.3557334,8.7659645,0.37622625,-0.052758694,0.03532791,0.57754517,0.13238525,-0.41929626
2019-07-01T19:26:17.495Z,0.1045072,0.22464299,0.69932926,-2.3521423,4.6947174,8.743378,26.161194,-16.282654,-28.771973,-1.5207208,4.455555,8.602663,-0.06486118,0.089044094,-0.09511852,0.26190186,0.43721008,-0.5181885
2019-07-01T19:26:17.704Z,0.095722675,0.21845157,0.6987604,-1.7850494,4.268799,9.013763,29.246521,-14.198303,-26.660156,-1.5777358,4.2600703,8.6909685,-0.6740167,0.3969736,0.017056465,0.0038146973,0.22883606,-0.33822632
2019-07-01T19:26:17.904Z,0.103756234,0.18980421,0.7178718,-0.5479584,3.6299133,8.901306,28.03955,-14.051819,-27.641296,-1.0024937,4.019007,8.888925,-0.074748635,-0.059377193,0.0068712234,-0.09313965,-0.09541321,0.13671875
2019-07-01T19:26:18.116Z,0.10159238,0.19242857,0.71593684,-1.1246338,4.153946,9.023331,26.92871,-15.283203,-29.052734,-1.0771865,4.023903,8.877965,-0.06500101,0.0029115677,0.08089638,-0.0052337646,-0.012756348,0.04222107
2019-07-01T19:26:18.312Z,0.1075693,0.18612152,0.72211766,-0.8614197,4.065399,8.822342,26.733398,-15.948486,-29.5578,-0.87673575,4.02329,8.900273,0.14186466,-0.06536627,0.09085655,0.029891968,-0.043548584,0.03427124
2019-07-01T19:26:18.516Z,0.10946257,0.1857319,0.72269446,-0.825531,3.9673004,9.095123,26.493835,-15.809631,-30.274963,-0.8406112,4.042493,8.895056,-0.02936989,0.06839275,-0.16690445,-0.04168701,0.0030059814,0.048446655
2019-07-01T19:26:18.718Z,0.109089114,0.18469602,0.72433794,-0.8518524,4.0295105,8.882156,26.654053,-16.105652,-28.527832,-0.8237646,4.0258336,8.904182,0.1200003,-0.038156033,0.10908508,0.009735107,0.0041656494,-0.009033203
2019-07-01T19:26:18.921Z,0.10656604,0.18382367,0.7239647,-0.81355286,3.9625092,8.886948,25.862122,-15.792847,-28.659058,-0.85304403,3.9819117,8.92116,0.020174086,0.03683257,0.03981018,-0.0075531006,0.011856079,-0.0076293945
2019-07-01T19:26:19.132Z,0.10754069,0.18523711,0.7230012,-0.8063812,3.9146576,8.853439,25.567627,-15.231323,-28.30658,-0.8612677,4.012093,8.906836,0.023802042,-0.005833626,0.0008945465,0.0018005371,-0.001953125,-0.0040893555
2019-07-01T19:26:19.329Z,0.108509384,0.18518636,0.722212,-0.8901367,4.019943,9.037689,26.168823,-16.134644,-28.894043,-0.8511823,4.022524,8.903099,4.5776367e-05,0.0066275597,0.039384842,0.017074585,-0.036514282,-0.0012207031
2019-07-01T19:26:19.529Z,0.113052815,0.18150976,0.7225449,-0.63409424,4.043869,8.932404,25.77362,-15.789795,-29.864502,-0.73829484,4.029989,8.909799,-0.010930717,-0.010220051,0.025940895,0.015167236,-0.058135986,-0.0053100586
2019-07-01T19:26:19.732Z,0.116969824,0.18037565,0.7193623,-0.66760254,4.1084747,8.812759,24.468994,-16.394043,-28.877258,-0.6864642,4.060298,8.900176,0.0046363473,0.029438972,-0.04997635,-0.024169922,0.004348755,0.006362915
2019-07-01T19:26:19.939Z,0.11472555,0.17912059,0.7236193,-0.53359985,3.8955078,8.764908,24.775696,-16.433716,-30.329895,-0.67849666,4.019636,8.919225,0.040558636,-0.019707203,0.021783829,-0.0066986084,0.023406982,-0.0017700195
2019-07-01T19:26:20.147Z,0.11336712,0.18200132,0.7217605,-0.653244,3.969696,8.8701935,25.520325,-15.797424,-31.062317,-0.7443192,4.0397,8.904898,-0.02411145,0.02380991,-0.014632225,-0.010971069,0.0060577393,0.007095337
2019-07-01T19:26:20.339Z,0.1127917,0.1795327,0.7214618,-0.7920227,4.055832,8.944366,25.387573,-15.5303955,-29.040527,-0.7251486,3.998716,8.924954,0.051662326,-0.029745817,0.035014153,0.002090454,0.002822876,-0.0126953125
2019-07-01T19:26:20.540Z,0.112804435,0.1797908,0.720526,-0.68673706,3.9673004,8.941986,26.402283,-16.18805,-29.516602,-0.73372674,4.0013356,8.9230795,-0.021644413,0.01825428,-0.010665894,-0.008834839,0.0056915283,-0.0007324219
2019-07-01T19:26:20.743Z,0.11094006,0.17972451,0.72103775,-0.7728882,4.0175476,9.056839,24.687195,-16.433716,-31.307983,-0.7573097,3.9775748,8.931729,0.010030329,-0.0015714169,0.03638363,0.0022125244,0.0019683838,-0.002319336
2019-07-01T19:26:20.946Z,0.11122637,0.17970864,0.72091305,-0.72502136,3.9792633,8.726624,26.524353,-16.82434,-31.085205,-0.7536527,3.9808178,8.930593,0.011451423,-0.004737854,-0.008948326,-0.007003784,0.01210022,-0.011047363
2019-07-01T19:26:21.153Z,0.10935451,0.18026416,0.720414,-0.84706116,3.929016,9.013763,24.967957,-15.6188965,-30.625916,-0.790877,3.9641905,8.934769,0.014103234,0.007263422,-0.022524834,-0.015365601,0.013870239,-0.009521484
2019-07-01T19:26:21.367Z,0.107664466,0.1796552,0.7203425,-0.88534546,3.9026947,9.111862,26.48468,-15.956116,-30.456543,-0.80885255,3.9345338,8.946261,-0.0011333823,-0.0046744347,0.029971123,0.00093078613,0.008987427,-0.004638672
2019-07-01T19:26:21.556Z,0.10716351,0.1805604,0.71965605,-0.82073975,3.8428802,9.020935,25.546265,-15.438843,-29.858398,-0.83117396,3.939618,8.9419775,-0.03342873,0.012671709,-0.0030212402,-0.005844116,-0.0010986328,0.0056915283
2019-07-01T19:26:21.769Z,0.1068342,0.17833696,0.721731,-0.88534546,3.9601288,8.956329,24.815369,-15.711975,-29.203796,-0.79699755,3.9078538,8.95901,0.009718835,-0.009384394,-0.008517265,-0.0038909912,-0.003540039,0.005203247
2019-07-01T19:26:21.963Z,0.10697108,0.17882217,0.7218617,-0.7680969,3.8428802,8.951553,25.938416,-15.782166,-29.338074,-0.80002946,3.9163313,8.955037,-0.016599715,0.0049402714,-0.0012340546,-0.007736206,-0.0038452148,0.0014648438
2019-07-01T19:26:22.167Z,0.10739244,0.17890255,0.72202295,-0.71066284,3.8572235,8.98027,25.611877,-15.802002,-29.859924,-0.7938289,3.9229271,8.952702,-0.011244297,-0.0024645329,-0.0046052933,0.0026550293,-0.0057373047,0.004348755
2019-07-01T19:26:22.371Z,0.107778236,0.1774087,0.72242105,-0.8685913,4.051056,8.776871,24.82605,-15.492249,-29.312134,-0.76786476,3.907947,8.961513,0.023094952,-0.014784098,0.0070409775,-0.009262085,-0.010803223,0.011306763
2019-07-01T19:26:22.573Z,0.10865575,0.17544213,0.7219288,-0.6915283,3.8883362,8.841476,26.443481,-15.086365,-30.19867,-0.7342076,3.8917024,8.971398,-0.0011705756,-0.0017228127,-0.013598442,0.0032043457,-0.0026245117,-0.0053710938
2019-07-01T19:26:22.774Z,0.10828113,0.17553987,0.72211736,-0.6795654,3.8692017,8.932404,25.604248,-15.945435,-30.039978,-0.7397904,3.88852,8.972319,-0.011058629,0.008542299,-0.0014705658,-0.010299683,-0.0048217773,0.0026245117
2019-07-01T19:26:22.975Z,0.108350195,0.17568539,0.721278,-0.8111725,3.952942,8.997009,25.869751,-15.41748,-29.867554,-0.7454672,3.8904252,8.971023,-0.0016747117,-0.00068569183,0.0036211014,-0.004257202,-0.008178711,0.004211426
2019-07-01T19:26:23.181Z,0.10881876,0.17391805,0.72017384,-0.7034912,3.878769,8.879761,25.660706,-14.628601,-30.30243,-0.7237072,3.8711314,8.981146,0.01655215,-0.007969618,0.01117897,7.6293945e-05,-0.00579834,0.00079345703
2019-07-01T19:26:23.380Z,0.10933367,0.17397492,0.71953416,-0.6029968,3.8189392,8.977875,26.473999,-16.020203,-31.526184,-0.7205747,3.8777206,8.978555,-0.019761145,0.018549442,-0.007288933,-0.0019989014,0.0017700195,-0.006958008
2019-07-01T19:26:23.596Z,0.10844563,0.17410778,0.720515,-0.6771698,3.8452606,8.817551,25.749207,-16.299438,-30.194092,-0.72949034,3.8693612,8.9814415,0.010276616,-0.0053994656,0.012316704,-0.0075531006,-0.007507324,0.0068511963
2019-07-01T19:26:23.796Z,0.108470954,0.17386736,0.72039706,-0.72262573,3.838089,9.102295,24.890137,-15.550232,-30.836487,-0.72689843,3.866289,8.982974,0.016911805,-0.0039670467,-0.020985603,0.000869751,0.0061798096,-0.006286621
2019-07-01T19:26:23.987Z,0.108729444,0.17392805,0.7197056,-0.7034912,3.9050903,8.982651,25.590515,-15.933228,-31.77185,-0.7278727,3.8696237,8.981458,0.004380405,-0.0073394775,-0.0067777634,0.00074768066,0.00030517578,-0.001159668
2019-07-01T19:26:24.193Z,0.10769769,0.17421545,0.7198636,-0.67237854,3.7375946,8.946762,24.790955,-15.994263,-30.69458,-0.74557346,3.8606322,8.983875,-0.014423192,0.018619776,0.009353638,-0.008529663,0.0034332275,-0.0026245117
2019-07-01T19:26:24.392Z,0.10585926,0.17386055,0.72266823,-0.7728882,3.8739777,8.920441,25.318909,-16.680908,-31.611633,-0.75199807,3.8357356,8.9939995,0.018034399,-0.017638445,0.00821209,-0.008041382,0.006790161,-0.0076293945
2019-07-01T19:26:24.611Z,0.105156295,0.17374334,0.7214636,-0.79441833,3.8237305,9.147766,25.990295,-14.460754,-30.130005,-0.76789737,3.8238697,8.997707,0.0015465617,0.0018246174,0.004843712,0.0022125244,0.0034332275,-0.0064697266
2019-07-01T19:26:24.805Z,0.10419521,0.17364205,0.7223307,-0.727417,3.7256317,9.001801,25.216675,-15.5303955,-30.541992,-0.77579635,3.8113425,9.002344,-0.021095455,0.011110306,0.022292137,-0.007797241,-0.0031738281,0.0033721924
2019-07-01T19:26:24.997Z,0.103823535,0.17398906,0.7217378,-0.7776642,3.7926178,8.879761,25.85144,-15.55481,-31.32782,-0.7888659,3.8106663,9.001494,-0.003697157,-0.0003244877,-0.02484703,-0.014083862,-0.0026245117,0.0018310547
2019-07-01T19:26:25.211Z,0.104140505,0.17168505,0.723047,-0.7657013,3.8189392,9.135803,26.530457,-14.781189,-31.27594,-0.74884105,3.784782,9.015822,0.027739227,-0.022446632,0.013658524,0.012359619,-0.0087890625,-0.0026245117
2019-07-01T19:26:25.427Z,0.10547965,0.1721025,0.720479,-0.77526855,3.7926178,9.3511505,25.09613,-16.105652,-32.31659,-0.74894106,3.8045216,9.007502,-0.02335465,0.012712717,0.007048607,0.018585205,-0.018249512,0.005264282