timestamp,rotationVector_x,rotationVector_y,rotationVector_z,accelerometer_x,accelerometer_y,accelerometer_z,magneticField_x,magneticField_y,magneticField_z,gravity_x,gravity_y,gravity_z,linearAcceleration_x,linearAcceleration_y,linearAcceleration_z,gyroscope_x,gyroscope_y,gyroscope_z
2019-07-01T19:29:48.741Z,-0.02839743,-0.026648087,0.41712058,-4.8095703,-3.1298065,14.232513,18.147278,22.694397,-37.797546,0.2422586,-0.7237465,9.776906,-0.9146701,0.17848092,1.0005445,-1.1992645,0.087905884,-0.09199524
2019-07-01T19:29:48.943Z,-0.1075097,0.107577205,0.48668665,-5.1756744,0.73220825,6.599411,30.851746,18.722534,-37.239075,-2.841286,-0.78702813,9.352972,-0.038101435,-0.58709705,0.10103989,0.61221313,2.349945,0.91459656
2019-07-01T19:29:49.164Z,-0.15324517,0.19250803,0.50528884,-0.57188416,0.7800598,9.992432,41.69159,16.447449,-27.046204,-4.641718,-0.57822216,8.619194,0.21920252,0.7963941,0.5770006,0.59033203,-0.556015,0.43011475
2019-07-01T19:29:49.341Z,-0.005655234,0.17259341,0.503472,1.2203369,0.44984436,5.699707,38.55591,6.9732666,-35.643005,-2.9216201,1.6104157,9.221773,-1.2566948,-0.945784,0.86807823,1.6658325,-0.73524475,0.43078613
2019-07-01T19:29:49.543Z,0.13331991,0.01827028,0.54782015,6.262024,1.3830566,4.371689,23.709106,-9.49707,-41.181946,1.1365812,2.3553896,9.451492,-1.9570924,-0.7853658,-1.2615719,-0.7703705,-2.4894867,0.38687134
2019-07-01T19:29:49.755Z,0.23072058,-0.052719306,0.5491066,2.4741821,5.8289185,5.64946,7.318115,-8.070374,-46.03424,3.313608,3.0593586,8.708084,0.9469626,-1.015598,-0.4214182,1.0286865,-0.5453949,-0.2447052
2019-07-01T19:29:49.959Z,0.21895725,-0.030964572,0.5327991,0.100494385,3.0771637,7.389038,7.1273804,-12.612915,-44.83795,2.784172,3.1843107,8.847539,1.4534092,0.8777087,-3.01447,-0.5545502,0.5795288,-0.58587646
2019-07-01T19:29:50.164Z,0.16327731,-0.011150967,0.4736831,0.8446655,4.0486603,8.420349,12.458801,-6.411743,-46.28601,1.7061857,2.6676233,9.281331,0.38406646,1.1401358,-1.0962801,-0.638916,0.53822327,-0.34916687
2019-07-01T19:29:50.362Z,0.087781,0.022201777,0.45133054,0.52163696,3.151352,10.004395,18.974304,-1.2542725,-44.59839,0.39047313,1.724951,9.645851,0.35696313,1.631346,-0.16871643,-0.124923706,0.1676178,-0.59461975
2019-07-01T19:29:50.567Z,0.10504121,0.017655192,0.4290009,1.2059784,1.0265198,8.030319,18.803406,-1.1825562,-46.235657,0.57321894,1.9965612,9.58413,0.63339895,0.20870602,1.41255,-0.14251709,-0.061706543,-0.37005615
2019-07-01T19:29:50.773Z,0.09043697,0.016658712,0.34853214,-1.1724854,1.7515411,9.054443,17.001343,1.3809204,-44.355774,0.31344724,1.7684025,9.640793,0.95609355,-1.3489121,0.23975658,-0.059143066,-0.06970215,-1.4798279
2019-07-01T19:29:50.971Z,0.123126,-0.006227129,0.18115836,0.7393799,2.4358978,10.760529,12.663269,5.4016113,-45.39795,0.5566469,2.33409,9.508553,-0.73776335,-1.0893252,0.24795818,0.14060974,-0.73262024,-1.4925385
2019-07-01T19:29:51.168Z,0.14016819,-0.078372456,0.036407184,-0.08135986,2.892929,9.3511505,1.222229,5.3115845,-47.138977,1.6162488,2.6556702,9.300836,-0.85220206,0.6539779,-0.46282005,-0.23977661,-0.48435974,-0.9565582
2019-07-01T19:29:51.372Z,0.042274766,-0.069642,-0.011128332,2.268402,-1.9262238,10.025925,-0.47912598,12.112427,-45.533752,1.3520572,0.8415403,9.676474,-1.9309499,1.6183227,-0.43228817,-1.3788605,-0.4573059,-0.060043335
2019-07-01T19:29:51.576Z,-0.028324967,-0.12615551,-0.0056014666,4.3573303,-1.4069824,9.056839,-4.2922974,18.099976,-42.041016,2.4566293,-0.5370142,9.478765,0.85056067,-1.714537,0.7174301,-0.112472534,-0.5196686,-0.1855774
2019-07-01T19:29:51.778Z,-0.05141876,-0.18722655,-0.039985515,4.5559387,-0.7010956,8.635696,-9.793091,18.88733,-40.071106,3.639582,-0.8416459,9.067275,0.5911839,0.3023907,-1.3041229,-0.47904968,-0.47514343,-0.59339905
2019-07-01T19:29:51.976Z,-0.101752385,-0.19775493,-0.1018026,4.697113,-2.2755737,5.962921,-13.511658,19.78302,-37.09259,3.963987,-1.5402294,8.836565,0.3191676,1.4059595,-0.03363514,-0.5197296,-0.33488464,-0.4537506
2019-07-01T19:29:52.186Z,-0.14846447,-0.34909087,-0.04377265,7.5350037,-9.600006,4.4027863,-21.498108,20.159912,-31.855774,6.455415,-2.391505,6.9841757,-2.411162,0.29505777,-1.113914,-0.65467834,-2.4557648,1.427002
2019-07-01T19:29:52.386Z,-0.36174524,-0.5040092,0.17170638,6.570694,-10.454239,5.079956,-18.562317,32.08313,-21.394348,6.3466115,-7.1269426,2.257788,0.753777,-2.7581735,2.8637521,-1.2386017,-1.0518036,2.415924
2019-07-01T19:29:52.594Z,-0.5003498,-0.33828664,0.21713445,5.1254272,-4.450653,2.6033936,0.6851196,39.692688,-10.5896,2.9571612,-8.966199,2.6519582,4.0062466,-1.0983629,2.677137,-0.68032837,1.9556274,1.0309601
2019-07-01T19:29:52.796Z,-0.5838767,-0.2379755,0.04315766,2.7684937,-8.542374,-1.7395782,2.9418945,37.939453,-0.46691895,3.122974,-9.076308,2.0094929,-1.2558732,0.5632448,1.0981562,0.043792725,-0.09553528,-1.3514252
2019-07-01T19:29:52.992Z,-0.63508296,-0.19129787,0.13599037,-1.9166565,-9.779465,0.55992126,-5.3085327,33.988953,6.013489,1.0672611,-9.676932,1.1782645,3.3146954,0.4379568,-1.0096174,-0.64385986,0.56181335,1.7470245
2019-07-01T19:29:53.195Z,-0.6310653,-0.2623813,0.13695906,1.7778625,-9.772293,0.5144501,-0.6729126,34.109497,11.434937,1.9948549,-9.579886,0.64552504,-0.8381835,0.7614269,-0.9166144,0.86724854,-0.8144226,-0.32278442
2019-07-01T19:29:53.400Z,-0.5731809,-0.21060704,0.1834569,3.0197449,-16.675583,-1.2562256,-0.35095215,34.207153,10.987854,1.1197014,-9.418149,2.4930136,0.821478,1.0495987,0.5297744,0.09101868,-0.36016846,0.8844757
2019-07-01T19:29:53.600Z,-0.62167245,-0.22468637,0.22489901,-1.730011,-12.004791,0.023925781,4.9179077,35.446167,9.288025,0.41248995,-9.719646,1.2364099,0.14666802,-4.1097946,0.49009728,-0.43322754,0.023452759,-0.029327393
2019-07-01T19:29:53.811Z,-0.6351409,-0.17115115,0.19860706,1.2849426,-10.042679,0.6508484,7.1777344,34.910583,13.014221,-0.03521608,-9.717337,1.3200402,-1.9378716,0.92085266,-0.57001543,-0.041549683,0.78141785,0.16127014
2019-07-01T19:29:54.011Z,-0.6708961,-0.13067038,0.16767389,-1.134201,-10.207779,3.4743805,5.6106567,33.851624,13.919067,-0.38559258,-9.777896,0.6437803,0.7732755,0.43186474,0.46172047,-0.6318817,0.28918457,0.17520142
2019-07-01T19:29:54.215Z,-0.6989302,-0.091748215,0.12056796,-2.3234253,-11.298904,-0.92123413,3.843689,31.291199,18.528748,-0.39502063,-9.798505,0.060386084,-0.015036881,-0.3682623,3.2940736,0.5071411,0.30108643,-0.0124053955
2019-07-01T19:29:54.416Z,-0.5920389,-0.119863585,0.18490915,-0.7130585,-8.240875,2.703888,0.18920898,34.265137,17.9245,-0.32470733,-9.436175,2.6502004,0.36155358,-2.055396,-3.1261954,0.78862,-1.225769,-0.13279724
2019-07-01T19:29:54.617Z,-0.5563457,-0.21113068,0.22213033,2.1966095,-8.329422,3.2614136,-0.9552002,38.911438,10.23407,0.77454036,-9.347806,2.8616452,-1.3906927,1.1099453,-0.99218154,0.018615723,-0.93151855,0.17849731
2019-07-01T19:29:54.822Z,-0.5772227,-0.22274676,0.2689392,-4.0534363,-8.300705,-2.1272125,-2.9693604,40.37018,11.746216,0.18011527,-9.531749,2.2986357,1.5083789,0.32054806,0.66818357,-0.206604,-0.6470337,0.25852966
2019-07-01T19:29:55.025Z,-0.6123035,-0.24475682,0.24456014,-1.7252197,-8.841476,0.8518524,-4.4052124,40.48462,12.886047,0.47563985,-9.711329,1.278366,-1.7151678,-1.2227364,-0.60317826,-0.4588318,0.23072815,-0.050704956
2019-07-01T19:29:55.223Z,-0.642756,-0.14521797,0.16892336,0.52163696,-9.791428,1.1198425,-9.132385,42.112732,16.355896,-0.0419028,-9.721332,1.2900937,-1.1193346,0.6571226,-0.104035854,-0.16255188,0.8345032,0.14868164
2019-07-01T19:29:55.435Z,-0.69587374,-0.09586273,0.12802723,-0.15553284,-12.421143,4.6995087,-10.317993,39.80255,21.673584,-0.4309947,-9.796327,0.1288605,0.38177857,0.2791052,1.3295194,-0.60879517,0.41055298,0.078063965
2019-07-01T19:29:55.681Z,-0.6741078,-0.037306912,0.08432989,3.069992,-12.354141,-1.2610168,-8.456421,46.913147,14.134216,-0.5787278,-9.7511215,0.86665016,0.58602613,-0.9516001,2.0383172,1.2901459,-0.115097046,0.09089661
2019-07-01T19:29:55.881Z,-0.60407376,-0.10634219,0.13231817,-1.9405823,-8.003998,0.8542328,-5.9692383,48.53363,14.437866,0.056333248,-9.501196,2.4278557,0.59040546,-0.8620901,-2.811996,0.19107056,-1.2515564,-0.21826172
2019-07-01T19:29:56.084Z,-0.59546775,-0.13675718,0.16055577,3.1178436,-11.286942,2.909668,5.264282,46.302795,12.768555,0.20414709,-9.4843,2.485312,-1.3349261,1.1920958,-0.96247697,-0.26579285,-0.5166168,0.49241638
2019-07-01T19:29:56.290Z,-0.6042904,-0.16895242,0.20696907,-1.6366882,-8.147568,2.100891,7.1380615,42.91687,14.266968,0.034363933,-9.582452,2.084662,1.9318893,-2.5353851,1.1056819,-0.38105774,-0.21014404,-0.21801758
2019-07-01T19:29:56.493Z,-0.6441468,-0.13757256,0.15564303,0.9499512,-8.6931305,1.3375854,5.2124023,40.881348,16.119385,0.01996115,-9.72043,1.2973938,-2.7449841,1.3054543,-1.1696558,0.016357422,0.9506836,0.11160278
2019-07-01T19:29:56.690Z,-0.6764981,-0.034575753,0.06859988,-0.63648987,-9.18605,2.8450623,3.9352417,36.447144,21.916199,-0.4135168,-9.764623,0.80718166,0.5679046,0.46986008,0.08429426,-0.6145325,0.91593933,0.11997986
2019-07-01T19:29:56.907Z,-0.7156619,0.011208824,0.02418066,-0.279953,-11.413757,-0.9308014,2.8915405,37.519836,15.910339,-0.49284777,-9.791287,-0.24119627,0.5807631,0.07700157,2.9331708,0.056869507,0.642807,0.0466156
2019-07-01T19:29:57.094Z,-0.6087352,0.0023305793,0.050901733,-0.39482117,-7.922638,2.7182465,5.3604126,39.993286,9.365845,-0.64392185,-9.450445,2.5386677,0.22106326,-2.1782846,-2.2902627,1.2021179,-0.91386414,-0.045196533
2019-07-01T19:29:57.308Z,-0.58987343,-0.102781564,0.09416912,0.55274963,-8.382065,2.3928223,9.477234,40.42206,8.529663,0.5139032,-9.391789,2.7749927,-0.32603043,0.6974859,-1.4165955,0.1391449,-0.7894287,-0.09498596
2019-07-01T19:29:57.511Z,-0.6083247,-0.12065196,0.1578966,2.0602264,-18.57309,1.0480499,10.65979,37.561035,11.219788,-0.06555376,-9.541731,2.2630637,1.1808296,0.50789165,0.13977265,-0.28320312,-0.41807556,0.40678406
2019-07-01T19:29:57.718Z,-0.6498903,-0.09159412,0.11354938,0.35653687,-10.018753,0.8518524,10.731506,36.73706,14.7491455,-0.10738333,-9.711535,1.3582824,-1.6296505,0.9374094,-0.36592293,-0.059753418,1.2220306,0.108306885
2019-07-01T19:29:57.915Z,-0.69230956,-0.030600434,0.06300408,0.6963043,-9.657425,2.8809662,10.636902,35.98175,17.242432,-0.4244573,-9.7897835,0.38777608,0.83963215,0.34182644,0.48565596,-0.6331024,0.6657715,0.10671997
2019-07-01T19:29:58.172Z,-0.70656896,0.0009812614,0.037374128,-3.460022,-10.444672,-1.9333954,8.673096,31.47583,17.538452,-0.5315364,-9.792224,0.014894109,0.84920144,-0.55653954,3.2586622,0.66259766,0.2583313,0.075805664
2019-07-01T19:29:58.368Z,-0.60925543,-0.044304717,0.08868716,-1.7682953,-8.226532,1.4811554,5.117798,34.439087,9.376526,-0.37611035,-9.478373,2.4878466,0.87091255,-1.6055441,-3.4460788,0.6850891,-1.0501404,-0.1539917
2019-07-01T19:29:58.577Z,-0.5888891,-0.12426714,0.12128661,2.376068,-8.949158,3.952942,1.2893677,35.357666,8.514404,0.52298075,-9.412528,2.7020712,-1.490674,1.1927319,-0.59492683,0.010131836,-0.750824,0.19554138
2019-07-01T19:29:58.774Z,-0.600503,-0.15399586,0.19605596,-4.3262177,-9.867996,-0.9308014,6.8344116,36.123657,13.575745,-0.014346688,-9.540562,2.2688942,1.8484377,0.26180935,1.0930555,-0.17990112,-0.8430023,0.30421448
2019-07-01T19:29:58.988Z,-0.6251508,-0.20481086,0.20655076,-3.4719849,-9.054443,0.090927124,12.367249,34.84955,18.525696,0.37685424,-9.710262,1.3187784,-1.6395049,-1.2180243,-0.6673989,-0.38136292,0.08294678,-0.12260437
2019-07-01T19:29:59.179Z,-0.6453354,-0.11887197,0.1456391,0.1986084,-9.444473,0.94755554,11.830139,35.012817,20.99762,-0.117141426,-9.710988,1.3613927,-1.4043194,0.4243765,-0.2669598,-0.20188904,1.0315094,0.11778259
2019-07-01T19:29:59.386Z,-0.6931597,-0.078908846,0.120575495,-0.5862427,-11.047668,2.033905,10.629272,30.82428,24.423218,-0.5462317,-9.787949,0.2609168,0.6471665,0.35450745,0.9847046,-0.579834,0.4666443,0.07684326
2019-07-01T19:29:59.584Z,-0.7053139,-0.043805502,0.09389003,-2.6488495,-7.4440765,-0.6628113,9.216309,29.782104,24.420166,-0.6963092,-9.781891,0.012029152,0.8128961,-0.5665369,2.4061067,0.5787964,0.23573303,0.07733154
2019-07-01T19:29:59.791Z,-0.6120278,-0.064830266,0.12679063,-0.22970581,-8.453842,2.560318,6.8634033,35.261536,11.889648,-0.5328406,-9.499154,2.3775043,0.42814845,-0.9972706,-2.47124,0.76553345,-0.727005,-0.040802002
2019-07-01T19:29:59.991Z,-0.59210557,-0.1286321,0.16629404,1.105484,-8.413162,2.9288177,6.149292,32.8537,6.2942505,0.03150143,-9.454024,2.6059172,-0.42104974,0.8750963,-0.9381242,0.0052490234,-0.5022583,0.14001465
2019-07-01T19:30:00.188Z,-0.6071978,-0.15339239,0.22842464,1.964508,-13.617554,1.6941223,10.133362,30.73883,2.9052734,-0.47782028,-9.564166,2.1139517,1.9358602,0.6787157,0.51207113,-0.14955139,-0.6208954,0.2871704
2019-07-01T19:30:00.396Z,-0.60103947,-0.21319129,0.21776323,-3.0963135,-10.238892,0.4785614,10.116577,30.220032,3.7078857,0.5222889,-9.6202345,1.8299408,-2.0569572,-1.3461361,-0.4955418,-0.2855835,0.06895447,-0.45594788
2019-07-01T19:30:00.605Z,-0.632543,-0.1468242,0.1750257,0.8805542,-10.70549,0.67237854,9.321594,30.081177,5.4473877,-0.040239915,-9.685474,1.5363485,-1.2955209,-0.33773136,0.09944117,-0.3571167,0.8338928,0.1053772
2019-07-01T19:30:00.804Z,-0.68937534,-0.12477391,0.14006004,-2.663208,-9.676575,3.6466675,9.455872,28.364563,11.888123,-0.18142234,-9.803314,0.18030785,0.42305243,0.5672579,1.6981041,-0.6501465,0.35105896,0.017471313
2019-07-01T19:30:01.009Z,-0.6979037,-0.06731921,0.09078603,-2.7828522,-10.636093,-2.720642,6.814575,28.623962,12.199402,-0.30892104,-9.800399,0.16472428,-0.37572175,-0.1653595,2.716836,0.8881378,0.4786682,0.1722107
2019-07-01T19:30:01.212Z,-0.60702455,-0.109215304,0.16337478,-1.3184509,-8.367706,1.3663025,8.641052,31.132507,5.3863525,-0.2957014,-9.517406,2.3456182,1.4857965,-1.6325684,-3.153731,0.4348755,-0.8776398,-0.1053772
2019-07-01T19:30:01.413Z,-0.5874202,-0.17639993,0.20763463,0.25125122,-8.997009,1.7348022,9.04541,31.311035,4.499817,0.24429199,-9.498051,2.42853,-1.0843046,0.6820955,-0.7000177,-0.037765503,-0.55607605,0.17727661
2019-07-01T19:30:01.615Z,-0.61266524,-0.17434475,0.24631199,1.4572296,-16.795227,0.34934998,11.86676,29.373169,5.8792114,-0.4619809,-9.61978,1.84846,0.9105412,0.31954575,0.21620095,-0.29249573,-0.16371155,0.3692627
2019-07-01T19:30:01.818Z,-0.62805545,-0.19509995,0.24236639,-0.83270264,-10.487747,-0.43788147,10.13031,28.15857,6.6085815,-0.25619683,-9.713546,1.3235514,-0.64116263,-0.8285351,0.30477774,-0.11949158,0.07836914,-0.1313324
2019-07-01T19:30:02.020Z,-0.64531326,-0.1390129,0.20321277,-0.62931824,-9.808182,0.44506836,8.9782715,28.935242,9.455872,-0.6003286,-9.706812,1.2600806,-1.5409148,-0.01761818,-0.7637825,-0.05204773,0.97372437,0.006668091
2019-07-01T19:30:02.215Z,-0.6601239,-0.06691062,0.13333559,-0.34457397,-9.662216,1.4333038,6.5307617,29.785156,10.487366,-0.7601889,-9.706634,1.1720792,0.124667525,0.0992775,-0.2380755,-0.047042847,0.97994995,-0.14311218
2019-07-01T19:30:02.422Z,-0.6658205,-0.020395143,0.06669596,-0.825531,-9.67897,1.0145569,3.7750244,30.978394,11.521912,-0.5738283,-9.727446,1.1035842,0.34385157,0.007452011,0.081080794,0.047027588,0.52485657,-0.15692139
2019-07-01T19:30:02.622Z,-0.6626643,0.025872381,-0.013560664,0.4355011,-10.31546,0.6915283,0.82244873,33.181763,12.393188,-0.20349474,-9.733169,1.1808517,-0.25790492,-0.068011284,-0.5641806,0.1754303,0.33547974,-0.12846375
2019-07-01T19:30:02.830Z,-0.660917,0.033733767,-0.048818547,1.5385895,-9.872787,1.5984039,-1.31073,34.059143,12.358093,0.1378513,-9.729863,1.2170205,0.71550876,-0.28316307,-0.12893963,-0.122909546,0.40377808,-0.16096497
2019-07-01T19:30:03.031Z,-0.6728302,0.043361124,-0.06589192,0.97387695,-9.707687,0.9523468,-0.68969727,33.28705,13.833618,0.24396019,-9.763059,0.890823,1.2832309,0.11562061,0.6336991,-0.18675232,0.0155181885,-0.009277344
2019-07-01T19:30:03.237Z,-0.6831748,0.024561897,-0.05770562,-0.06939697,-9.772293,0.22013855,-2.5634766,32.720947,14.250183,0.42272246,-9.77656,0.64074475,-0.016352266,0.15502739,0.35989094,-0.084487915,0.07910156,-0.120269775
2019-07-01T19:30:03.442Z,-0.6843815,0.058934227,-0.101979345,2.1966095,-9.63829,0.74894714,-3.6071777,32.647705,14.805603,0.5371454,-9.776353,0.552089,-0.45510328,0.009976387,0.038382947,-0.13244629,0.5505676,-0.09577942
2019-07-01T19:30:03.644Z,-0.6952591,0.04763572,-0.105791405,2.045868,-10.085754,-0.22970581,-5.908203,33.143616,16.05835,0.77988034,-9.771541,0.28136504,0.9124017,0.08723736,0.44264558,-0.0006713867,-0.06866455,-0.111968994
2019-07-01T19:30:03.842Z,-0.68872815,0.047281314,-0.11091994,1.3830566,-9.59761,0.43070984,-4.6081543,31.625366,15.847778,0.83535373,-9.760205,0.4593046,0.6121392,-0.074183464,-0.23534402,0.020584106,-0.00819397,0.057113647
2019-07-01T19:30:04.046Z,-0.69067216,0.031328175,-0.08154473,0.6771698,-9.542572,1.0265198,-4.496765,32.287598,16.355896,0.6635384,-9.774666,0.43130633,0.7980572,0.19347286,0.28885713,0.06492615,-0.3587036,0.120285034
2019-07-01T19:30:04.247Z,-0.67960864,0.007644627,-0.051480558,2.0027924,-9.59761,1.1988068,-2.9953003,31.965637,14.414978,0.57649094,-9.7611685,0.7467496,0.40644616,0.28310394,-0.012297273,0.16786194,-0.20359802,0.10169983
2019-07-01T19:30:04.449Z,-0.67602605,0.0021675439,-0.02725639,2.5698853,-9.322433,1.5960083,-1.6296387,32.136536,13.262939,0.3300902,-9.764768,0.84305984,1.4930348,0.3417883,0.21379536,0.051116943,-0.13279724,0.22576904
2019-07-01T19:30:04.656Z,-0.6635121,-0.009550678,-0.02954363,-3.7471619,-9.561722,1.5457611,-2.708435,29.814148,12.002563,0.52449673,-9.722452,1.1701386,0.75177896,-0.32263947,-0.26628304,-0.03250122,0.15472412,-0.15766907
2019-07-01T19:30:04.855Z,-0.6699821,0.07640289,-0.06461813,0.46180725,-8.458633,2.0530396,-4.7592163,26.599121,14.453125,-0.25319144,-9.763061,0.8882205,-2.0923433,-0.59647846,0.9900764,-0.07917786,1.0831909,0.42822266
2019-07-01T19:30:05.065Z,-0.67466307,0.1574318,-0.106584504,-1.0648041,-9.434906,3.0029907,-8.370972,25.202942,13.182068,-0.7918887,-9.766715,0.39314747,1.3142662,0.8658352,0.9697975,-0.42077637,0.95111084,0.067993164
2019-07-01T19:30:05.268Z,-0.68425053,0.23905651,-0.17870471,1.3375854,-10.547562,-2.5005035,-11.11145,21.44928,13.059998,-0.7214232,-9.767435,-0.49713388,0.53118944,-0.7530546,3.359491,0.05595398,0.9740906,0.0068511963
2019-07-01T19:30:05.469Z,-0.60779995,0.20398512,-0.1971069,-1.3471527,-6.623337,3.5389862,-5.9783936,23.947144,7.5439453,-0.6177031,-9.630362,1.744981,0.27260512,-1.4242153,-0.6398437,1.076767,-1.1315155,-0.12748718
2019-07-01T19:30:05.665Z,-0.61127067,0.08180371,-0.15447594,3.2446747,-8.288742,3.287735,-0.579834,24.23706,6.70166,0.6135871,-9.501903,2.3468554,-0.53459775,1.4839792,-1.3387754,0.10800171,-0.9324951,-0.15338135
2019-07-01T19:30:05.871Z,-0.6211522,0.022752909,-0.09181231,-3.4337006,-8.791229,-0.22970581,3.8208008,27.374268,6.629944,0.7713627,-9.518745,2.229095,0.8751461,-0.32530975,1.4737613,-0.0965271,-0.5886383,-0.184906
2019-07-01T19:30:06.070Z,-0.6604301,0.02438142,-0.08879046,0.5359955,-7.680954,1.2610168,3.6758423,26.663208,12.683105,0.7937572,-9.695463,1.2402995,-2.9635334,-1.7248344,-1.370645,-0.50634766,0.60121155,0.35998535
2019-07-01T19:30:06.323Z,-0.671365,0.11999173,-0.1170545,-0.5479584,-9.997208,4.266403,2.116394,25.215149,16.682434,-0.15765549,-9.781502,0.68393546,-0.028850928,1.7682753,0.22517377,-0.6456299,0.8459778,0.21411133
2019-07-01T19:30:06.479Z,-0.699961,0.15563941,-0.13138531,-2.725418,-14.632111,-2.6416779,0.5645752,26.416016,17.669678,-0.28584123,-9.798543,-0.2779013,0.8529909,-0.41769028,4.3021765,0.4777527,0.12284851,0.15498352
2019-07-01T19:30:06.683Z,-0.61673397,0.06853443,-0.060213394,-2.5363922,-5.6685944,1.9740753,3.239441,31.5979,11.819458,-0.32262284,-9.538553,2.2543974,-0.0018829107,-2.680068,-3.3008742,0.8210602,-1.1732941,-0.19340515
2019-07-01T19:30:06.883Z,-0.6081994,-0.015466528,-0.019663023,3.6897278,-15.019745,3.8165588,5.7006836,32.862854,10.542297,0.47523078,-9.458223,2.5468712,-0.97319585,3.119608,-0.9331591,0.04135132,-0.8162384,0.2494812
2019-07-01T19:30:07.085Z,-0.61071056,-0.070919506,0.026249466,-2.7637177,-10.100098,-0.45703125,6.3919067,33.62274,12.330627,0.78198993,-9.478026,2.3928816,0.9759779,-2.6720676,0.29199934,-0.24758911,-0.041549683,-0.44030762
2019-07-01T19:30:07.287Z,-0.66347504,0.007731969,-0.011532497,0.727417,-8.992233,-0.64367676,1.9485474,32.269287,17.521667,0.0366273,-9.736329,1.1717201,-2.6792862,0.49960995,-0.18307865,-0.4443512,1.2864838,0.51501465
2019-07-01T19:30:07.507Z,-0.7015275,0.11023441,-0.07392485,2.457428,-11.399414,6.324234,-1.5472412,32.362366,22.590637,-0.49666527,-9.793703,-0.08418842,0.8866459,1.1192274,1.4823925,-0.6976166,1.1654663,0.030975342
2019-07-01T19:30:07.699Z,-0.64701223,0.12650283,-0.09199468,4.051056,-10.088135,-3.0173492,-1.2466431,37.268066,13.006592,-0.6841658,-9.698368,1.2821645,1.3186834,-1.0513906,1.4554534,1.4213715,-0.4717102,0.26211548
2019-07-01T19:30:07.900Z,-0.6063759,0.04026045,-0.06157431,-0.117248535,-6.4749756,2.5052795,-1.6784668,37.1933,9.461975,0.10709354,-9.465138,2.5632114,-0.017265417,-1.021944,-2.9100575,0.13920593,-0.8192444,-0.3357849
2019-07-01T19:30:08.097Z,-0.61120504,0.004435625,0.0011689907,-3.3643036,-12.093323,-1.9214325,-1.8508911,38.85956,9.202576,-0.082868315,-9.487709,2.4792917,0.9603698,1.4302244,0.03254938,0.033584595,-0.32052612,0.09437561
2019-07-01T19:30:08.299Z,-0.6283091,0.0021003967,-0.049078,-2.7708893,-6.5659027,4.3358,-5.735779,37.39624,14.350891,0.5728139,-9.569906,2.0637755,-1.4093833,-3.2476044,-0.96820974,-0.5755615,0.46192932,0.017715454
2019-07-01T19:30:08.506Z,-0.64355564,0.1608769,-0.11655699,0.40678406,-9.611969,4.58226,-12.068176,35.717773,16.534424,-0.86110485,-9.697738,1.1759104,-0.45163196,2.146328,0.35851312,-0.61642456,2.034134,0.28851318
2019-07-01T19:30:08.709Z,-0.6649659,0.25972596,-0.1930428,-0.7800598,-13.134201,-3.012558,-14.569092,37.68158,14.845276,-0.91125596,-9.76239,-0.18901879,1.9346817,0.04448223,3.5175595,0.27867126,0.7963867,0.054489136
2019-07-01T19:30:08.906Z,-0.583054,0.14465304,-0.21449673,5.3072815,-17.776276,3.3116608,-12.5,39.593506,11.526489,0.2679213,-9.41557,2.728671,-0.28727803,3.4564934,-1.4165139,-0.112960815,-0.6863098,0.028778076
2019-07-01T19:30:09.127Z,-0.5953722,0.09707051,-0.19380888,-2.5459595,-10.473389,-0.34934998,-9.446716,41.098022,12.689209,0.7902002,-9.403162,2.6695523,1.2452775,-2.3949518,0.46607494,-0.106658936,0.040924072,-0.503479
2019-07-01T19:30:09.325Z,-0.62137574,0.2018087,-0.23211107,1.2849426,-8.312668,-0.54556274,-12.1521,39.361572,15.995789,-0.023511278,-9.70106,1.4350154,-2.9892685,-0.041234016,-0.5329082,-0.5598755,1.5611267,0.44056702
2019-07-01T19:30:09.574Z,-0.6246188,0.33195058,-0.2978708,1.5840454,-13.191635,6.3266296,-14.949036,38.01117,15.834045,-0.52442247,-9.792615,-0.0066655055,0.99980277,1.6497307,1.4966853,-0.683197,1.3652802,0.023880005
2019-07-01T19:30:09.775Z,-0.54938835,0.33391893,-0.35653496,3.9098663,-9.820145,-1.7754669,-18.347168,38.327026,11.657715,-0.5979844,-9.639666,1.6998963,1.6068201,-0.6559067,1.5333564,1.5622864,-0.27868652,0.17990112
2019-07-01T19:30:10.060Z,-0.53747284,0.25258833,-0.35247752,-0.37806702,-5.1015015,3.1417694,-17.616272,41.79077,3.6514282,0.13266733,-9.370364,2.8894718,0.0558341,-2.3251247,-3.2348726,0.02003479,-0.8058624,-0.27897644
2019-07-01T19:30:10.175Z,-0.558687,0.23360422,-0.296227,0.16270447,-13.660629,-2.778061,-17.633057,40.96985,5.9768677,-0.13816929,-9.450722,2.6144118,0.73236525,1.6557751,-0.36527443,-0.0076446533,-0.18760681,0.10592651
2019-07-01T19:30:10.378Z,-0.5739858,0.22775376,-0.34584552,-1.1246338,-9.078369,1.6821594,-21.246338,38.66272,9.352112,0.73776895,-9.497837,2.3274815,-1.5198702,-2.5666742,-0.8960488,-0.47207642,0.6253967,-0.18850708
2019-07-01T19:30:10.579Z,-0.5379683,0.35689262,-0.38829243,0.76091003,-8.714661,3.0197449,-24.639893,36.16333,11.474609,-0.5061416,-9.656615,1.6321763,-0.6929782,1.000042,-0.57519054,-0.49731445,1.3983307,0.28723145
2019-07-01T19:30:10.784Z,-0.5296009,0.45324314,-0.405625,-2.0769653,-9.205185,1.6582336,-26.342773,33.854675,12.284851,-1.0425456,-9.747157,0.27642095,1.7380977,0.09605217,1.7599229,-0.05393982,1.2195892,0.15345764
2019-07-01T19:30:10.993Z,-0.4127616,0.4690094,-0.5327273,-2.1750793,-8.98027,1.2681885,-27.928162,32.055664,5.1116943,-0.93831056,-9.521774,2.1507564,-1.1125698,-1.0034208,-2.672776,1.0823822,0.783432,-0.52394104
2019-07-01T19:30:11.191Z,-0.4067293,0.45212114,-0.6039226,1.832901,-10.301102,2.038681,-29.296875,27.485657,-0.21820068,0.24905767,-9.465276,2.5528224,-0.94422203,0.021972656,-2.004589,0.14215088,0.6328583,-0.6641388
2019-07-01T19:30:11.395Z,-0.40924537,0.4646111,-0.625993,1.2059784,-9.676575,1.421341,-30.54657,25.015259,-2.255249,0.704205,-9.5099745,2.2879848,0.4334674,-0.21182537,-0.3736782,-0.25057983,0.20146179,-0.2393341
2019-07-01T19:30:11.598Z,-0.4290472,0.47391868,-0.6178338,1.5003052,-8.894119,2.325821,-32.019043,24.176025,-0.6286621,0.94358605,-9.59542,1.7910783,0.20771968,0.14155483,0.23354757,-0.29486084,0.026443481,-0.09291077
2019-07-01T19:30:11.796Z,-0.46325114,0.47161627,-0.5775821,2.5818634,-9.915863,2.1894379,-29.483032,22.865295,1.8676758,0.81775165,-9.694122,1.2351763,0.67150456,0.7237978,0.93763494,-0.24716187,-0.40408325,0.29370117
2019-07-01T19:30:12.077Z,-0.4794837,0.48337793,-0.5280629,-2.0554352,-8.420349,0.5886383,-26.164246,24.59259,4.876709,0.15429385,-9.779353,0.7147312,1.6516857,-0.8058748,1.0185757,-0.26591492,0.092544556,0.24862671
2019-07-01T19:30:12.211Z,-0.46610257,0.5119057,-0.531291,-0.2679901,-9.707687,0.0765686,-22.109985,23.554993,4.425049,-0.045585807,-9.798136,0.4060126,-1.3797102,0.46888924,0.09433672,-0.13702393,0.45307922,0.035980225
2019-07-01T19:30:12.430Z,-0.45264858,0.5207097,-0.5434387,0.03111267,-9.265015,1.2873383,-20.6604,22.135925,2.4169922,-0.05884358,-9.795197,0.47014448,0.09121924,0.43889904,0.43444294,0.0632782,0.059555054,0.03929138
2019-07-01T19:30:12.614Z,-0.47004494,0.51209885,-0.5176626,-1.5792694,-10.040283,1.7826538,-17.645264,21.09375,2.8335571,-0.23788986,-9.798217,0.32974878,0.027004614,0.34868145,1.030792,-0.29693604,-0.33016968,0.037017822
2019-07-01T19:30:12.821Z,-0.5130373,0.50725657,-0.47646174,0.78245544,-9.690933,1.3232269,-15.847778,21.037292,6.600952,-0.20465192,-9.796253,-0.40239587,-0.6803402,-0.38205814,2.2555902,-0.3387909,-0.07385254,-0.08288574
2019-07-01T19:30:13.095Z,-0.5116274,0.43845728,-0.4791684,1.1629181,-9.817749,-1.3567352,-13.824463,24.812317,7.286072,-0.028837893,-9.765031,0.90206754,-0.2658076,0.0038394928,0.28185654,1.2206268,-1.3560028,0.08985901
2019-07-01T19:30:13.211Z,-0.5742967,0.28750804,-0.37273306,-1.5912323,-8.781662,0.5934143,-13.018799,28.129578,9.439087,0.42158714,-9.646032,1.716604,-0.1506123,-0.47847366,-0.6901413,0.25117493,-1.9342651,-0.0259552
2019-07-01T19:32:15.528Z,-0.5898352,0.23612711,-0.29757172,0.40678406,-10.059433,5.417343,-11.781311,28.944397,9.101868,0.14230745,-9.621844,1.8895134,-1.5654123,1.1094131,-0.5267402,-0.11228943,-0.38087463,0.4689026
2019-07-01T19:32:15.535Z,0.0,0.0,0.0,0.0,0.0,0.0,0.0,0.0,0.0,0.0,0.0,0.0,0.0,0.0,0.0,0.0,0.0,0.0
2019-07-01T19:32:15.537Z,-0.6090564,0.26086742,-0.28590456,0.8757782,-9.588043,1.6773682,-16.299438,24.54071,11.561584,-0.12674758,-9.7325735,1.1963813,-2.6721947,1.1965313,-0.8169303,-0.011856079,1.2312012,0.074523926
2019-07-01T19:32:15.544Z,0.0,0.0,0.0,0.0,0.0,0.0,0.0,0.0,0.0,0.0,0.0,0.0,0.0,0.0,0.0,0.0,0.0,0.0
2019-07-01T19:32:15.546Z,0.0,0.0,0.0,0.0,0.0,0.0,0.0,0.0,0.0,0.0,0.0,0.0,0.0,0.0,0.0,0.0,0.0,0.0
2019-07-01T19:32:15.548Z,0.0,0.0,0.0,0.0,0.0,0.0,0.0,0.0,0.0,0.0,0.0,0.0,0.0,0.0,0.0,0.0,0.0,0.0
2019-07-01T19:32:15.550Z,0.0,0.0,0.0,0.0,0.0,0.0,0.0,0.0,0.0,0.0,0.0,0.0,0.0,0.0,0.0,0.0,0.0,0.0
2019-07-01T19:32:15.552Z,0.0,0.0,0.0,0.0,0.0,0.0,0.0,0.0,0.0,0.0,0.0,0.0,0.0,0.0,0.0,0.0,0.0,0.0
2019-07-01T19:32:15.554Z,0.0,0.0,0.0,0.0,0.0,0.0,0.0,0.0,0.0,0.0,0.0,0.0,0.0,0.0,0.0,0.0,0.0,0.0
2019-07-01T19:32:15.555Z,-0.3404282,0.58326364,-0.6285373,-0.29910278,-9.856033,0.83987427,-24.342346,22.254944,-16.435242,-0.21692185,-9.766348,0.86126304,-0.005984217,0.0016860962,-0.008409202,0.005645752,0.0021972656,-0.0027313232
2019-07-01T19:32:15.557Z,0.0,0.0,0.0,0.0,0.0,0.0,0.0,0.0,0.0,0.0,0.0,0.0,0.0,0.0,0.0,0.0,0.0,0.0
2019-07-01T19:32:15.559Z,0.0,0.0,0.0,0.0,0.0,0.0,0.0,0.0,0.0,0.0,0.0,0.0,0.0,0.0,0.0,0.0,0.0,0.0
2019-07-01T19:32:15.560Z,0.0,0.0,0.0,0.0,0.0,0.0,0.0,0.0,0.0,0.0,0.0,0.0,0.0,0.0,0.0,0.0,0.0,0.0
2019-07-01T19:32:15.561Z,0.0,0.0,0.0,0.0,0.0,0.0,0.0,0.0,0.0,0.0,0.0,0.0,0.0,0.0,0.0,0.0,0.0,0.0
2019-07-01T19:32:15.563Z,0.0,0.0,0.0,0.0,0.0,0.0,0.0,0.0,0.0,0.0,0.0,0.0,0.0,0.0,0.0,0.0,0.0,0.0
2019-07-01T19:32:15.564Z,0.0,0.0,0.0,0.0,0.0,0.0,0.0,0.0,0.0,0.0,0.0,0.0,0.0,0.0,0.0,0.0,0.0,0.0
2019-07-01T19:32:15.566Z,0.0,0.0,0.0,0.0,0.0,0.0,0.0,0.0,0.0,0.0,0.0,0.0,0.0,0.0,0.0,0.0,0.0,0.0
2019-07-01T19:32:15.569Z,0.0,0.0,0.0,0.0,0.0,0.0,0.0,0.0,0.0,0.0,0.0,0.0,0.0,0.0,0.0,0.0,0.0,0.0
2019-07-01T19:32:15.570Z,0.0,0.0,0.0,0.0,0.0,0.0,0.0,0.0,0.0,0.0,0.0,0.0,0.0,0.0,0.0,0.0,0.0,0.0
2019-07-01T19:32:15.571Z,0.0,0.0,0.0,0.0,0.0,0.0,0.0,0.0,0.0,0.0,0.0,0.0,0.0,0.0,0.0,0.0,0.0,0.0
2019-07-01T19:32:15.574Z,0.0,0.0,0.0,0.0,0.0,0.0,0.0,0.0,0.0,0.0,0.0,0.0,0.0,0.0,0.0,0.0,0.0,0.0
2019-07-01T19:32:15.575Z,0.0,0.0,0.0,0.0,0.0,0.0,0.0,0.0,0.0,0.0,0.0,0.0,0.0,0.0,0.0,0.0,0.0,0.0
2019-07-01T19:32:15.576Z,0.0,0.0,0.0,0.0,0.0,0.0,0.0,0.0,0.0,0.0,0.0,0.0,0.0,0.0,0.0,0.0,0.0,0.0
2019-07-01T19:32:15.577Z,0.0,0.0,0.0,0.0,0.0,0.0,0.0,0.0,0.0,0.0,0.0,0.0,0.0,0.0,0.0,0.0,0.0,0.0
2019-07-01T19:32:15.580Z,0.0,0.0,0.0,0.0,0.0,0.0,0.0,0.0,0.0,0.0,0.0,0.0,0.0,0.0,0.0,0.0,0.0,0.0
2019-07-01T19:32:15.580Z,0.0,0.0,0.0,0.0,0.0,0.0,0.0,0.0,0.0,0.0,0.0,0.0,0.0,0.0,0.0,0.0,0.0,0.0
2019-07-01T19:32:15.581Z,0.0,0.0,0.0,0.0,0.0,0.0,0.0,0.0,0.0,0.0,0.0,0.0,0.0,0.0,0.0,0.0,0.0,0.0
2019-07-01T19:32:15.582Z,-0.33725938,0.5688339,-0.64763176,0.1603241,-9.956543,1.5098724,-24.47052,22.517395,-13.5849,0.06119474,-9.729086,1.2294428,0.031079125,-0.106282234,-0.009316087,0.0034637451,0.0071411133,-0.041763306
2019-07-01T19:32:15.583Z,0.0,0.0,0.0,0.0,0.0,0.0,0.0,0.0,0.0,0.0,0.0,0.0,0.0,0.0,0.0,0.0,0.0,0.0
2019-07-01T19:32:15.585Z,0.0,0.0,0.0,0.0,0.0,0.0,0.0,0.0,0.0,0.0,0.0,0.0,0.0,0.0,0.0,0.0,0.0,0.0
2019-07-01T19:32:15.586Z,0.0,0.0,0.0,0.0,0.0,0.0,0.0,0.0,0.0,0.0,0.0,0.0,0.0,0.0,0.0,0.0,0.0,0.0
2019-07-01T19:32:15.586Z,0.0,0.0,0.0,0.0,0.0,0.0,0.0,0.0,0.0,0.0,0.0,0.0,0.0,0.0,0.0,0.0,0.0,0.0
2019-07-01T19:32:15.587Z,0.0,0.0,0.0,0.0,0.0,0.0,0.0,0.0,0.0,0.0,0.0,0.0,0.0,0.0,0.0,0.0,0.0,0.0
2019-07-01T19:32:15.588Z,0.0,0.0,0.0,0.0,0.0,0.0,0.0,0.0,0.0,0.0,0.0,0.0,0.0,0.0,0.0,0.0,0.0,0.0
2019-07-01T19:32:15.589Z,0.0,0.0,0.0,0.0,0.0,0.0,0.0,0.0,0.0,0.0,0.0,0.0,0.0,0.0,0.0,0.0,0.0,0.0
2019-07-01T19:32:15.592Z,0.0,0.0,0.0,0.0,0.0,0.0,0.0,0.0,0.0,0.0,0.0,0.0,0.0,0.0,0.0,0.0,0.0,0.0
2019-07-01T19:32:15.595Z,0.0,0.0,0.0,0.0,0.0,0.0,0.0,0.0,0.0,0.0,0.0,0.0,0.0,0.0,0.0,0.0,0.0,0.0
2019-07-01T19:32:15.596Z,0.0,0.0,0.0,0.0,0.0,0.0,0.0,0.0,0.0,0.0,0.0,0.0,0.0,0.0,0.0,0.0,0.0,0.0
2019-07-01T19:32:15.597Z,0.0,0.0,0.0,0.0,0.0,0.0,0.0,0.0,0.0,0.0,0.0,0.0,0.0,0.0,0.0,0.0,0.0,0.0
2019-07-01T19:32:15.598Z,0.0,0.0,0.0,0.0,0.0,0.0,0.0,0.0,0.0,0.0,0.0,0.0,0.0,0.0,0.0,0.0,0.0,0.0
2019-07-01T19:32:15.599Z,0.0,0.0,0.0,0.0,0.0,0.0,0.0,0.0,0.0,0.0,0.0,0.0,0.0,0.0,0.0,0.0,0.0,0.0
2019-07-01T19:32:15.601Z,0.0,0.0,0.0,0.0,0.0,0.0,0.0,0.0,0.0,0.0,0.0,0.0,0.0,0.0,0.0,0.0,0.0,0.0
2019-07-01T19:32:15.602Z,0.0,0.0,0.0,0.0,0.0,0.0,0.0,0.0,0.0,0.0,0.0,0.0,0.0,0.0,0.0,0.0,0.0,0.0
2019-07-01T19:32:15.607Z,0.0,0.0,0.0,0.0,0.0,0.0,0.0,0.0,0.0,0.0,0.0,0.0,0.0,0.0,0.0,0.0,0.0,0.0
2019-07-01T19:32:15.609Z,0.0,0.0,0.0,0.0,0.0,0.0,0.0,0.0,0.0,0.0,0.0,0.0,0.0,0.0,0.0,0.0,0.0,0.0
2019-07-01T19:32:15.610Z,0.0,0.0,0.0,0.0,0.0,0.0,0.0,0.0,0.0,0.0,0.0,0.0,0.0,0.0,0.0,0.0,0.0,0.0
2019-07-01T19:32:15.611Z,0.0,0.0,0.0,0.0,0.0,0.0,0.0,0.0,0.0,0.0,0.0,0.0,0.0,0.0,0.0,0.0,0.0,0.0
2019-07-01T19:32:15.612Z,0.0,0.0,0.0,0.0,0.0,0.0,0.0,0.0,0.0,0.0,0.0,0.0,0.0,0.0,0.0,0.0,0.0,0.0
2019-07-01T19:32:15.613Z,0.0,0.0,0.0,0.0,0.0,0.0,0.0,0.0,0.0,0.0,0.0,0.0,0.0,0.0,0.0,0.0,0.0,0.0
2019-07-01T19:32:15.614Z,0.0,0.0,0.0,0.0,0.0,0.0,0.0,0.0,0.0,0.0,0.0,0.0,0.0,0.0,0.0,0.0,0.0,0.0
2019-07-01T19:32:15.616Z,0.0,0.0,0.0,0.0,0.0,0.0,0.0,0.0,0.0,0.0,0.0,0.0,0.0,0.0,0.0,0.0,0.0,0.0
2019-07-01T19:32:15.617Z,0.0,0.0,0.0,0.0,0.0,0.0,0.0,0.0,0.0,0.0,0.0,0.0,0.0,0.0,0.0,0.0,0.0,0.0
2019-07-01T19:32:15.617Z,0.0,0.0,0.0,0.0,0.0,0.0,0.0,0.0,0.0,0.0,0.0,0.0,0.0,0.0,0.0,0.0,0.0,0.0
2019-07-01T19:32:15.618Z,0.0,0.0,0.0,0.0,0.0,0.0,0.0,0.0,0.0,0.0,0.0,0.0,0.0,0.0,0.0,0.0,0.0,0.0
2019-07-01T19:32:15.619Z,0.0,0.0,0.0,0.0,0.0,0.0,0.0,0.0,0.0,0.0,0.0,0.0,0.0,0.0,0.0,0.0,0.0,0.0
2019-07-01T19:32:15.620Z,-0.36571342,0.59911984,-0.5759294,-2.1918182,-8.6237335,-0.1986084,-20.76416,24.1333,-11.746216,-0.79324615,-9.773464,0.14335543,0.17366022,-0.07513332,-0.049531385,-0.030929565,0.053253174,-0.0013885498
2019-07-01T19:32:15.621Z,0.0,0.0,0.0,0.0,0.0,0.0,0.0,0.0,0.0,0.0,0.0,0.0,0.0,0.0,0.0,0.0,0.0,0.0
2019-07-01T19:32:15.622Z,0.0,0.0,0.0,0.0,0.0,0.0,0.0,0.0,0.0,0.0,0.0,0.0,0.0,0.0,0.0,0.0,0.0,0.0
2019-07-01T19:32:15.624Z,0.0,0.0,0.0,0.0,0.0,0.0,0.0,0.0,0.0,0.0,0.0,0.0,0.0,0.0,0.0,0.0,0.0,0.0
2019-07-01T19:32:15.626Z,0.0,0.0,0.0,0.0,0.0,0.0,0.0,0.0,0.0,0.0,0.0,0.0,0.0,0.0,0.0,0.0,0.0,0.0
2019-07-01T19:32:15.627Z,0.0,0.0,0.0,0.0,0.0,0.0,0.0,0.0,0.0,0.0,0.0,0.0,0.0,0.0,0.0,0.0,0.0,0.0
2019-07-01T19:32:15.628Z,0.0,0.0,0.0,0.0,0.0,0.0,0.0,0.0,0.0,0.0,0.0,0.0,0.0,0.0,0.0,0.0,0.0,0.0
2019-07-01T19:32:15.630Z,0.0,0.0,0.0,0.0,0.0,0.0,0.0,0.0,0.0,0.0,0.0,0.0,0.0,0.0,0.0,0.0,0.0,0.0
2019-07-01T19:32:15.631Z,0.0,0.0,0.0,0.0,0.0,0.0,0.0,0.0,0.0,0.0,0.0,0.0,0.0,0.0,0.0,0.0,0.0,0.0
2019-07-01T19:32:15.632Z,0.0,0.0,0.0,0.0,0.0,0.0,0.0,0.0,0.0,0.0,0.0,0.0,0.0,0.0,0.0,0.0,0.0,0.0
2019-07-01T19:32:15.633Z,0.0,0.0,0.0,0.0,0.0,0.0,0.0,0.0,0.0,0.0,0.0,0.0,0.0,0.0,0.0,0.0,0.0,0.0
2019-07-01T19:32:15.634Z,0.0,0.0,0.0,0.0,0.0,0.0,0.0,0.0,0.0,0.0,0.0,0.0,0.0,0.0,0.0,0.0,0.0,0.0
2019-07-01T19:32:15.634Z,-0.10651217,-0.6459972,0.7473777,-1.0408783,-9.183655,1.832901,6.7703247,25.878906,-29.13208,-0.12956822,-9.705444,1.3992664,-2.0914936,0.12795258,-0.49157798,-0.24406433,-0.3557129,0.059020996
2019-07-01T19:32:15.635Z,0.0,0.0,0.0,0.0,0.0,0.0,0.0,0.0,0.0,0.0,0.0,0.0,0.0,0.0,0.0,0.0,0.0,0.0
2019-07-01T19:32:15.636Z,0.0,0.0,0.0,0.0,0.0,0.0,0.0,0.0,0.0,0.0,0.0,0.0,0.0,0.0,0.0,0.0,0.0,0.0
2019-07-01T19:32:15.637Z,0.0,0.0,0.0,0.0,0.0,0.0,0.0,0.0,0.0,0.0,0.0,0.0,0.0,0.0,0.0,0.0,0.0,0.0
2019-07-01T19:32:15.638Z,0.0,0.0,0.0,0.0,0.0,0.0,0.0,0.0,0.0,0.0,0.0,0.0,0.0,0.0,0.0,0.0,0.0,0.0
2019-07-01T19:32:15.639Z,0.0,0.0,0.0,0.0,0.0,0.0,0.0,0.0,0.0,0.0,0.0,0.0,0.0,0.0,0.0,0.0,0.0,0.0
2019-07-01T19:32:15.641Z,0.0,0.0,0.0,0.0,0.0,0.0,0.0,0.0,0.0,0.0,0.0,0.0,0.0,0.0,0.0,0.0,0.0,0.0
2019-07-01T19:32:15.643Z,0.0,0.0,0.0,0.0,0.0,0.0,0.0,0.0,0.0,0.0,0.0,0.0,0.0,0.0,0.0,0.0,0.0,0.0
2019-07-01T19:32:15.644Z,0.0,0.0,0.0,0.0,0.0,0.0,0.0,0.0,0.0,0.0,0.0,0.0,0.0,0.0,0.0,0.0,0.0,0.0
2019-07-01T19:32:15.645Z,0.0,0.0,0.0,0.0,0.0,0.0,0.0,0.0,0.0,0.0,0.0,0.0,0.0,0.0,0.0,0.0,0.0,0.0
2019-07-01T19:32:15.646Z,0.0,0.0,0.0,0.0,0.0,0.0,0.0,0.0,0.0,0.0,0.0,0.0,0.0,0.0,0.0,0.0,0.0,0.0
2019-07-01T19:32:15.647Z,0.0,0.0,0.0,0.0,0.0,0.0,0.0,0.0,0.0,0.0,0.0,0.0,0.0,0.0,0.0,0.0,0.0,0.0
2019-07-01T19:32:15.648Z,0.0,0.0,0.0,0.0,0.0,0.0,0.0,0.0,0.0,0.0,0.0,0.0,0.0,0.0,0.0,0.0,0.0,0.0
2019-07-01T19:32:15.649Z,0.0,0.0,0.0,0.0,0.0,0.0,0.0,0.0,0.0,0.0,0.0,0.0,0.0,0.0,0.0,0.0,0.0,0.0
2019-07-01T19:32:15.650Z,0.0,0.0,0.0,0.0,0.0,0.0,0.0,0.0,0.0,0.0,0.0,0.0,0.0,0.0,0.0,0.0,0.0,0.0
2019-07-01T19:32:15.652Z,0.0,0.0,0.0,0.0,0.0,0.0,0.0,0.0,0.0,0.0,0.0,0.0,0.0,0.0,0.0,0.0,0.0,0.0
2019-07-01T19:32:15.653Z,0.0,0.0,0.0,0.0,0.0,0.0,0.0,0.0,0.0,0.0,0.0,0.0,0.0,0.0,0.0,0.0,0.0,0.0
2019-07-01T19:32:15.654Z,0.0,0.0,0.0,0.0,0.0,0.0,0.0,0.0,0.0,0.0,0.0,0.0,0.0,0.0,0.0,0.0,0.0,0.0
2019-07-01T19:32:15.656Z,0.0,0.0,0.0,0.0,0.0,0.0,0.0,0.0,0.0,0.0,0.0,0.0,0.0,0.0,0.0,0.0,0.0,0.0
2019-07-01T19:32:15.659Z,0.0,0.0,0.0,0.0,0.0,0.0,0.0,0.0,0.0,0.0,0.0,0.0,0.0,0.0,0.0,0.0,0.0,0.0
2019-07-01T19:32:15.662Z,0.0,0.0,0.0,0.0,0.0,0.0,0.0,0.0,0.0,0.0,0.0,0.0,0.0,0.0,0.0,0.0,0.0,0.0
2019-07-01T19:32:15.664Z,0.0,0.0,0.0,0.0,0.0,0.0,0.0,0.0,0.0,0.0,0.0,0.0,0.0,0.0,0.0,0.0,0.0,0.0
2019-07-01T19:32:15.666Z,0.0,0.0,0.0,0.0,0.0,0.0,0.0,0.0,0.0,0.0,0.0,0.0,0.0,0.0,0.0,0.0,0.0,0.0
2019-07-01T19:32:15.667Z,0.0,0.0,0.0,0.0,0.0,0.0,0.0,0.0,0.0,0.0,0.0,0.0,0.0,0.0,0.0,0.0,0.0,0.0
2019-07-01T19:32:15.668Z,0.0,0.0,0.0,0.0,0.0,0.0,0.0,0.0,0.0,0.0,0.0,0.0,0.0,0.0,0.0,0.0,0.0,0.0
2019-07-01T19:32:15.669Z,0.0,0.0,0.0,0.0,0.0,0.0,0.0,0.0,0.0,0.0,0.0,0.0,0.0,0.0,0.0,0.0,0.0,0.0
2019-07-01T19:32:15.670Z,0.0,0.0,0.0,0.0,0.0,0.0,0.0,0.0,0.0,0.0,0.0,0.0,0.0,0.0,0.0,0.0,0.0,0.0
2019-07-01T19:32:15.671Z,0.0,0.0,0.0,0.0,0.0,0.0,0.0,0.0,0.0,0.0,0.0,0.0,0.0,0.0,0.0,0.0,0.0,0.0
2019-07-01T19:32:15.702Z,0.04322536,-0.15965733,-0.9814518,-0.50727844,3.2518463,8.927628,-4.045105,-30.941772,-23.344421,-0.5285714,3.155493,9.270052,-0.08902782,0.030832529,-0.097828865,-0.021896362,-0.011734009,-0.0004119873
2019-07-01T19:32:15.905Z,0.04280004,-0.15861227,-0.98192114,-0.5048828,3.1896362,9.023331,-0.5203247,-30.911255,-25.29602,-0.53176254,3.1335998,9.277293,0.05208665,-0.0068678856,0.07473278,-0.019699097,0.014160156,-0.0066986084
2019-07-01T19:32:16.103Z,0.041155726,-0.15725516,-0.9822187,-0.49771118,3.110672,9.0759735,-2.2033691,-30.80597,-25.1297,-0.503128,3.1052732,9.288409,-0.066336155,0.008833885,-0.017863274,-0.010528564,-0.09402466,-0.015075684
2019-07-01T19:32:16.306Z,0.03201801,-0.16410042,-0.98127544,0.06460571,3.2279205,8.059021,-2.6657104,-30.477905,-24.438477,-0.30844256,3.2183363,9.258378,-0.03877148,-0.12849188,-0.006556511,0.048721313,-0.005065918,0.012359619
2019-07-01T19:32:16.556Z,0.03915221,-0.1518712,-0.982861,-0.23210144,2.8091736,9.324829,-2.748108,-30.33142,-25.387573,-0.4661553,3.002041,9.324206,0.0025993288,0.15074873,-0.012056351,-0.028549194,0.040496826,-0.061187744
2019-07-01T19:32:16.706Z,0.04427089,-0.15892433,-0.98201656,-0.7920227,3.184845,9.174088,-1.3900757,-30.60913,-25.047302,-0.56655055,3.1406822,9.272838,0.06375158,-0.055766106,-0.062347412,0.015182495,0.105789185,0.08432007
2019-07-01T19:32:16.905Z,0.048540704,-0.16077998,-0.98021245,-0.5431671,3.081955,9.025726,-1.6372681,-30.769348,-24.995422,-0.6028136,3.1907752,9.253429,-0.06834793,-0.029753447,0.023059845,-0.039489746,-0.07702637,0.029464722
2019-07-01T19:32:17.111Z,0.041482106,-0.15707025,-0.9812633,-0.87815857,3.1944122,8.300705,-1.8844604,-30.781555,-25.515747,-0.4792362,3.107224,9.28902,-0.0054899156,0.0026903152,0.1078434,-0.05078125,0.016738892,-0.0076141357
2019-07-01T19:32:17.314Z,0.03847078,-0.14872324,-0.9831159,-0.41635132,2.8115692,9.717255,-1.7684937,-30.200195,-24.494934,-0.45179412,2.9427202,9.343803,-0.04491812,-0.0040881634,0.05466461,0.034362793,-0.052719116,-0.052627563
2019-07-01T19:32:17.515Z,0.038569085,-0.13209246,-0.9858904,-0.18424988,2.634491,10.19342,-2.0355225,-30.271912,-27.064514,-0.49886456,2.6263142,9.435253,0.16121995,0.31724286,-0.2322092,-0.21957397,0.074401855,-0.022949219
2019-07-01T19:32:17.719Z,0.051293407,-0.13740869,-0.9842093,-1.1126556,2.7589264,8.762512,-0.34179688,-30.15747,-27.111816,-0.7230805,2.7521749,9.384726,-0.0008891225,-0.14501047,0.24322128,0.04927063,0.06437683,-0.016662598
2019-07-01T19:32:17.917Z,0.047613304,-0.13615097,-0.9855675,-0.35414124,2.9623108,9.047256,-1.31073,-30.220032,-27.238464,-0.6837414,2.7145832,9.398613,0.017031372,-0.045893908,-0.13202572,0.0052948,-0.03842163,-0.012863159
2019-07-01T19:32:18.138Z,0.0508142,-0.13821551,-0.9848831,-0.7010956,2.897705,9.18605,-1.5319824,-30.026245,-25.979614,-0.73430496,2.7607877,9.381324,0.044254065,-0.009870529,0.20991802,0.014450073,-0.0025634766,-0.008102417
2019-07-01T19:32:18.329Z,0.04904639,-0.12712102,-0.9868933,-0.65802,2.4598236,9.702896,-0.62561035,-29.681396,-25.267029,-0.7337722,2.5437608,9.442523,0.062351763,0.06119728,-0.14492798,-0.0864563,0.057724,-0.049209595
2019-07-01T19:32:18.548Z,0.050881557,-0.12799309,-0.98673195,-0.9954071,2.486145,9.466003,0.20141602,-28.959656,-26.36261,-0.7689264,2.5628424,9.434564,0.015570164,-0.054534435,0.19958782,0.008041382,-0.01423645,-0.0129852295
2019-07-01T19:32:18.744Z,0.05550538,-0.13356686,-0.9856693,-0.8805542,2.6153564,9.442078,0.42114258,-29.380798,-26.609802,-0.84564096,2.6766443,9.39632,-0.0028179884,-0.052859783,-0.0038824081,0.023376465,0.037002563,0.012786865
2019-07-01T19:32:18.944Z,0.055682655,-0.13491471,-0.9853972,-0.8542328,2.6249237,9.406189,-0.8239746,-30.418396,-25.785828,-0.84413123,2.7032516,9.388838,0.017652154,-0.08332968,0.015774727,0.032165527,0.0032348633,0.006500244
2019-07-01T19:32:19.146Z,0.054304067,-0.13372765,-0.98581,-0.74894714,2.670395,9.332016,-0.44555664,-29.077148,-26.133728,-0.8251572,2.6769135,9.398065,0.006248176,-0.025975466,0.0043973923,0.007293701,-0.0076446533,0.0001373291
2019-07-01T19:32:19.342Z,0.05286245,-0.13424511,-0.98669857,-0.727417,2.7350006,8.913269,-0.9552002,-29.696655,-26.011658,-0.8258103,2.675622,9.3983755,-0.016961873,-0.045139074,0.0013036728,-0.0001373291,-0.0135650635,-0.031677246
2019-07-01T19:32:19.563Z,0.053189855,-0.13236305,-0.98721266,-0.8279114,2.572281,9.365509,-1.651001,-28.935242,-26.733398,-0.84518385,2.6371026,9.4075365,0.00029963255,0.011050701,-9.6321106e-05,-0.015655518,-0.023956299,-0.041275024
2019-07-01T19:32:19.753Z,0.06126272,-0.13640419,-0.9859505,-1.1940155,2.7086792,9.635895,-0.8895874,-28.538513,-24.267578,-0.9855128,2.7272015,9.368112,0.08054268,-0.11044717,0.10526562,0.008590698,0.04257202,-0.0033416748
2019-07-01T19:32:19.954Z,0.059245676,-0.13243903,-0.9869982,-0.97387695,2.6656036,9.147766,0.41809082,-29.606628,-25.898743,-0.967222,2.644169,9.393787,-0.22278905,0.10824537,-0.1598072,0.09190369,0.114593506,0.07575989
2019-07-01T19:32:20.156Z,0.05591058,-0.13536167,-0.986757,-1.1006927,2.725418,9.932602,-1.348877,-29.504395,-25.956726,-0.8969515,2.6961925,9.385969,0.034595132,0.029656649,0.10244274,-0.017791748,-0.10635376,-0.08972168
2019-07-01T19:32:20.364Z,0.052728344,-0.12959898,-0.9875159,-0.7776642,2.6967163,9.516251,-0.7095337,-29.682922,-25.717163,-0.8373339,2.584965,9.422697,0.017412603,0.14044714,-0.13208961,-0.015838623,0.00024414062,0.035873413
2019-07-01T19:32:20.560Z,0.06153564,-0.11916245,-0.9881414,-1.0337067,2.3976135,9.166901,0.48217773,-28.144836,-25.906372,-1.0178603,2.3996918,9.453879,-0.03259504,-0.07287407,0.019120216,-0.15206909,0.02015686,-0.02166748
2019-07-01T19:32:20.769Z,0.0582867,-0.113386236,-0.9890509,-0.92123413,2.2540436,9.662216,0.12512207,-28.741455,-26.91803,-0.96538323,2.2844992,9.48786,0.024872243,0.08681488,-0.0036010742,-0.049316406,0.051849365,0.025970459
2019-07-01T19:32:20.963Z,0.06191116,-0.11386161,-0.9886129,-1.071991,2.2540436,9.561722,0.25177002,-29.38385,-27.658081,-1.02969,2.3006241,9.477197,-0.02408266,-0.007176161,-0.0523777,-0.014984131,0.0063476562,0.010528564
2019-07-01T19:32:21.166Z,0.062207486,-0.11593177,-0.98834074,-0.82073975,2.321045,8.953949,1.7349243,-28.479004,-28.213501,-1.0316193,2.3407936,9.467145,0.0077034235,-0.04480362,0.0028486252,-0.0070495605,0.0079956055,0.01663208
2019-07-01T19:32:21.368Z,0.057151824,-0.11791652,-0.98830265,-0.03111267,2.5005035,9.939789,0.30670166,-28.29132,-27.13623,-0.9273821,2.3731358,9.469877,-0.072321415,-0.017230034,-0.066672325,0.008895874,0.00970459,-0.015136719
2019-07-01T19:32:21.577Z,0.062782235,-0.11963287,-0.9871243,-0.9954071,2.457428,9.085556,-1.5090942,-29.2099,-27.626038,-1.0145983,2.421622,9.448637,-0.033409,-0.110877275,0.12909603,0.10443115,0.06730652,0.054748535
2019-07-01T19:32:21.782Z,0.066786595,-0.12554294,-0.9860334,-1.0791626,2.5220337,9.556931,-0.21057129,-28.979492,-27.330017,-1.0781314,2.5414884,9.410041,0.03879559,-0.024012804,-0.007191658,0.123062134,0.069625854,0.057006836
2019-07-01T19:32:21.977Z,0.07029683,-0.13269131,-0.9846206,-0.90448,2.600998,9.1453705,0.4196167,-29.226685,-27.784729,-1.1251559,2.6856058,9.364397,-0.0260396,0.04887247,-0.12071133,-0.04260254,-0.06506348,-0.08679199
2019-07-01T19:32:22.179Z,0.05506477,-0.14393908,-0.9853707,-1.2538452,3.0388794,9.454041,-0.40893555,-28.504944,-24.508667,-0.85879195,2.8604012,9.340823,-0.22460157,-0.21202064,0.14520931,0.045303345,-0.1532135,-0.09020996
2019-07-01T19:32:22.384Z,0.053757984,-0.13735704,-0.9860906,-1.5720825,2.9240265,9.355942,-0.048828125,-29.35028,-25.37384,-0.83332825,2.7373235,9.379926,0.13625085,0.11817217,-0.048169136,0.06436157,-0.010391235,0.12866211
2019-07-01T19:32:22.647Z,0.050996188,-0.1312553,-0.98762244,-1.036087,2.6847534,9.600006,0.32958984,-29.908752,-25.126648,-0.8099626,2.6115892,9.417747,-0.05714351,0.023789883,-0.10308552,-0.106796265,-0.022857666,-0.12741089
2019-07-01T19:32:22.794Z,0.049893696,-0.12987965,-0.9877757,-0.97387695,2.560318,9.451645,-0.8377075,-28.738403,-26.576233,-0.78755665,2.585016,9.426974,0.00024306774,0.067738295,0.0059022903,-0.0057678223,0.019058228,-0.026245117
2019-07-01T19:32:22.990Z,0.044895507,-0.13276209,-0.98803693,-0.87338257,2.6536407,9.202789,0.4272461,-29.386902,-25.854492,-0.70244044,2.62942,9.421418,-0.14300376,-0.09146786,0.011401176,0.025939941,-0.078933716,0.017120361
2019-07-01T19:32:23.212Z,0.0431687,-0.13547076,-0.98739845,-0.74417114,2.7828522,9.166901,-0.5706787,-30.186462,-25.598145,-0.6513819,2.6823792,9.41015,-0.029410541,0.015719414,-0.07819939,0.013717651,-0.037872314,0.048950195
2019-07-01T19:32:23.409Z,0.038065366,-0.13504867,-0.98852664,-0.653244,2.732605,9.444473,-0.47302246,-29.663086,-26.1734,-0.58988273,2.6601152,9.420521,0.04637021,0.009268284,-0.036746025,0.01939392,-0.0050201416,0.0017242432
2019-07-01T19:32:23.608Z,0.036886163,-0.1399936,-0.9880335,-0.71066284,2.7876434,9.408585,-2.142334,-29.342651,-25.590515,-0.56870776,2.7513728,9.395578,0.024370432,-0.03476429,0.046094894,0.05671692,-0.020401001,-0.022521973
2019-07-01T19:32:23.813Z,0.03523782,-0.1423758,-0.98779255,-0.59103394,2.7373962,9.743576,-0.06713867,-29.789734,-25.31128,-0.5361663,2.7946358,9.384718,-0.046238005,-0.015816212,-0.011548996,0.04762268,-0.005569458,-0.0016326904
2019-07-01T19:32:24.006Z,0.037391566,-0.14776017,-0.98698086,-0.66041565,2.8307037,9.363113,-0.91552734,-30.566406,-26.264954,-0.57498527,2.8979986,9.351009,0.026640058,-0.03255415,0.015769958,0.036987305,0.027420044,-0.007736206
2019-07-01T19:32:24.224Z,0.039481778,-0.14873004,-0.9866,-0.66760254,2.967102,9.059235,-1.0482788,-30.22461,-24.754333,-0.60579365,2.9199932,9.342218,-0.037605047,0.016391993,-0.06560421,-0.06758118,0.0026245117,0.023544312
2019-07-01T19:32:24.432Z,0.03880789,-0.14256543,-0.9875288,-0.624527,2.7278137,9.511475,-0.9170532,-30.715942,-25.692749,-0.59963536,2.8026893,9.378473,0.014414132,-0.013778925,0.02191925,0.04762268,-0.0050811768,-0.022583008
2019-07-01T19:32:24.622Z,0.037187986,-0.15076716,-0.9865712,-0.57188416,2.9742737,9.202789,0.36773682,-30.776978,-25.756836,-0.5698647,2.954262,9.333702,-0.0023331046,-0.05140543,0.068834305,0.063690186,-0.012283325,-0.006515503
2019-07-01T19:32:24.824Z,0.03791223,-0.15335916,-0.9861042,-0.55992126,3.0293121,9.272186,-1.3198853,-30.895996,-24.806213,-0.57864076,3.0043037,9.317173,-0.0040349364,-0.008737087,-0.021172523,0.021347046,0.0015258789,0.007537842
2019-07-01T19:32:25.021Z,0.036559194,-0.15575086,-0.98571205,-0.46420288,3.0723877,9.257828,0.20751953,-30.93872,-24.952698,-0.5458261,3.0489273,9.30465,-0.022432148,0.016960382,-0.024104118,0.0129852295,-0.023513794,0.0039367676
2019-07-01T19:32:25.228Z,0.036097154,-0.15629385,-0.98557,-0.68196106,3.0556335,9.341583,-0.8880615,-30.213928,-24.758911,-0.53209275,3.059468,9.301985,-0.02712965,0.0010809898,0.0036087036,0.009750366,-0.00036621094,0.015777588
2019-07-01T19:32:25.419Z,0.03716102,-0.15731998,-0.98540795,-0.5240326,3.0580292,9.181259,-0.5157471,-30.915833,-24.617004,-0.55376077,3.0793855,9.294145,0.0047584176,-0.024243116,-0.024458885,0.009384155,0.028396606,0.0077819824
2019-07-01T19:32:25.638Z,0.03758219,-0.15073125,-0.9862042,-0.64845276,2.8187408,9.427719,-0.70495605,-29.763794,-24.674988,-0.5579158,2.9576962,9.333336,0.012749732,0.09321451,-0.036803246,-0.02305603,0.016860962,-0.009994507
2019-07-01T19:32:25.830Z,0.034909166,-0.15454654,-0.9858657,-0.47616577,2.9431763,9.379868,-0.48217773,-29.956055,-25.857544,-0.5099399,3.02561,9.314292,-0.09622586,-0.06787515,0.14712238,-0.015350342,-0.01991272,0.0184021
2019-07-01T19:32:26.032Z,0.030325033,-0.15393221,-0.98609525,-0.7920227,2.9312134,9.468399,-1.8203735,-29.472351,-24.797058,-0.42109916,3.0097234,9.3238735,0.046319783,0.025621891,-0.22716713,0.04005432,-0.092544556,-0.010116577
2019-07-01T19:32:26.236Z,0.03823156,-0.14853455,-0.98664427,-0.57188416,2.9575348,9.006592,-2.0187378,-30.361938,-24.517822,-0.5800293,2.9154763,9.345264,0.09029561,0.10531473,-0.06858826,-0.058425903,0.0068359375,-0.03755188
2019-07-01T19:32:26.438Z,0.041919835,-0.1377907,-0.9876703,-0.4785614,2.794815,9.846466,-1.1703491,-29.20227,-25.675964,-0.6462478,2.7196503,9.3998,-0.04671681,0.097042084,-0.0810709,-0.101364136,0.12882996,0.03300476
2019-07-01T19:32:26.641Z,0.04088672,-0.14819676,-0.98632157,-0.0382843,2.7804565,8.803192,-1.8203735,-29.167175,-26.39618,-0.61811954,2.9145536,9.343109,0.1032505,-0.16918635,0.014918327,-0.041748047,-0.019424438,0.047302246
2019-07-01T19:32:26.844Z,0.028091865,-0.1542767,-0.9859205,-0.035888672,3.1250305,9.284149,-3.213501,-29.99878,-25.224304,-0.36754948,3.015259,9.32435,-0.033851296,-0.1347959,-0.066184044,0.06680298,-0.102264404,-0.039505005
2019-07-01T19:32:27.045Z,0.031934742,-0.15362799,-0.9863289,-0.48095703,3.345169,8.147568,-1.5991211,-29.815674,-25.331116,-0.4661051,3.003488,9.323744,0.040106207,-0.10437822,0.24007034,0.031433105,-0.005874634,0.0023956299
2019-07-01T19:32:27.257Z,0.03403154,-0.14328584,-0.98791677,-0.72024536,2.9479523,8.73381,-2.0309448,-30.426025,-25.737,-0.5237072,2.8085802,9.381258,0.071575284,-0.024852037,-0.03288555,-0.06086731,-0.005935669,-0.029006958
2019-07-01T19:32:27.451Z,0.03632254,-0.13858023,-0.9875448,-0.39959717,2.8905334,9.107086,-1.1001587,-29.493713,-25.20752,-0.5267239,2.7305045,9.404111,0.051757753,-0.035816193,-0.029987335,-0.015899658,0.0033569336,-0.05545044
2019-07-01T19:32:27.654Z,0.04035035,-0.14165288,-0.9865387,-0.5479584,2.732605,9.047256,-0.82244873,-30.343628,-25.92163,-0.5833615,2.7971082,9.3811655,0.12997907,0.031967163,-0.0823164,0.014205933,0.018066406,-0.020874023
2019-07-01T19:32:27.854Z,0.036596797,-0.14359507,-0.98655355,-0.028717041,2.6871338,8.202591,-1.3900757,-30.455017,-25.92163,-0.5139612,2.8279896,9.375964,-0.09889287,-0.16356802,-0.0708828,-0.021774292,0.009094238,0.034713745
2019-07-01T19:32:28.060Z,0.026390223,-0.1355183,-0.9879588,-0.5024872,2.8163452,9.86322,-1.8218994,-29.319763,-25.74768,-0.3257702,2.6620982,9.432788,-0.009631336,0.11173773,-0.024805069,-0.099349976,-0.021499634,0.0101623535
2019-07-01T19:32:28.263Z,0.033120424,-0.13566369,-0.98734176,-0.8063812,2.2755737,10.040283,-1.7288208,-29.019165,-26.069641,-0.4412912,2.67598,9.42416,0.06491992,-0.13902164,0.11092281,0.03919983,-0.0053100586,0.02243042
2019-07-01T19:32:28.465Z,0.02351163,-0.14121385,-0.9871689,-0.54556274,2.548355,9.609573,-1.902771,-29.400635,-25.308228,-0.25931197,2.76675,9.404692,-0.06640476,-0.23656678,0.27108574,0.12220764,-0.008071899,0.020431519
2019-07-01T19:32:28.667Z,0.03551988,-0.14387238,-0.9851002,-1.0073853,2.5986023,9.994827,-1.435852,-29.65393,-25.984192,-0.44001278,2.840568,9.375924,0.24718899,0.057217836,-0.41179848,-0.16600037,0.15106201,0.12231445
2019-07-01T19:32:28.870Z,0.037600692,-0.13612288,-0.9868715,-0.6125641,2.691925,9.135803,-2.5024414,-30.08728,-26.330566,-0.5185663,2.6925616,9.415497,-0.11596787,-0.18943858,0.23857307,0.0009460449,-0.02859497,-0.09851074
2019-07-01T19:32:29.087Z,0.040654562,-0.1303713,-0.98758286,-0.51924133,2.395218,9.396622,-1.1764526,-29.196167,-26.58081,-0.5888994,2.587182,9.440872,0.09524238,-0.0642705,0.069075584,0.019836426,0.01159668,-0.004135132
2019-07-01T19:32:29.281Z,0.040546466,-0.13239263,-0.98702586,-0.17706299,2.7445679,9.992432,-0.7751465,-28.941345,-27.827454,-0.57384944,2.6276133,9.430628,0.052348852,-0.07636905,-0.16097355,-0.025497437,0.08117676,0.12689209
2019-07-01T19:32:29.481Z,0.056330305,-0.13633944,-0.9841537,-0.117248535,2.8857422,8.518448,-1.348877,-29.278564,-27.119446,-0.82422274,2.7403924,9.379834,0.14802486,-0.24657893,0.07023525,0.15855408,0.20939636,0.06336975
2019-07-01T19:32:29.682Z,0.063856125,-0.13905339,-0.9835163,-1.3543396,2.663208,9.298508,-0.88500977,-30.062866,-25.184631,-0.96902454,2.803005,9.347436,-0.048931777,-0.08177781,0.013422966,-0.16427612,-0.07728577,-0.095825195
2019-07-01T19:32:29.885Z,0.047583014,-0.12564783,-0.987546,-0.82073975,2.7014923,9.12384,-1.1810303,-29.270935,-26.519775,-0.71989954,2.5100758,9.4526005,-0.23238593,-0.01491642,-0.0054826736,-0.03215027,-0.09547424,-0.09515381
2019-07-01T19:32:30.097Z,0.04529969,-0.12686107,-0.98780394,0.011962891,2.7828522,9.430115,-1.2329102,-28.617859,-26.31073,-0.6833476,2.5271971,9.450752,0.12970251,-0.06365991,-0.043985367,0.02368164,-0.07122803,-0.0054779053
2019-07-01T19:32:30.291Z,0.04256585,-0.13178423,-0.98743224,-0.5647125,2.6727905,8.559128,-1.600647,-29.586792,-26.94397,-0.62754107,2.6158128,9.430488,-0.16414493,-0.19364905,0.04530716,0.054885864,-0.03543091,-0.016845703
2019-07-01T19:32:30.521Z,0.042340945,-0.13483445,-0.9870211,-0.4905243,2.567505,9.702896,-1.8707275,-28.744507,-25.024414,-0.6179825,2.6735587,9.414912,0.049106836,-0.12092233,0.122550964,0.05329895,-0.002090454,0.012786865
2019-07-01T19:32:30.706Z,0.037049465,-0.1323639,-0.98743,-0.6316986,2.548355,9.336792,-1.0787964,-28.904724,-25.692749,-0.5149471,2.6201637,9.436099,-0.0757848,0.0097408295,-0.13022804,-0.06086731,-0.059753418,0.011810303
2019-07-01T19:32:30.898Z,0.036445457,-0.13694376,-0.9868589,-0.14596558,2.457428,9.769897,-1.8325806,-29.460144,-26.304626,-0.49689305,2.70612,9.412779,0.121794134,-0.21009278,0.16700363,0.1765747,0.094558716,0.03086853
2019-07-01T19:32:31.098Z,0.044458896,-0.14507328,-0.98522794,-0.64367676,2.7182465,9.549759,-1.1795044,-29.574585,-24.694824,-0.63320535,2.8725624,9.355096,-0.030099094,-0.08149147,-0.07226658,0.036819458,-0.026885986,-0.02166748
2019-07-01T19:32:31.304Z,0.041927535,-0.14509675,-0.9850165,-0.279953,2.938385,8.709869,-1.4831543,-29.081726,-25.108337,-0.573085,2.8716497,9.359251,-0.06498146,0.005212784,-0.06313133,-0.07791138,-0.025787354,0.02218628
2019-07-01T19:32:31.506Z,0.040230993,-0.14723091,-0.9855689,-0.5886383,2.691925,9.341583,-0.8773804,-29.76532,-25.87738,-0.56629175,2.903772,9.349749,0.09840292,-0.12852597,-0.02101612,-0.025985718,0.006164551,-0.002243042
2019-07-01T19:32:31.708Z,0.03731668,-0.14485908,-0.98612034,-0.35891724,2.6847534,9.389435,-1.9012451,-29.249573,-26.03302,-0.51706314,2.8544579,9.36777,-0.088174105,-0.15639114,0.19353199,-0.011444092,-0.021820068,0.020111084
2019-07-01T19:32:31.984Z,0.030909084,-0.1412668,-0.98669326,0.093322754,2.773285,8.329422,-1.4343262,-29.50592,-26.483154,-0.39221895,2.7788992,9.396503,-0.01387313,-0.11850786,0.059081078,0.010787964,-0.030975342,0.02330017
2019-07-01T19:32:32.114Z,0.035102535,-0.14424215,-0.9861543,-0.6963043,2.9335938,9.099899,-1.3381958,-29.362488,-25.323486,-0.4698664,2.840775,9.374413,0.0019925833,-0.16968751,0.17658997,0.023803711,-0.0017700195,-0.006881714
2019-07-01T19:32:32.328Z,0.031794947,-0.14238887,-0.9867059,-0.43070984,2.691925,9.497116,-2.3910522,-29.4281,-25.971985,-0.4153659,2.8002362,9.389171,0.04389921,-0.07154846,-0.007071495,0.0059661865,-0.0037384033,-0.02960205
2019-07-01T19:32:32.523Z,0.028767603,-0.13735369,-0.9877328,-0.18664551,2.7589264,9.303299,-2.8320312,-30.256653,-26.123047,-0.3728087,2.6995535,9.420394,-0.13858515,0.02133751,-0.1271658,-0.0043640137,-0.021255493,-0.010055542
2019-07-01T19:32:32.728Z,0.030097019,-0.12909812,-0.98852676,-0.45224,2.4430695,9.477966,-2.1255493,-28.823853,-26.390076,-0.40019414,2.545731,9.462003,0.036959767,0.02008152,0.035386086,-0.0831604,-0.012527466,-0.025268555
2019-07-01T19:32:32.950Z,0.027307449,-0.13499293,-0.9879922,-0.28474426,2.6392822,9.286545,-1.8814087,-28.657532,-26.818848,-0.34377444,2.6533656,9.43461,-0.026238471,-0.12261367,0.08740616,-0.031845093,0.0,0.027938843
2019-07-01T19:32:33.133Z,0.024277914,-0.13457009,-0.9880837,-0.30867004,2.490921,9.477966,-1.5380859,-30.018616,-26.88446,-0.28401437,2.6415558,9.439911,0.004394293,-0.07493734,-0.048496246,0.050064087,-0.04270935,-0.007247925
2019-07-01T19:32:33.338Z,0.024390176,-0.1349191,-0.98803586,-0.23210144,2.5962067,9.281754,-2.4154663,-29.785156,-27.024841,-0.28577584,2.6483314,9.437958,0.020733982,-0.08412337,0.009223938,-0.015609741,-0.016799927,0.0049743652
2019-07-01T19:32:33.534Z,0.027101912,-0.13500659,-0.98804665,-0.22013855,2.6488495,9.245865,-1.663208,-29.153442,-27.005005,-0.34170166,2.6531107,9.434757,-0.0036931634,-0.08141112,-0.012559891,0.01121521,0.02168274,-0.016052246
2019-07-01T19:32:33.747Z,0.02826673,-0.13479902,-0.9879653,-0.3254242,2.6775665,9.401398,-2.168274,-29.69513,-27.018738,-0.3616302,2.6510603,9.43459,0.004874289,-0.04928446,0.09203243,0.014389038,0.025405884,0.009429932
2019-07-01T19:32:33.947Z,0.02659635,-0.13714693,-0.9877464,-0.21534729,2.6656036,9.346359,-1.7715454,-29.891968,-26.62201,-0.32810712,2.693235,9.423864,-0.021205753,-0.017354488,-0.037213326,0.042556763,-0.0041656494,0.0010528564
2019-07-01T19:32:34.146Z,0.027917525,-0.13809475,-0.9876196,-0.5024872,2.658432,9.530609,-1.3305664,-29.063416,-26.17035,-0.35394913,2.712731,9.417335,8.389354e-05,-0.021330118,0.021053314,0.011276245,-0.01423645,-0.007369995
2019-07-01T19:32:34.349Z,0.027245449,-0.14169137,-0.9871882,-0.3014984,2.7517395,9.343979,-2.5543213,-29.51355,-25.756836,-0.33821172,2.7798338,9.398325,0.008850008,-0.04042411,-0.011467934,0.03993225,-0.0040283203,-0.0048675537
2019-07-01T19:32:34.556Z,0.027247636,-0.14034301,-0.98738265,-0.45703125,2.7469635,9.406189,-1.1230469,-29.928589,-25.750732,-0.3402372,2.7542503,9.405783,-0.0206123,-0.012419224,0.023688316,0.004989624,-0.004043579,0.01449585
2019-07-01T19:32:34.751Z,0.028501451,-0.1408469,-0.9870646,-0.30389404,2.8139648,9.377472,-1.9363403,-30.052185,-26.043701,-0.35540226,2.7664766,9.401632,0.011549622,-0.00521636,-0.01063633,0.012619019,0.051239014,0.05987549
2019-07-01T19:32:34.971Z,0.032051586,-0.14529419,-0.9857974,-0.4857483,2.9144592,9.174088,-2.2323608,-29.566956,-25.480652,-0.3977655,2.8581858,9.372457,-0.010224134,-0.025051832,0.047003746,0.061553955,0.0053710938,0.045028687
2019-07-01T19:32:35.161Z,0.030701099,-0.14849104,-0.9850639,-0.3134613,2.9168549,9.4253235,-2.7313232,-30.041504,-24.951172,-0.35553294,2.918029,9.355699,-0.004051715,-0.021478415,-0.015626907,0.04310608,-0.012832642,0.033309937
2019-07-01T19:32:35.363Z,0.027998375,-0.15396805,-0.9847524,-0.21774292,3.0101776,9.229111,-2.3986816,-29.803467,-24.841309,-0.3113282,3.015499,9.326319,0.0045316815,-0.02769494,-0.014061928,0.043045044,0.001953125,0.019989014
2019-07-01T19:32:35.566Z,0.030888088,-0.15667342,-0.9840777,-0.37088013,3.1082764,9.274582,-3.1661987,-30.647278,-25.436401,-0.35635808,3.0712345,9.306499,0.05830303,0.014248848,-0.030276299,0.016159058,0.04031372,0.019866943
2019-07-01T19:32:35.792Z,0.035388183,-0.15833586,-0.98346794,-0.28474426,3.1968079,8.712265,-2.7374268,-30.0354,-25.856018,-0.43284434,3.1099703,9.290378,0.06971124,0.0037605762,-0.04019165,-0.016036987,0.007080078,0.0019683838
2019-07-01T19:32:35.967Z,0.028421294,-0.15204732,-0.9847787,-0.29910278,3.041275,9.198013,-2.1316528,-29.353333,-24.157715,-0.3125358,2.9809492,9.337379,-0.1535959,0.09905505,-0.04262066,-0.109375,-0.16822815,-0.0868988
2019-07-01T19:32:36.175Z,0.021839777,-0.14865702,-0.9859729,-0.32781982,2.8163452,9.61676,-1.9699097,-29.037476,-25.683594,-0.21044853,2.9058864,9.363862,0.14011015,-0.010090828,0.023677826,0.023986816,-0.011306763,-0.018737793
2019-07-01T19:32:36.373Z,0.027106537,-0.1618735,-0.98315334,0.2033844,3.2350922,8.523239,-3.0792236,-30.57251,-25.3479,-0.2672841,3.1641572,9.278312,0.22269616,-0.07518411,-0.115392685,-0.011199951,0.10560608,0.11064148
2019-07-01T19:32:36.589Z,0.041784883,-0.15157719,-0.9837756,-0.5766754,3.069992,9.346359,-3.463745,-30.084229,-25.836182,-0.5494002,2.9954984,9.321778,0.17995,-0.16899347,0.39096546,0.14634705,0.1506958,0.04057312
2019-07-01T19:32:36.783Z,0.046823848,-0.15446985,-0.9824675,-0.117248535,3.2207336,9.501892,-2.5024414,-30.1651,-25.590515,-0.61961144,3.0622268,9.295657,0.029857576,0.11708856,-0.359684,-0.200943,0.040740967,-0.0005340576
2019-07-01T19:32:36.980Z,0.03892703,-0.13300946,-0.98779416,-0.059814453,2.395218,10.066605,-1.4953613,-28.919983,-27.415466,-0.5686737,2.6312,9.429941,-0.027037144,0.05790782,0.42798996,-0.032699585,-0.14727783,-0.23553467
2019-07-01T19:32:37.186Z,0.026812296,-0.14911947,-0.9862558,-0.28474426,3.0245209,9.111862,-2.1514893,-29.711914,-24.682617,-0.32588524,2.9191868,9.356417,0.007561356,-0.24881482,-0.12893963,0.1976471,-0.15437317,0.056274414
2019-07-01T19:32:37.394Z,0.021408873,-0.14548923,-0.98711765,-0.04307556,2.9647064,8.726624,-3.125,-29.771423,-25.2594,-0.23462132,2.843232,9.382504,0.18996215,0.16212583,-0.42884827,-0.204422,-0.00048828125,-0.11891174
2019-07-01T19:32:37.626Z,0.017062346,-0.1414535,-0.9886317,-0.086135864,2.5962067,9.540192,-2.7511597,-30.021667,-27.66571,-0.1975863,2.758904,9.408496,-0.027865633,-0.1384759,0.48422718,0.12385559,-0.022613525,-0.10914612
2019-07-01T19:32:37.793Z,0.022384262,-0.14724025,-0.9879577,-0.39959717,2.8307037,9.51387,-1.2069702,-29.704285,-27.210999,-0.3126287,2.871503,9.371613,0.002007842,-0.062132597,-0.028676987,-0.059951782,0.0020751953,-0.026428223
2019-07-01T19:32:37.999Z,0.02166683,-0.1414866,-0.98868966,-0.4665985,2.3306122,11.222336,-0.7247925,-29.896545,-26.515198,-0.2958973,2.7626605,9.404814,0.015099406,0.041837454,-0.085289955,-0.011444092,0.047332764,0.022735596
2019-07-01T19:32:38.203Z,0.023175118,-0.12106129,-0.9910094,-0.17706299,2.2277222,11.380264,-1.6906738,-28.216553,-25.680542,-0.32690793,2.3767152,9.508668,-0.026823968,0.17143178,-0.2559538,-0.19036865,0.0053710938,0.087249756
2019-07-01T19:32:38.401Z,0.02505583,-0.12497693,-0.990521,-0.46899414,2.445465,9.43251,-1.3656616,-29.870605,-25.9552,-0.36127442,2.4531348,9.487992,-0.023570687,0.04464531,-0.039824486,0.121414185,0.046417236,-0.030838013
2019-07-01T19:32:38.607Z,0.01747566,-0.1197115,-0.9912799,-0.14117432,2.2827454,9.664612,-1.3061523,-28.40271,-26.715088,-0.21713488,2.3453655,9.519586,-0.043874726,-0.014598846,0.04112339,-0.15383911,-0.059188843,0.0047302246
2019-07-01T19:32:38.817Z,0.015644222,-0.122806296,-0.99103093,-0.32063293,2.2707825,9.415756,-1.7883301,-28.359985,-26.98822,-0.18289296,2.4024718,9.506054,-0.037590086,-0.098675966,0.047495842,0.00039672852,-0.053207397,-0.009811401
2019-07-01T19:32:39.017Z,0.015545943,-0.12490307,-0.99073243,-0.26560974,2.4526367,9.552155,-2.1194458,-28.752136,-25.99945,-0.17700382,2.4426258,9.495928,-0.050145194,-0.089048624,0.045430183,0.02911377,-0.014907837,0.0005187988
2019-07-01T19:32:39.225Z,0.015701544,-0.12660545,-0.9907881,-0.06700134,1.7730865,9.7005005,-2.0614624,-29.260254,-26.179504,-0.19232318,2.4742653,9.487433,0.14771979,-0.12092018,0.2803774,0.021469116,0.02015686,-0.004928589
2019-07-01T19:32:39.427Z,0.008090402,-0.119717486,-0.9916552,-0.29431152,2.5698853,10.116852,-2.4841309,-29.57306,-26.831055,-0.046664152,2.3359413,9.524263,-0.1662283,-0.08153701,-0.5849848,0.044448853,-0.06488037,-0.09552002
2019-07-01T19:32:39.624Z,0.015494973,-0.12895775,-0.99093586,-0.3254242,2.2253265,8.803192,-2.0812988,-27.874756,-25.971985,-0.21441849,2.5167828,9.47577,0.008646116,-0.20008707,0.3362236,-0.121520996,-0.07727051,-0.090270996
2019-07-01T19:32:39.824Z,0.009146354,-0.12094383,-0.99256974,-0.055038452,2.445465,9.554535,0.21209717,-28.666687,-26.756287,-0.15502542,2.356224,9.518118,-0.013496831,-0.061235905,-0.25381756,0.09875488,0.04019165,-0.17156982
2019-07-01T19:32:40.030Z,-0.00041570107,0.112595744,0.9933535,0.15074158,2.526825,9.540192,0.6225586,-28.341675,-27.233887,-0.060863853,2.1935015,9.557994,0.06980495,0.31276536,0.13042259,-0.10557556,-0.12272644,-0.3106079
2019-07-01T19:32:40.234Z,0.008334214,0.102836885,0.993802,0.04307556,2.5962067,9.363113,0.9902954,-26.991272,-29.014587,0.07897618,2.0112343,9.597869,0.19303831,0.4506719,-0.08502865,-0.09207153,-0.11845398,-0.26515198
2019-07-01T19:32:40.438Z,0.008590036,0.09484267,0.9946265,-0.17945862,2.4646149,9.209976,0.36315918,-26.519775,-29.496765,0.09203274,1.8570241,9.628778,-0.06110584,0.6168077,-0.2737341,-0.10404968,-0.07409668,-0.09283447
2019-07-01T19:32:40.650Z,-0.0045203962,0.088241085,0.9960749,-0.28234863,2.7756805,10.018753,0.36621094,-26.446533,-29.47998,-0.09743625,1.7234383,9.65353,-0.116292305,0.79843616,-0.080441475,-0.12042236,0.051483154,0.112960815
2019-07-01T19:32:40.838Z,0.03800146,-0.10418649,-0.9919293,0.14356995,0.72502136,11.827728,-1.0894775,-28.665161,-28.515625,-0.6137278,2.0727575,9.565428,0.22435224,0.33906126,1.3803587,0.052261353,0.2877655,0.4925537
2019-07-01T19:32:41.066Z,0.06079841,-0.1274977,-0.9849828,-1.7467651,1.7156525,10.133606,-2.166748,-29.470825,-27.879333,-0.9262826,2.5814862,9.415322,0.49939305,-1.0095515,-1.2140131,-0.12817383,0.1981659,0.55322266
2019-07-01T19:32:41.252Z,0.054220926,-0.11037216,-0.98464024,-0.447464,2.766098,8.027924,-3.0944824,-28.355408,-29.351807,-0.77881116,2.2633188,9.510059,-0.08301908,-0.4321339,-0.06478882,-0.14424133,-0.005935669,-0.23248291
2019-07-01T19:32:41.443Z,0.047425754,-0.09293742,-0.9893099,-0.78723145,2.5842438,8.927628,-2.3269653,-27.279663,-29.992676,-0.73452616,1.8980888,9.593129,-0.14356977,0.7781396,-0.21135998,-0.1023407,-0.21148682,-0.19862366
2019-07-01T19:32:41.651Z,0.015666429,-0.09931622,-0.9933966,0.39482117,2.8139648,11.416153,-2.5177002,-27.871704,-30.256653,-0.19759104,1.952037,9.6083765,-0.20056747,0.6629133,0.49499607,0.09954834,-0.45362854,-0.6518402
2019-07-01T19:32:41.856Z,0.0022512174,0.14376894,0.98945284,-0.9906311,1.6582336,5.448456,-0.17852783,-29.914856,-28.579712,-0.0058378847,2.7908182,9.401154,-0.28462,-1.1314828,1.3522921,0.5437622,0.043304443,-0.53100586
2019-07-01T19:32:42.060Z,-0.028124906,0.15440476,0.98754555,-1.9214325,2.6990967,6.3266296,1.3473511,-30.343628,-26.011658,-0.5781934,2.9845784,9.323538,-1.0112013,-1.7235961,-0.32587624,-0.12097168,0.24446106,0.6735687
2019-07-01T19:32:42.265Z,0.022022339,-0.11073466,-0.9871233,0.52163696,2.2133636,9.686142,-3.7475586,-28.54309,-29.51355,-0.18026166,2.1928499,9.556636,-0.12174821,0.3593483,-1.0994148,-0.4147339,0.101638794,0.92762756
2019-07-01T19:32:42.463Z,0.04181007,-0.09527582,-0.98014224,0.21774292,2.7804565,10.119247,-6.1706543,-26.956177,-29.318237,-0.48830506,1.9699926,9.594325,0.75077426,0.42159045,-0.13577461,-0.0038757324,0.35862732,0.4887085
2019-07-01T19:32:42.667Z,0.08309537,-0.113888934,-0.96364087,-0.7848511,1.689331,13.270599,-6.6879272,-27.71759,-29.527283,-1.0634996,2.5224504,9.416826,0.48395705,0.71422076,1.7593822,0.27095032,0.22375488,0.60398865
2019-07-01T19:32:42.890Z,0.07909964,-0.14673491,-0.9577778,-0.4737854,2.074585,7.800598,-8.334351,-28.707886,-28.831482,-0.8117353,3.1198611,9.261638,0.9737619,-1.7884305,-0.8668518,0.013900757,0.04623413,-0.040359497
2019-07-01T19:32:43.066Z,0.052708123,-0.0991466,-0.97607166,-0.279953,2.600998,7.4033966,-6.7733765,-27.490234,-31.36444,-0.64693195,2.0905664,9.559362,0.68333393,-0.824631,-0.5332556,-0.49519348,-0.22273254,-0.9194031
2019-07-01T19:32:43.276Z,0.04334168,-0.061501082,-0.99124986,-1.2370911,2.0267181,9.059235,-2.5772095,-25.161743,-32.42035,-0.7118103,1.2878807,9.6956215,-0.60667855,1.1230469,0.43326187,-0.18762207,-0.15657043,-0.6309509
2019-07-01T19:32:43.472Z,0.04800849,-0.06644067,-0.99436355,-1.7443695,1.3710938,11.172089,-1.6876221,-27.003479,-31.851196,-0.848669,1.3590943,9.674865,-0.8357064,0.3062272,0.93129635,0.121658325,-0.118759155,-0.25154114
2019-07-01T19:32:43.680Z,0.026887294,-0.09652057,-0.99424744,-0.447464,1.557724,6.9176483,-1.0406494,-28.782654,-31.78711,-0.45265397,1.9021592,9.60975,-0.53821665,-0.9526359,-0.08051014,0.36723328,-0.012893677,-0.35476685
2019-07-01T19:32:43.888Z,0.04526319,-0.099749796,-0.9936476,-1.4739838,2.5076752,5.9772644,-1.083374,-29.959106,-30.81665,-0.8316412,1.9669008,9.571315,-0.13985515,-1.1737777,-0.051542282,-0.1987915,0.08441162,0.47460938
2019-07-01T19:32:44.075Z,0.029921513,-0.056549534,-0.989331,-0.06939697,2.079361,9.872787,-7.373047,-26.052856,-33.84247,-0.43543008,1.1741012,9.72637,-0.21537346,0.48390138,-0.80070496,-0.18896484,0.029067993,0.9139404
2019-07-01T19:32:44.321Z,0.041654337,-0.072938986,-0.974914,-0.122039795,2.3234253,11.727219,-9.185791,-25.0,-34.835815,-0.5016074,1.5630867,9.668276,0.48045737,0.8030262,0.80357075,0.028625488,0.13627625,0.74050903
2019-07-01T19:32:44.495Z,0.06663787,-0.098808765,-0.9591601,0.1986084,0.6006012,5.4628143,-12.454224,-26.696777,-31.87561,-0.75646293,2.1941028,9.528068,0.60793567,-1.647618,1.0341301,0.6287384,0.112091064,0.35816956
2019-07-01T19:32:44.695Z,0.0695624,-0.10757322,-0.9573554,-0.6412811,1.2921295,7.6953125,-10.105896,-27.990723,-32.91626,-0.7597972,2.3732016,9.484777,0.7585634,-1.1551049,-0.64223194,-0.08370972,0.29119873,-0.09124756
2019-07-01T19:32:44.899Z,0.065160215,-0.12801252,-0.97254616,-0.5264282,3.591629,10.715057,-8.6380005,-27.37732,-33.75702,-0.78323495,2.675805,9.401968,-0.40479475,0.7798338,0.4595003,0.0256958,-0.078811646,-0.38000488
2019-07-01T19:32:45.091Z,0.044837553,-0.12995133,-0.9844743,-1.964508,1.7276154,7.3914337,-8.032227,-30.259705,-32.781982,-0.5875729,2.6051862,9.436003,-0.54591113,-0.119539976,1.0841322,0.16362,-0.55278015,-0.639801
2019-07-01T19:32:45.313Z,0.026263284,-0.08195209,-0.99122405,-4.240082,0.67477417,12.071793,-7.5637817,-32.49359,-32.199097,-0.34930065,1.6449332,9.661396,-2.4258533,-0.49842083,-1.2821169,0.18592834,-0.21289062,-0.5253296
2019-07-01T19:32:45.500Z,0.0230136,-0.07602918,-0.93960845,1.450058,-1.1198425,11.026123,-9.190369,-28.637695,-35.65216,0.072309166,1.5513928,9.68289,-1.903007,-1.3601888,-0.3533678,-0.6785126,-0.076049805,0.8306122
2019-07-01T19:32:45.700Z,0.046962213,-0.070707954,-0.86749977,2.4789581,1.2681885,8.994614,-19.317627,-20.996094,-36.247253,-0.119303316,1.6545247,9.665335,1.5995415,-1.4181426,0.55991936,-0.06300354,0.22918701,2.24234
2019-07-01T19:32:45.919Z,0.06929648,-0.059597693,-0.8038468,0.74417114,2.3497467,11.2534485,-22.3526,-14.77356,-37.1994,-0.40548274,1.7384833,9.642803,2.4424028,-0.32984734,0.33557224,0.07572937,0.46131897,1.6624908
2019-07-01T19:32:46.108Z,0.0860578,-0.07096698,-0.7534996,-0.18424988,1.5074768,6.90329,-21.31958,-9.07135,-39.930725,-0.3699819,2.1423976,9.562616,0.647612,-0.9262235,1.2122202,-0.012969971,0.30297852,1.0283508
2019-07-01T19:32:46.319Z,0.11201805,-0.06618854,-0.76439786,-1.3256226,1.9956207,9.547363,-20.251465,-8.407593,-41.122437,-0.8596436,2.3797119,9.474618,0.054324746,-0.88311577,-0.5287447,0.4347992,0.19534302,0.50764465
2019-07-01T19:32:46.520Z,0.1068379,-0.060487982,-0.84248483,-2.108078,3.797409,12.55275,-19.14215,-12.567139,-40.579224,-1.1430771,2.09865,9.511017,-0.08580983,-0.20611644,-0.51547146,0.13375854,-0.108306885,-0.69703674
2019-07-01T19:32:46.722Z,0.13562031,-0.12397863,-0.88559395,-1.4620209,2.5292206,9.463608,-17.184448,-17.468262,-40.449524,-1.3183918,3.28809,9.144435,-0.5493617,-0.6036699,1.4451189,0.15318298,0.12834167,-1.3029022
2019-07-01T19:32:46.919Z,0.034298662,-0.26219115,-0.90180755,-0.44267273,5.8624115,6.4869385,-19.459534,-28.54309,-32.56836,1.150994,4.867413,8.435276,-2.30474,-1.1208649,-0.4010191,1.0572662,-1.0334778,-0.9388275
2019-07-01T19:32:47.118Z,-0.011287015,-0.27944487,-0.89192104,3.7854462,7.1114655,1.9405823,-23.809814,-31.652832,-26.07727,2.1449597,4.809811,8.272559,-0.6353345,-0.15235567,0.14059734,0.23118591,-0.9406891,-0.13658142
2019-07-01T19:32:47.318Z,-0.046290595,-0.20383441,-0.84475845,4.598999,-2.8378906,8.788834,-26.335144,-26.860046,-26.281738,2.7364647,2.9299593,8.949719,0.06687474,1.8642292,-2.7373075,-0.38938904,-1.4984131,0.81559753
2019-07-01T19:32:47.520Z,-0.34258598,-0.17230347,-0.75112355,4.331009,-7.389038,8.389236,-39.538574,-17.14325,-20.288086,6.8629684,-1.0723,6.9224424,0.095638275,-3.6002843,-1.9666891,-2.2173004,-2.5657806,2.6668854
2019-07-01T19:32:47.848Z,-0.5578233,-0.0014607451,-0.47496065,3.2518463,-0.29670715,4.795212,-35.873413,31.19049,1.7120361,5.2159286,-7.4328885,3.7036004,4.0842166,-1.7690954,7.726262,-1.458664,0.83932495,2.7397003
2019-07-01T19:32:48.048Z,-0.56396884,0.16462086,-0.44071156,-0.59820557,-9.9039,2.0937195,-33.10547,32.33795,-0.35858154,2.6835308,-8.930076,3.0369062,6.3090744,2.962308,1.1753142,-0.7379608,0.89533997,0.64723206
2019-07-01T19:32:48.243Z,-0.5822422,0.15605381,-0.47910944,7.2191467,-7.688141,-1.5122681,-32.330322,30.28717,7.348633,3.518412,-8.752647,2.6799862,-2.240498,0.99571514,0.685704,-0.0821228,-1.0197296,-0.70925903
2019-07-01T19:32:48.418Z,-0.5947386,0.13782585,-0.32145345,-7.3459625,-14.392822,3.3356018,-21.783447,39.741516,6.726074,1.7929628,-9.312507,2.4965773,2.89202,0.37348938,-1.1593163,-0.070510864,0.76693726,2.2070923
2019-07-01T19:32:48.620Z,-0.6099476,0.27278662,-0.28731957,-0.55274963,-6.477371,1.8951111,-22.288513,38.357544,11.524963,-0.23461004,-9.747419,1.0503185,-1.3126626,-0.10357571,0.17525291,-0.7750244,-0.1563263,-0.1687622
2019-07-01T19:32:48.826Z,-0.62842053,0.23993239,-0.32953474,-1.7898254,-11.413757,0.41874695,-20.864868,38.482666,7.7911377,0.9439382,-9.7165165,0.932025,-0.60835975,1.8703575,0.1892044,0.41297913,-0.044296265,0.07215881
2019-07-01T19:32:49.028Z,-0.6021214,0.26186514,-0.3354623,2.9718933,-9.853638,1.2586212,-24.023438,38.43689,5.345154,0.4921199,-9.7006855,1.3508948,-0.70176363,-2.5609255,-1.59261,0.09790039,0.2467804,-0.21212769
2019-07-01T19:32:49.230Z,-0.59471846,0.26352456,-0.3717049,1.002594,-8.906082,0.4905243,-24.468994,38.900757,7.4188232,0.91232693,-9.647035,1.507571,0.89441067,-0.13838577,-0.5623143,-0.042663574,0.0793457,-0.16027832
2019-07-01T19:32:49.428Z,-0.606542,0.25842202,-0.34845906,0.447464,-9.793823,0.086135864,-21.795654,39.144897,8.493042,0.76843005,-9.692179,1.2812369,0.7553617,0.6105013,-0.24960804,-0.076812744,-0.27171326,0.29818726
2019-07-01T19:32:49.627Z,-0.62178713,0.25334972,-0.3101103,-0.75613403,-9.956543,0.32302856,-20.680237,38.77716,8.900452,0.43737522,-9.749263,0.9648697,0.15635747,-0.5496788,-0.7844479,-0.039733887,-0.4234619,0.141922
2019-07-01T19:32:49.828Z,-0.6216096,0.25555998,-0.2947634,-0.052642822,-9.930222,0.7896271,-19.17572,40.04059,9.248352,0.18895492,-9.758976,0.94713664,-0.8078731,-0.14993572,-0.13179862,-0.026107788,-0.026763916,0.06416321
2019-07-01T19:32:50.027Z,-0.62015396,0.25747126,-0.29593578,0.093322754,-9.731613,0.8685913,-19.68689,39.57672,8.494568,0.16883586,-9.757756,0.9633588,-0.15409972,0.058944702,0.11497396,0.032409668,0.04598999,-0.018432617
2019-07-01T19:32:50.227Z,-0.61691505,0.26098377,-0.30571297,0.028717041,-9.78186,0.71066284,-20.20111,38.887024,8.226013,0.23549014,-9.752048,1.0062274,-0.24728905,-0.04903984,-0.080462575,0.019943237,0.07312012,-0.05831909
2019-07-01T19:32:50.433Z,-0.6150888,0.26371503,-0.3140477,0.2536316,-9.78186,0.6197357,-19.93866,39.341736,8.230591,0.3055024,-9.74844,1.022248,-0.2223061,-0.068614006,-0.26390684,0.0023498535,0.037628174,-0.03277588
2019-07-01T19:32:50.629Z,-0.61511904,0.26640078,-0.3173976,0.15792847,-9.860825,0.5670929,-19.525146,39.360046,9.501648,0.3245323,-9.750787,0.99359345,-0.11554834,-0.08573818,-0.36543053,-0.005584717,-0.0027618408,-0.014511108
2019-07-01T19:32:50.831Z,-0.6150669,0.26925707,-0.32059988,0.18664551,-9.786652,0.69392395,-20.188904,39.02893,8.857727,0.3391011,-9.753178,0.96484375,-0.16798434,-0.075395584,-0.3634252,-0.0009460449,0.0045776367,-0.007003784
2019-07-01T19:32:51.031Z,-0.6140941,0.27110028,-0.3235237,0.32063293,-9.812973,0.6771698,-19.743347,38.565063,6.781006,0.35075095,-9.7523775,0.968762,-0.10598016,-0.0586195,-0.2954517,0.0129852295,0.02027893,-0.016357422
2019-07-01T19:32:51.234Z,-0.60974395,0.28669614,-0.33805674,0.2871399,-9.851257,0.7346039,-20.541382,38.578796,7.495117,0.34813336,-9.758821,0.9025583,-0.066117495,-0.0397892,-0.19538277,0.017868042,0.03187561,-0.017150879
2019-07-01T19:32:51.442Z,-0.5849174,0.33679062,-0.39075354,0.34217834,-9.757935,0.7728882,-21.896362,38.702393,8.331299,0.34833366,-9.76162,0.8716875,-0.03477475,-0.028238297,-0.11638671,0.010665894,0.016723633,-0.008102417
2019-07-01T19:32:51.639Z,-0.5847026,0.3391073,-0.3924031,0.34217834,-9.67897,0.72024536,-21.865845,39.43329,8.253479,0.35103637,-9.763791,0.8459035,-0.023859113,-0.023493767,-0.098095,0.002960205,0.0076293945,-0.0018157959
2019-07-01T19:32:51.847Z,-0.58210516,0.34571955,-0.39761493,0.45942688,-9.652649,0.825531,-21.218872,39.552307,7.797241,0.3402742,-9.766672,0.81653357,-0.092924476,0.0057058334,-0.09544343,0.015426636,0.06474304,-0.01727295
2019-07-01T19:32:52.053Z,-0.5802633,0.35064167,-0.39979786,0.5001068,-9.757935,0.90448,-21.72699,39.01062,7.5561523,0.30781046,-9.769825,0.79129666,0.01545468,-0.045567513,-0.011676133,0.00033569336,0.050933838,-0.014709473
2019-07-01T19:32:52.267Z,-0.57749426,0.35199127,-0.4066864,0.5312042,-9.832108,0.8231354,-22.78595,39.93225,11.109924,0.36628777,-9.76412,0.8355754,-0.028533965,0.0043029785,-0.0082607865,0.02079773,0.041900635,-0.028015137
2019-07-01T19:32:52.449Z,-0.578542,0.34720594,-0.40715805,0.59580994,-9.755539,0.8518524,-21.821594,38.635254,7.861328,0.42794517,-9.757937,0.877444,0.08103797,0.0077114105,-0.0155697465,0.021240234,-0.04385376,-0.004135132
2019-07-01T19:32:52.651Z,-0.5797187,0.34199783,-0.4045232,0.34695435,-9.793823,0.8661957,-21.154785,38.81378,9.683228,0.44655123,-9.7530775,0.9211136,0.09661624,0.017856598,-0.014311969,0.022567749,-0.08442688,0.0009918213
2019-07-01T19:32:52.855Z,-0.5819013,0.33940563,-0.40148708,0.43070984,-9.762711,0.9068756,-20.559692,39.811707,8.276367,0.45168322,-9.754254,0.9060304,-0.020475358,-0.013672829,-0.04098475,-0.0011291504,-0.041488647,0.002456665
2019-07-01T19:32:53.067Z,-0.5821806,0.34128097,-0.40115607,0.48095703,-9.724426,0.8638153,-22.024536,37.74872,7.8414917,0.43449315,-9.757902,0.874616,-0.026758611,-0.0069465637,-0.021601498,-0.014266968,0.028274536,-0.002243042
2019-07-01T19:32:53.266Z,-0.58065027,0.34697297,-0.4033577,0.31106567,-9.867996,0.9020996,-21.499634,38.658142,7.852173,0.39990532,-9.763048,0.83268285,-0.02163735,0.0019388199,-0.003300786,-0.007659912,0.06364441,-0.0052337646
2019-07-01T19:32:53.465Z,-0.5780944,0.34920576,-0.40781236,0.41635132,-9.810577,0.8494568,-21.60492,38.067627,8.03833,0.4154855,-9.760004,0.8602822,-0.008121371,-0.0031309128,-0.011927605,0.00289917,-0.011672974,0.0027618408
2019-07-01T19:32:53.668Z,-0.5791353,0.34859335,-0.40591887,0.34457397,-9.7986145,0.82073975,-22.167969,39.772034,8.863831,0.40543735,-9.761758,0.8450387,-0.015190989,-0.008354187,-0.00987488,-0.0050354004,-0.02432251,0.009857178
2019-07-01T19:32:53.872Z,-0.57969695,0.34961858,-0.4047849,0.4091797,-9.786652,0.8422699,-20.277405,39.10675,7.5164795,0.38714218,-9.764784,0.81823385,-0.022184849,-0.0018606186,-0.014548242,-0.005706787,0.0067749023,-0.0029754639
2019-07-01T19:32:54.076Z,-0.57853895,0.350621,-0.40712643,0.3637085,-9.836899,0.8422699,-22.203064,39.276123,7.0251465,0.39949688,-9.763227,0.8307716,-0.018197834,0.0044116974,-0.008936644,0.008041382,0.019042969,-0.010543823
2019-07-01T19:32:54.278Z,-0.57796335,0.35224456,-0.40839383,0.46420288,-9.777069,0.8422699,-22.297668,38.6734,8.56781,0.3982292,-9.764068,0.8214467,-0.0063707232,-0.01286602,-0.021803916,-0.0020446777,0.012268066,0.0022735596
2019-07-01T19:32:54.482Z,-0.57832223,0.35173535,-0.4075229,0.3637085,-9.8033905,0.7848511,-21.421814,38.511658,8.575439,0.39365897,-9.764347,0.8203392,0.02506867,0.0046567917,0.009578407,-0.009613037,-0.011001587,0.014678955
2019-07-01T19:32:54.682Z,-0.57879305,0.35257006,-0.40534046,0.38046265,-9.800995,0.74417114,-21.73462,38.864136,7.5286865,0.35899577,-9.767524,0.7981237,0.0008713007,0.0071115494,0.0034344792,0.0009460449,-0.0073394775,0.010650635
2019-07-01T19:32:54.895Z,-0.57862264,0.3523243,-0.40602165,0.33738708,-9.980469,0.6915283,-21.97876,38.77411,7.7453613,0.36935514,-9.766541,0.8053887,0.005352676,0.0001039505,-0.019585252,0.0032043457,0.005859375,-0.007858276
2019-07-01T19:32:55.095Z,-0.57957476,0.35317042,-0.40450704,0.2536316,-9.824936,0.825531,-21.089172,38.830566,7.8720093,0.35220733,-9.769866,0.772053,0.010883927,-0.023474693,-5.364418e-07,-0.022628784,0.004211426,0.0030670166
2019-07-01T19:32:55.291Z,-0.58571386,0.33909857,-0.39674118,0.8063812,-9.688538,0.83509827,-22.65625,38.00049,7.6156616,0.43336123,-9.762457,0.8228061,-0.102089256,0.07262802,-0.05639732,0.04750061,0.0871582,-0.04286194
2019-07-01T19:32:55.493Z,-0.58616614,0.34458145,-0.39466727,0.021530151,-9.882355,0.5934143,-21.534729,37.779236,8.355713,0.36074713,-9.772119,0.7388896,0.09907934,-0.09948635,-0.0009582639,-0.049438477,0.02998352,0.027572632
2019-07-01T19:32:55.697Z,-0.5822151,0.34687698,-0.4011411,0.59820557,-9.750748,0.8183441,-20.681763,39.006042,7.6644897,0.38796687,-9.766401,0.7983,-0.095790535,0.0059633255,-0.026709855,0.001083374,0.037994385,0.012664795
2019-07-01T19:32:55.899Z,-0.5857357,0.3483359,-0.3939677,0.34695435,-9.846466,0.66760254,-20.95642,39.852905,8.905029,0.3124221,-9.776804,0.6977592,0.26670215,0.110658646,0.14382178,0.0066375732,-0.06022644,-0.008590698
2019-07-01T19:32:56.105Z,-0.58652663,0.34688467,-0.3911102,-0.16270447,-9.762711,0.4905243,-21.943665,39.422607,8.782959,0.29041117,-9.777369,0.6993626,-0.07017627,-0.035769463,0.016699374,-0.037597656,-0.03781128,0.03501892
2019-07-01T19:32:56.305Z,-0.58718544,0.34544304,-0.38875782,-0.047851562,-9.789032,0.5742798,-21.93451,39.645386,8.525085,0.2746025,-9.777509,0.7037718,-0.106529236,-0.058631897,-0.016896129,-0.010955811,-0.023025513,0.023727417
2019-07-01T19:32:56.520Z,-0.5881279,0.34477484,-0.3872794,0.24885559,-9.877579,0.5647125,-20.75653,39.07013,8.132935,0.27013516,-9.778538,0.6910917,0.037315667,0.07048988,-0.0345124,0.012069702,-0.0069732666,-0.0059661865
2019-07-01T19:32:56.713Z,-0.58867365,0.34591436,-0.38630643,0.21534729,-9.8033905,0.6029968,-20.843506,38.8443,8.242798,0.25287458,-9.78094,0.66305816,0.050870597,0.032579422,-0.044041872,0.00076293945,0.0012817383,-0.0019989014
2019-07-01T19:32:56.928Z,-0.5884744,0.34756958,-0.3862382,0.21534729,-9.853638,0.61016846,-21.792603,39.294434,8.070374,0.2351773,-9.782579,0.64514506,-0.006592214,-0.010081291,-0.020335495,-0.006500244,-0.0036773682,0.0070495605
2019-07-01T19:32:57.118Z,-0.5887497,0.3477792,-0.386226,0.2536316,-9.78186,0.6508484,-20.610046,38.7146,8.055115,0.23711097,-9.783136,0.63593024,0.0011930019,0.011021614,-0.016438901,-0.0032043457,0.00048828125,0.0012969971
2019-07-01T19:32:57.320Z,-0.58869106,0.34784698,-0.38670737,0.21774292,-9.8033905,0.6006012,-20.680237,39.004517,7.814026,0.24333164,-9.782956,0.63636,-0.0018521994,0.00785923,-0.00726074,0.0038146973,0.0033569336,-0.006454468
2019-07-01T19:32:57.522Z,-0.587994,0.3488699,-0.38786665,0.27757263,-9.810577,0.61016846,-22.712708,38.352966,8.673096,0.2433715,-9.782817,0.63847005,-0.028198823,-0.0018291473,-0.016322613,0.006576538,0.008361816,-0.0098724365
2019-07-01T19:32:57.727Z,-0.5875865,0.34912112,-0.38922694,0.17468262,-9.717255,0.5407715,-20.820618,39.27765,9.008789,0.25707814,-9.782077,0.64442426,-0.0057843626,0.003252983,-0.011633515,0.0031433105,-0.00024414062,-0.0035858154
2019-07-01T19:32:57.919Z,-0.5875291,0.34848604,-0.38894263,0.35414124,-9.779465,0.7154541,-20.921326,39.0625,7.611084,0.25700855,-9.781413,0.65443695,-0.041942567,-0.011395454,-0.026509881,0.0051116943,0.0018310547,-0.0011444092
2019-07-01T19:32:58.126Z,-0.58913356,0.3445026,-0.38804114,0.28234863,-9.757935,0.6628113,-21.401978,38.874817,8.950806,0.2985367,-9.779074,0.67155147,0.07853475,0.03139496,0.015890896,0.0256958,-0.021331787,-0.02130127
2019-07-01T19:32:58.322Z,-0.58859104,0.34505254,-0.3881535,0.3014984,-9.899109,0.653244,-21.510315,38.365173,8.172607,0.28808132,-9.779036,0.6766452,-0.043159246,-0.026263237,-0.024941087,0.0063171387,-0.008010864,-0.0027923584
2019-07-01T19:32:58.541Z,-0.5880785,0.34396943,-0.3900088,0.3517456,-9.800995,0.727417,-21.064758,39.187622,9.077454,0.3192538,-9.776201,0.7031109,-0.0021785796,-0.001909256,-0.027572691,0.012191772,-0.00044250488,-0.008590698
2019-07-01T19:32:58.742Z,-0.587211,0.34421045,-0.3908632,0.35653687,-9.8033905,0.72502136,-22.0047,38.035583,8.651733,0.31851354,-9.775006,0.7198545,-0.01404652,0.005302429,0.007494211,0.010665894,0.00982666,-0.0048675537
2019-07-01T19:32:58.946Z,-0.5863647,0.34405577,-0.3924186,0.38046265,-9.824936,0.7034912,-21.932983,39.642334,8.750916,0.33243936,-9.77293,0.74142313,0.0035324097,-0.0020112991,-0.002015531,0.00944519,0.020828247,-0.010116577
2019-07-01T19:32:59.146Z,-0.5849472,0.34486613,-0.39694694,0.32063293,-9.789032,0.8063812,-21.638489,39.082336,8.172607,0.37715432,-9.769642,0.76303786,-0.012808442,0.0017728806,-0.0101902485,0.014022827,0.03541565,-0.037368774
2019-07-01T19:32:59.350Z,-0.5839014,0.34519017,-0.39911687,0.46420288,-9.84407,0.77049255,-22.079468,38.253784,7.9452515,0.3939344,-9.76743,0.7826271,-0.031202167,-0.0076856613,-0.003295064,0.008468628,0.00091552734,-0.006088257
2019-07-01T19:32:59.552Z,-0.5940524,0.3258547,-0.38047802,0.49531555,-9.779465,0.830307,-21.827698,38.412476,8.422852,0.4104603,-9.765129,0.80258644,0.008283883,0.0031003952,-0.009055555,0.016098022,-0.007949829,-0.010299683
2019-07-01T19:32:59.754Z,-0.5937039,0.32426336,-0.38174105,0.54556274,-9.78186,0.830307,-22.38617,38.597107,8.103943,0.43975893,-9.761477,0.8309942,0.025090218,0.012969017,0.00073093176,0.016036987,-0.027252197,0.00019836426
2019-07-01T19:32:59.957Z,-0.5959633,0.31901413,-0.3775888,0.48812866,-9.800995,0.8614197,-22.338867,39.62097,8.311462,0.45394358,-9.759669,0.8445041,0.07187745,-0.007214546,-0.0022399426,0.007980347,-0.05809021,0.011871338
2019-07-01T19:33:00.156Z,-0.5955903,0.31812316,-0.38084394,0.5001068,-9.796219,0.85902405,-22.097778,39.637756,8.076477,0.5074524,-9.755295,0.8643552,-0.017105639,-0.010655403,-0.042530954,0.013656616,0.011230469,-0.01499939
2019-07-01T19:33:00.362Z,-0.5951003,0.31914535,-0.38186783,0.76330566,-9.750748,1.0671997,-22.4823,38.302612,7.7453613,0.5072869,-9.755421,0.863022,-0.018868148,-0.001988411,-0.0019840002,0.004135132,0.010925293,-0.005355835
2019-07-01T19:33:00.569Z,-0.596223,0.31633615,-0.3818096,0.279953,-10.298706,0.8039856,-21.7453,38.571167,7.6950073,0.5473629,-9.752475,0.8718036,0.05005008,0.025465965,0.055318832,0.0019378662,0.029067993,-0.054718018
2019-07-01T19:33:00.771Z,-0.59385204,0.31899413,-0.3862857,0.61016846,-9.61676,0.8039856,-22.860718,38.711548,8.221436,0.56026417,-9.749729,0.8940229,-0.2532338,-0.14190388,-0.13044971,-0.042114258,0.035232544,0.050109863
2019-07-01T19:33:00.974Z,-0.59547436,0.3230912,-0.38563854,0.6029968,-9.724426,0.92362976,-21.740723,38.71765,7.496643,0.53489465,-9.758941,0.8045835,0.07684749,0.10359669,0.05751282,-0.0128479,0.04837036,-0.0129852295
2019-07-01T19:33:01.177Z,-0.5958185,0.32464224,-0.383297,0.43310547,-9.836899,0.7896271,-22.369385,39.03961,7.5134277,0.48911932,-9.763589,0.77683836,-0.019292533,-0.04673958,0.07267529,-0.017440796,-0.097076416,0.044784546
2019-07-01T19:33:01.375Z,-0.6010365,0.31593797,-0.36943892,0.35653687,-9.769897,0.8159485,-21.786499,39.212036,9.187317,0.42399585,-9.767669,0.7637088,-0.036555856,-0.0021572113,0.062121153,-0.0018005371,-0.15235901,0.047973633
2019-07-01T19:33:01.569Z,-0.60019475,0.31826785,-0.3689369,0.3134613,-9.856033,0.6125641,-22.291565,38.667297,9.472656,0.38346857,-9.770055,0.7545591,-0.11914176,-0.0018491745,-0.003108859,0.0030822754,0.072509766,-0.0040130615
2019-07-01T19:33:01.793Z,-0.59788793,0.32194144,-0.3729524,0.5096741,-9.724426,0.8566284,-21.707153,39.370728,8.308411,0.380959,-9.7695265,0.7626377,-0.06232822,-0.020666122,-0.081356525,-0.009613037,0.08979797,-0.0019989014
2019-07-01T19:33:01.987Z,-0.59786385,0.32368115,-0.37639567,0.15553284,-10.363312,0.23928833,-20.275879,38.952637,8.544922,0.41807353,-9.76966,0.741174,0.09006205,0.00010204315,0.037781358,-0.008575439,-0.04612732,0.01272583
2019-07-01T19:33:02.188Z,-0.6069477,0.3124056,-0.3542019,-0.06460571,-9.882355,0.92123413,-21.04187,38.180542,7.511902,0.30002278,-9.779327,0.6671898,-0.0648793,-0.07680321,-0.15335631,-0.053100586,-0.30744934,0.09793091
2019-07-01T19:33:02.391Z,-0.6088302,0.31377217,-0.345914,-0.098098755,-10.260422,0.4737854,-20.080566,39.465332,9.922791,0.18422535,-9.786205,0.60551775,-0.2345611,0.074611664,0.09827912,0.017318726,0.09925842,-0.020690918
2019-07-01T19:33:02.594Z,-0.60237324,0.31929246,-0.36017737,0.46180725,-9.564117,0.6029968,-21.141052,39.102173,9.967041,0.2676552,-9.778658,0.6903647,-0.13860628,-0.057688713,-0.13103396,-0.0031433105,0.13676453,-0.010787964
2019-07-01T19:33:02.799Z,-0.5991941,0.3226742,-0.36927462,0.43788147,-9.736389,0.6699829,-21.792603,39.138794,8.946228,0.3347335,-9.774254,0.72270626,-0.009839445,0.04681778,-0.09411967,0.027770996,0.05986023,-0.031143188
2019-07-01T19:33:02.992Z,-0.59968233,0.32350886,-0.36949286,0.22970581,-9.853638,0.57188416,-21.42334,38.591003,7.913208,0.33692774,-9.7757845,0.7006489,0.03630063,-0.0012083054,-0.0423308,0.016647339,-0.024932861,-0.031066895
2019-07-01T19:33:03.200Z,-0.60194695,0.32163242,-0.36514232,0.18424988,-9.74118,0.49771118,-20.814514,39.578247,8.088684,0.31682497,-9.778535,0.6710191,-0.12067151,-0.053902626,-0.10727793,-0.028182983,-0.05747986,0.027267456
2019-07-01T19:33:03.395Z,-0.5931662,0.33680293,-0.381548,0.34695435,-9.750748,0.727417,-20.906067,39.19983,8.695984,0.31813464,-9.777806,0.680928,-0.12511009,-0.011435509,-0.08661991,0.009384155,-0.0022583008,-0.010421753
2019-07-01T19:33:03.606Z,-0.5927651,0.33807498,-0.38151482,0.2871399,-9.722046,0.6915283,-21.94519,39.349365,8.917236,0.30108443,-9.778868,0.6734196,-0.003446281,0.030825615,-0.0040741563,0.029846191,0.03126526,-0.024475098
2019-07-01T19:33:03.807Z,-0.5905773,0.3410312,-0.3847122,0.34217834,-9.894318,0.6699829,-21.316528,38.952637,9.190369,0.2956317,-9.778242,0.68482155,-0.032257408,-0.0379858,-0.018887818,0.00045776367,0.034317017,-0.0025482178
2019-07-01T19:33:04.008Z,-0.59084004,0.33762026,-0.3868347,0.41156006,-9.777069,0.727417,-22.5708,39.59503,9.597778,0.3618719,-9.773181,0.7241347,0.051130444,0.0042829514,-0.013228357,0.015365601,-0.030548096,-0.004989624
2019-07-01T19:33:04.210Z,-0.5925406,0.33563495,-0.3830836,0.35653687,-9.800995,0.71066284,-21.516418,39.886475,9.161377,0.34372857,-9.774808,0.7108794,-0.0032058656,-0.0028009415,-0.013388276,-0.00015258789,-0.056991577,0.010467529
2019-07-01T19:33:04.411Z,-0.5933363,0.33425447,-0.38051116,0.35414124,-9.7986145,0.6891327,-21.728516,38.705444,9.156799,0.32646215,-9.775428,0.71051186,-0.02221167,0.0007123947,-0.005307734,0.0047454834,-0.015090942,-0.0011444092
2019-07-01T19:33:04.616Z,-0.5920466,0.3354395,-0.38253453,0.30389404,-9.800995,0.71066284,-21.662903,38.420105,8.946228,0.33004606,-9.774248,0.7249297,-0.025957882,0.0036973953,-0.013341844,0.011764526,0.020401001,-0.012008667
2019-07-01T19:33:04.819Z,-0.59095037,0.3373063,-0.38484743,-0.112457275,-10.054642,0.48095703,-21.562195,38.864136,8.955383,0.33493197,-9.774022,0.7257334,-0.019793808,-0.013021469,-0.02267307,0.0063934326,0.019165039,-0.008468628
2019-07-01T19:33:05.027Z,-0.5894869,0.34316298,-0.38567296,0.27757263,-9.717255,0.45463562,-21.699524,39.3631,9.364319,0.27744153,-9.779011,0.6814515,-0.09220889,-0.007828712,-0.1293096,0.019699097,-0.05027771,0.02848816
2019-07-01T19:33:05.227Z,-0.58985865,0.34501046,-0.3791616,0.65563965,-9.772293,1.002594,-20.10498,39.031982,9.0789795,0.16463873,-9.783838,0.64791644,-0.00042136014,-0.07702255,-0.11492127,-0.022445679,-0.03451538,0.07862854
2019-07-01T19:33:05.434Z,-0.5895061,0.34922072,-0.37775472,0.19621277,-9.748352,0.92362976,-21.080017,38.822937,9.155273,0.10215324,-9.787822,0.5987437,0.4743696,0.1663971,0.45976913,-0.010284424,0.07647705,-0.0019378662
2019-07-01T19:33:05.633Z,-0.58635056,0.3519258,-0.38589942,0.32302856,-9.779465,0.76091003,-21.07544,38.893127,9.320068,0.16388533,-9.784741,0.63431937,0.0744618,0.09401798,0.33855438,-0.0014953613,0.09553528,-0.04701233
2019-07-01T19:33:05.834Z,-0.58646077,0.3508072,-0.3936416,-0.007171631,-10.023529,0.49291992,-21.621704,39.141846,9.996033,0.29734644,-9.780752,0.64720166,-0.024482787,0.07556534,0.094929576,0.013961792,0.040863037,-0.087890625
2019-07-01T19:33:06.038Z,-0.58633447,0.34824777,-0.39869848,0.35891724,-9.7005005,0.7154541,-21.072388,39.042664,9.046936,0.39690053,-9.774629,0.68519807,-0.27930835,-0.09366894,-0.16104424,0.0012054443,-0.027374268,-0.0037078857
2019-07-01T19:33:06.238Z,-0.5884724,0.34748816,-0.39335704,0.17228699,-9.994827,0.5288086,-21.890259,38.69629,9.083557,0.3486317,-9.779117,0.6463015,0.02751112,0.04262352,-0.01337868,0.011886597,-0.027801514,-0.0054779053
2019-07-01T19:33:06.432Z,-0.5883213,0.34799948,-0.39335245,0.45942688,-9.707687,0.78245544,-22.225952,38.609314,7.948303,0.34221196,-9.779574,0.64281386,-0.06541768,-0.050598145,-0.071270466,-0.02116394,-0.0035552979,0.027267456
2019-07-01T19:33:06.653Z,-0.5881699,0.34685835,-0.39365873,0.3134613,-9.889542,0.624527,-22.006226,39.78424,8.706665,0.35430154,-9.777873,0.6618603,0.027876347,0.0012187958,0.03789246,0.0055999756,-0.011428833,-0.006942749
2019-07-01T19:33:06.847Z,-0.58742064,0.3466763,-0.39537725,0.2368927,-9.824936,0.7010956,-22.189331,39.109802,9.635925,0.37244144,-9.775842,0.6816124,-0.051540613,0.000746727,-0.011259377,-0.0025939941,-0.0046539307,-0.0033416748
2019-07-01T19:33:07.051Z,-0.5868567,0.3466361,-0.3933516,0.45942688,-9.748352,0.68673706,-22.40448,38.079834,8.755493,0.33261582,-9.776325,0.6951464,-0.030425161,-0.00069618225,0.0114834905,0.009933472,-0.021316528,0.021697998
2019-07-01T19:33:07.256Z,-0.58732235,0.34447023,-0.3908968,0.447464,-9.832108,0.7298126,-21.043396,37.956238,8.372498,0.3184283,-9.7754545,0.71378165,0.049409688,0.018698692,0.022034228,0.006149292,-0.017166138,0.010772705
2019-07-01T19:33:07.454Z,-0.5963155,0.32821628,-0.37552926,0.37806702,-9.789032,0.74417114,-21.322632,38.882446,8.72345,0.34286052,-9.774212,0.71945244,0.072980344,0.0046453476,0.02019608,-0.0047912598,-0.048812866,0.008636475
2019-07-01T19:33:07.661Z,-0.59916884,0.32245478,-0.3698998,0.2033844,-9.796219,0.70588684,-20.347595,39.016724,9.164429,0.34607193,-9.773609,0.72607636,0.050251484,0.023444176,0.014534712,0.0005187988,-0.07861328,0.022491455
2019-07-01T19:33:07.870Z,-0.6008756,0.32031792,-0.36560613,0.23928833,-9.841675,0.68673706,-20.347595,38.86566,9.887695,0.32205358,-9.775404,0.71284384,-0.006263107,9.6321106e-05,-0.009720147,-0.003753662,-0.038360596,0.010284424
2019-07-01T19:33:08.070Z,-0.6001138,0.32229364,-0.3648586,0.22013855,-9.791428,0.6891327,-20.565796,39.51111,9.274292,0.28224975,-9.77714,0.7058871,-0.05534014,-0.0014429092,-0.008204639,0.0022277832,0.0037841797,0.00491333
2019-07-01T19:33:08.269Z,-0.5991672,0.32364362,-0.36571833,0.26560974,-9.815353,0.70588684,-21.568298,38.71765,8.926392,0.27059868,-9.777094,0.7110487,-0.016631842,-0.0029878616,-0.016542733,0.006576538,0.012268066,0.00039672852
2019-07-01T19:33:08.472Z,-0.59841084,0.32484823,-0.3667502,0.2679901,-9.82254,0.73220825,-21.57898,40.32135,8.799744,0.2654651,-9.777058,0.71349496,-0.009620845,-0.004916191,-0.016497135,0.004547119,0.005859375,-0.0005340576
2019-07-01T19:33:08.677Z,-0.59827274,0.325905,-0.36687785,0.3014984,-9.841675,0.6891327,-21.644592,38.78479,9.170532,0.25593683,-9.778053,0.7032481,-0.0070391,-0.0039720535,-0.013959289,-0.0042419434,0.0021362305,0.00491333
2019-07-01T19:33:08.879Z,-0.5982284,0.32551652,-0.3667089,0.22492981,-9.817749,0.69869995,-21.32721,38.661194,9.207153,0.25629544,-9.77761,0.7092526,0.0061151385,0.008214951,0.003504932,0.0063323975,-0.005142212,-0.0034637451
2019-07-01T19:33:09.098Z,-0.598082,0.3260819,-0.36680317,0.22732544,-9.796219,0.66760254,-20.666504,39.068604,9.111023,0.25064468,-9.77803,0.7054608,-0.02081433,-0.005885124,-0.018439114,0.0032043457,0.0021362305,-0.0027313232
2019-07-01T19:33:09.286Z,-0.59807086,0.32663652,-0.36699083,0.30389404,-9.800995,0.70588684,-21.063232,39.186096,9.228516,0.24833336,-9.778581,0.6986227,-0.01618576,-0.008885384,-0.022837222,-0.0019836426,0.01574707,0.00093078613
2019-07-01T19:33:09.488Z,-0.59747386,0.32710284,-0.36890194,0.23210144,-9.834503,0.65563965,-20.709229,38.119507,9.069824,0.26569694,-9.777549,0.7066416,0.01860544,0.00480175,0.009451449,0.0046691895,0.036758423,-0.018920898
2019-07-01T19:33:09.690Z,-0.5951067,0.3300389,-0.3748562,0.25602722,-9.793823,0.77049255,-20.610046,38.563538,8.930969,0.29978156,-9.77528,0.72416854,-0.055774868,0.013420105,-0.037624657,0.019332886,0.04067993,-0.028564453
2019-07-01T19:33:09.910Z,-0.5934111,0.3341937,-0.37501886,0.39720154,-9.784256,0.7154541,-21.530151,39.520264,9.313965,0.24241424,-9.777942,0.70956653,-0.035812274,-0.04039383,-0.013600051,-0.008270264,0.010620117,0.025619507
2019-07-01T19:33:10.096Z,-0.5938213,0.3295456,-0.37652037,0.44506836,-9.851257,0.79681396,-21.025085,40.13977,8.892822,0.3127093,-9.772113,0.7605254,0.08213261,0.050056458,0.026934922,0.028137207,0.009155273,-0.026672363
2019-07-01T19:33:10.296Z,-0.5937724,0.33116156,-0.37914887,0.3900299,-9.748352,0.79681396,-21.385193,39.315796,8.737183,0.33845985,-9.772777,0.7407231,-0.0073381364,-0.046004295,-0.038584054,-0.009185791,0.019302368,-0.027709961
2019-07-01T19:33:10.503Z,-0.5944516,0.32806396,-0.38134915,0.33259583,-9.860825,0.79681396,-22.309875,38.378906,8.660889,0.40954703,-9.768188,0.7649438,0.0017083883,0.027050972,0.01539135,-0.0002746582,-0.017242432,-0.018981934
2019-07-01T19:33:10.701Z,-0.59581226,0.328462,-0.37782645,0.447464,-9.712463,0.80877686,-21.157837,38.967896,8.583069,0.36958894,-9.772601,0.72805417,-0.016920209,-0.017457962,0.010347664,-0.013885498,-0.02444458,0.021636963
2019-07-01T19:33:10.908Z,-0.5962256,0.32436746,-0.3794954,0.32781982,-9.791428,0.7346039,-22.624207,38.575745,8.6380005,0.4379614,-9.766494,0.7708181,0.045520753,0.056118965,0.02686894,0.03137207,0.03126526,-0.05770874
2019-07-01T19:33:11.113Z,-0.5920808,0.32974178,-0.39116058,0.42114258,-9.9039,0.7393799,-21.775818,37.91504,7.336426,0.515477,-9.760488,0.7984712,-0.13808006,-0.043673515,-0.10956478,0.024108887,0.069625854,-0.05807495
2019-07-01T19:33:11.315Z,-0.590634,0.337094,-0.39224243,0.69869995,-9.619141,0.9451599,-23.005676,39.14032,8.164978,0.4486218,-9.768705,0.73587316,-0.042530537,-0.077563286,-0.048293173,-0.034469604,0.02748108,0.039108276
2019-07-01T19:33:11.523Z,-0.5965557,0.32365033,-0.38280296,0.26560974,-9.98764,0.68673706,-22.003174,38.414,6.692505,0.50035036,-9.763388,0.77221036,0.20823407,0.160985,0.12102765,0.055252075,0.044281006,-0.076828
2019-07-01T19:33:11.716Z,-0.59399426,0.32403344,-0.388281,0.66041565,-9.674179,0.9140625,-21.435547,38.52539,6.690979,0.5474485,-9.756357,0.8271553,-0.15211058,-0.1064415,-0.1262744,-0.013397217,-0.00044250488,0.027511597
2019-07-01T19:33:11.921Z,-0.59393924,0.32411,-0.3895004,0.6077728,-9.990036,0.87098694,-23.196411,38.47351,7.8842163,0.5650368,-9.755328,0.8274635,0.120076835,0.13250732,0.06727427,0.039855957,0.034439087,-0.040298462
2019-07-01T19:33:12.122Z,-0.5919497,0.32497495,-0.3895469,0.6006012,-9.734009,0.91166687,-21.723938,39.08081,7.722473,0.5308022,-9.754196,0.8627272,-0.0041386485,-0.08590698,-0.035790622,-0.0101623535,-0.027435303,0.038986206
2019-07-01T19:33:12.324Z,-0.59225225,0.32181883,-0.3897541,0.44506836,-10.195816,0.19142151,-22.723389,38.51471,6.591797,0.5666289,-9.749205,0.8957381,0.13426715,0.09264374,0.032135606,0.019760132,0.00970459,-0.020263672
2019-07-01T19:33:12.527Z,-0.5915669,0.32717776,-0.3897593,1.3088684,-9.913467,0.6508484,-22.364807,39.414978,6.3079834,0.50917447,-9.757035,0.84343696,0.01102221,-0.17754078,-0.5133675,-0.0038146973,0.040374756,0.043518066
2019-07-01T19:33:12.726Z,-0.5872579,0.33419186,-0.3973271,1.2969055,-9.2482605,1.2227325,-21.533203,39.75067,7.698059,0.506378,-9.756431,0.8520786,0.5445888,0.086639404,-0.44217736,-0.059524536,0.13743591,0.044311523
2019-07-01T19:33:12.930Z,-0.6020646,0.3183508,-0.35599768,-0.45703125,-9.980469,0.92362976,-22.102356,39.48822,8.424377,0.20848417,-9.778734,0.70943177,-0.294613,0.037086487,0.639317,0.12635803,-0.533844,0.17753601
2019-07-01T19:33:13.128Z,-0.61019427,0.29349682,-0.30467573,-0.9260254,-9.86322,0.75613403,-19.226074,40.61737,9.896851,-0.20959976,-9.770529,0.81439435,-0.2688533,-0.07968044,0.3249737,-0.035949707,-0.55467224,0.22824097