rotationVector.y,rotationVector.x,magneticField.y,rotationVector.z,gravity.y,magneticField.z,linearAcceleration.y,gyroscope.y,gravity.x,gyroscope.z,gyroscope.x,magneticField.x,linearAcceleration.z,accelerometer.z,accelerometer.x,accelerometer.y,gravity.z,linearAcceleration.x
-0.12874956,0.98128194,-28.901672,-0.05706373,2.6720977,28.448486,2.2133102,0.3323822,-0.7665711,-0.7255249,0.059509277,1.0971069,0.9665985,-9.372681,1.9549408,4.175476,-9.404394,0.4601701
0.009390309,0.9892612,-25.637817,0.013810146,2.8198352,30.731201,2.858767,0.9973755,0.24121135,-1.8863068,-0.06401062,7.6950073,-0.7311115,-8.415558,2.0769653,3.4624176,-9.389394,1.5558798
0.27467272,0.9544181,-12.538147,0.05760149,2.212235,34.033203,-2.208266,0.5984802,0.5309034,-2.8734741,0.9984131,14.329529,0.9662905,-9.169296,5.481964,-0.87815857,-9.539106,3.605024
0.5454858,0.8353298,-6.9900513,0.06604248,0.99401253,37.001038,-4.1130657,0.57862854,0.8943091,-2.2176971,0.35925293,13.711548,-0.6664057,-10.217346,2.6847534,-1.414154,-9.715068,3.7892287
0.6109934,0.7871959,-8.64563,0.08280452,1.1833167,34.39789,-0.63688743,-0.06871033,1.1301979,-0.11276245,-0.2490387,13.700867,-0.29658508,-9.554535,0.68196106,0.41156006,-9.6691675,-0.16917992
0.60612494,0.7917778,-8.604431,0.07549991,0.90499973,36.558533,-0.1281963,0.07710266,1.1667644,0.15766907,-0.032058716,14.602661,-0.24136066,-10.107285,2.3377838,0.9762726,-9.694845,0.8578062
0.5912989,0.802058,-8.74939,0.0828672,1.1844409,35.102844,-0.33311832,-0.003829956,1.1388854,0.010437012,0.10116577,14.424133,-1.2793674,-9.74118,1.7036896,0.727417,-9.668011,0.5620893
0.5895946,0.80549735,-9.265137,0.059162658,0.79811275,34.44519,0.15282309,-0.608902,0.85126305,0.18441772,0.11735535,18.661499,0.385314,-10.298706,0.72262573,1.5146637,-9.7369795,-0.65192324
0.5634156,0.8257137,-11.122131,0.012844599,0.53690565,33.670044,-1.0924838,-0.20628357,-0.06148312,0.22125244,0.120895386,19.1391,0.6428814,-9.669403,1.8592224,-1.730011,-9.791749,0.87858254
0.4886857,0.87203896,-21.304321,-0.0044747205,0.41422322,32.354736,0.30869228,-0.34121704,-0.33269677,2.1151428,-0.1960144,11.679077,0.14685154,-10.320251,-0.49291992,1.6797638,-9.792248,0.72041726
-0.0808399,0.99506944,-24.253845,0.0044673644,1.1109498,33.369446,1.459241,-0.33584595,0.17801726,3.3078613,-0.6746979,-1.876831,1.5363951,-8.382065,2.3856506,3.797409,-9.741894,1.7286503
-0.008658041,0.97651404,-34.214783,0.045128174,4.023905,9.144592,2.4937391,0.3602295,0.9000697,1.4875336,-2.5372925,-24.066162,-0.9350805,-14.617752,3.3882294,6.685547,-8.897665,-0.10111731
-0.08562572,0.91140306,-32.774353,0.18431391,6.086866,-18.461609,-0.78213453,2.0784912,3.8956635,0.33366394,-1.7384033,-23.175049,-1.163465,-1.2993011,2.4358978,5.350357,-6.629046,0.6757541
-0.080464944,0.71826625,-18.3609,0.20396973,8.980328,-34.88617,-3.0706358,0.19358826,3.9155357,-0.14447021,-3.0427246,-18.811035,1.9094728,6.5850525,3.4337006,5.572891,-0.43896472,-1.7774215
-0.071071036,0.5130393,-14.332581,0.30344418,7.6248026,-39.64081,-2.5031476,1.3596191,4.16823,0.14813232,-1.8410339,-13.600159,1.6810398,-1.4667969,1.277771,2.251648,4.5451784,0.31384087
-0.020810707,0.44779956,-11.59668,0.24442539,7.4519267,-40.5838,-0.31901407,-0.17134094,2.4976978,-1.0355377,-1.2491608,-12.043762,4.9021926,6.443878,9.12384,6.8745728,5.86521,2.49806
0.002035672,0.39585412,-13.165283,0.20063132,6.9655404,-42.72461,-0.98789597,0.42547607,1.5219237,-1.3652954,0.533844,-6.2530518,-3.7628317,19.987244,3.2087708,-3.4719849,6.7331553,-1.742994
0.018046286,0.24929611,-13.2369995,0.065674864,4.746665,-43.237305,0.45723915,-0.8434143,-0.02080484,-0.61312866,-0.24330139,-10.687256,-0.6060095,4.0821533,-2.6440735,5.819351,8.581326,-1.0018054
-0.06033584,0.33027294,-14.117432,-0.016825924,6.1206803,-37.3291,-0.68399,-1.436264,1.0055236,-0.5451355,-0.53089905,-21.055603,2.7602158,8.243271,2.7493591,8.391632,7.595826,0.3066669
-0.19266902,0.3346942,-22.607422,-0.11844657,6.452653,-24.090576,2.8860464,-1.8100586,2.6793153,-1.1380463,0.36445618,-28.805542,1.3360963,9.43251,-1.076767,10.454239,6.881492,1.3132942
-0.30292767,0.33086753,-27.763367,-0.3519499,7.422245,-21.359253,-4.060911,-1.5844574,2.5970347,-1.6491089,0.3167572,-27.081299,0.5264745,17.249863,5.682953,1.524231,5.859699,-0.57656837
-0.28047016,0.29198873,-31.852722,-0.37478998,6.8380933,-17.689514,0.9018755,-0.08380127,2.441601,-0.23561096,0.36054993,-24.577332,-4.1170087,2.7541351,2.629715,6.4366913,6.59162,-2.8759534
-0.34628147,0.41098332,-34.550476,-0.40200606,8.7059965,-14.822388,0.29569912,0.61338806,1.7944541,0.34172058,-0.344635,-23.143005,1.6978407,3.5724792,0.37088013,9.693329,4.141973,0.32006967
-0.252839,0.45249146,-33.535767,-0.40654528,8.69314,-20.579529,0.84211254,0.42663574,0.12292774,-0.9737854,-0.23260498,-19.52362,-2.0891218,2.100891,-5.9078827,5.4723816,4.5370255,-5.310337
-0.23066728,0.36565864,-31.57196,-0.40114447,7.606545,-25.198364,0.24907827,0.21252441,0.77664834,1.5741577,-0.9007263,-16.818237,3.4381094,-0.87338257,1.7467651,11.777481,6.1406565,6.2305264
-0.31110734,0.40988123,-30.366516,-0.40855706,8.553248,-22.994995,-2.7497263,-1.0994263,1.3154364,-1.3756104,0.710022,-20.370483,1.5856781,27.84288,10.408783,-3.8931274,4.613236,-2.651949
-0.26924497,0.29482108,-32.159424,-0.43987164,6.9743886,-23.226929,-0.1980362,-0.53089905,1.7044766,-0.0026855469,1.0007935,-19.967651,-3.9710846,4.5272217,-7.1688995,4.3094788,6.6800485,-3.8213763
-0.3240146,0.4096511,-38.40027,-0.5287055,8.735737,-15.023804,-4.4409046,-0.09346008,0.0040728203,-0.08265686,0.07380676,-15.270996,1.6065826,0.5766754,-1.8759766,6.0155487,4.4561524,-2.672488
-0.4138374,0.45901382,-35.305786,-0.3491761,9.175345,-11.247253,-3.636879,2.027359,2.573525,2.9414673,0.19303894,-22.02301,1.2381918,5.8408813,9.109482,5.414963,2.3152502,1.9636235
-0.3688218,0.24619202,-8.876038,-0.032058295,4.55706,-25.170898,0.7494297,1.5666504,6.324745,2.9440918,-1.675293,-31.832886,2.8209047,6.7214355,9.037689,4.216156,5.9498906,4.154746
-0.102296546,0.3553186,9.068298,0.8182579,1.4257095,-28.366089,1.7162529,-0.6059723,6.585534,0.15008545,-1.059906,-28.736877,0.9393611,8.726624,8.920441,4.589432,7.1252,2.544805
-0.2947484,0.38328838,5.6365967,0.53827786,2.0773487,-17.880249,4.242388,-1.7148132,8.036963,-1.6775055,1.1227264,-36.366272,-0.6830573,3.3810577,7.0468597,8.085342,5.221323,-0.81092167
-0.2540781,0.54996675,-6.704712,0.41117758,5.297903,-11.242676,2.080112,-0.38587952,7.8294272,-0.40475464,0.9600525,-40.316772,0.7508075,3.098709,5.69252,4.6013947,2.608194,-0.0146250725
-0.32948586,0.63817203,-7.788086,0.35027212,5.261904,-1.0543823,-0.52170944,-1.0305939,8.2696085,0.46969604,1.4069672,-40.042114,0.39234868,-1.7228394,5.647064,3.081955,-0.31037,-1.6995068
-0.22937958,0.723958,-2.557373,0.49340853,3.8013735,-3.501892,-1.4928849,1.9382324,8.913761,0.60891724,2.1351776,-42.808533,-0.42021942,-3.2949219,13.780273,-0.102890015,-1.5049317,0.030690193
-0.18351708,0.6395811,2.9281616,0.65180486,2.2185154,-13.775635,0.38134742,0.85424805,9.48617,0.2256012,-0.3717041,-39.34784,-1.8468522,2.0362854,13.550552,1.1844482,1.1230088,3.4644852
-0.25992683,0.56382096,7.6812744,0.64882565,1.5575774,-15.948486,-0.3875686,-0.35569763,9.417918,-0.05882263,-1.9153137,-38.272095,0.8323748,4.433899,7.2263184,1.3974152,2.246585,1.1377945
-0.37583646,0.4978779,6.8237305,0.5030953,2.132244,-9.159851,1.1766875,-0.4990692,9.321793,-0.55937195,-1.449646,-40.509033,1.8515277,3.625122,6.879364,4.3621216,2.1744196,-2.5398073
-0.47793284,0.4437127,8.232117,0.3832792,2.0992825,-3.314209,1.4293995,-0.40286255,9.4666195,0.28637695,-0.13121033,-41.690063,2.4391322,4.0462646,10.880173,2.1296082,1.4650981,-0.6769705
-0.44740394,0.46179074,14.866638,0.4985411,0.8912248,-5.860901,-1.5015872,0.6527252,9.617305,0.88941956,0.8368988,-38.684082,1.9113629,2.4669952,7.532608,-0.40678406,1.6981003,1.5725012
-0.37195674,0.45438382,15.17334,0.5888322,0.6539271,-14.356995,0.22382629,0.5816803,9.299402,0.19487,1.0886383,-36.16333,-1.1127925,1.5050812,9.061615,1.6342926,3.043661,-1.5472078
-0.35073978,0.4418798,19.432068,0.63505155,0.20452563,-18.789673,0.7966936,0.16242981,9.133729,0.7057953,0.5278015,-33.998108,-0.8944042,3.4169464,11.799011,0.8685913,3.564204,2.6127844
-0.37211093,0.43946952,21.269226,0.6446564,-0.3709654,-18.005371,-0.31963384,-0.27114868,9.2262535,0.19621277,-0.0665741,-34.799194,-1.1345618,1.4476624,9.279373,-0.91166687,3.3028798,2.49794
-0.3952098,0.4308012,19.865417,0.5995169,-0.028404063,-16.459656,0.85908496,0.15705872,9.302671,-0.75735474,-0.64860535,-37.10022,0.45485163,4.0773773,7.482361,1.902298,3.1032076,-1.7006273
-0.43039185,0.37124443,16.455078,0.500178,0.5344731,-16.093445,1.3598206,0.35681152,9.156481,-0.36383057,-0.25595093,-39.015198,1.503253,12.495316,4.656433,3.9936218,3.470386,-1.7191238
-0.34690493,0.357106,14.93988,0.53009576,1.2007467,-22.633362,-0.6875452,0.92822266,8.382966,0.37104797,0.44728088,-36.2381,2.4638572,6.254837,5.9772644,-0.122039795,4.945146,0.5496092
-0.2884717,0.32581916,15.6692505,0.6126944,0.7493202,-30.735779,0.38225186,1.0791626,7.6479783,0.6227875,0.66493225,-28.385925,0.5123377,6.690338,5.139786,3.7591248,6.0924006,-1.3114395
-0.19614625,0.24626198,13.000488,0.5919199,1.3065399,-38.459778,1.7909895,1.0952301,5.7133756,0.3864441,0.7034302,-18.988037,1.0503817,10.688736,2.9551392,2.0362854,7.8626127,-0.6529894
0.0,0.0,10.307312,0.0,1.4869604,-47.151184,-0.37668705,1.1952362,3.7097623,0.06071472,0.38302612,-10.084534,0.5925007,10.136002,2.8666077,-0.009567261,8.955277,-1.4441912
-0.16902736,-0.024202954,12.538147,-0.43112427,1.0086778,-50.376892,-1.206413,0.1338501,3.1418703,0.6587677,-0.39985657,-8.726501,0.20321369,8.336594,3.3188477,-0.28474426,9.234804,-0.13252759
-0.13337341,-0.030467073,11.106873,-0.3458462,0.3500034,-52.47345,-0.78661084,0.116622925,2.6349025,0.80781555,-0.14012146,-5.264282,0.26381016,9.08316,4.187439,-0.17228699,9.439554,0.9878502
-0.11204354,-0.038551934,9.498596,-0.25440872,-0.1666679,-51.309204,-0.94851184,0.19810486,2.3015916,0.44612122,-0.13926697,-2.9937744,0.4347458,9.7986145,1.1700897,-1.4979095,9.53128,0.7175195
-0.07639293,-0.07848212,10.577393,-0.246436,-1.1130244,-47.38159,-0.8172579,0.28015137,1.8221431,0.18093872,-0.11953735,0.54473877,0.0935421,9.339188,1.655838,-2.4263153,9.5713825,0.25132132
-0.065492585,-0.09420235,12.327576,-0.23041399,-1.4893913,-44.140625,-0.5518732,0.032806396,1.6669613,0.16145325,-0.23901367,2.0141602,0.27039814,9.951752,2.2037964,-2.1128693,9.548473,0.48101306
-0.062283132,-0.114355855,10.810852,-0.21258743,-1.9123878,-43.103027,-0.1275953,0.043807983,1.6598198,0.09083557,-0.06376648,2.357483,0.21273708,8.642868,1.8233337,-1.8017883,9.474078,0.6479484
-0.061129943,-0.097365014,9.657288,-0.20622705,-1.6084001,-39.692688,0.5491737,-0.001083374,1.5588833,0.09321594,0.108810425,1.852417,-0.23996735,8.822342,2.3617096,-0.9571228,9.547425,0.6860615
-0.06901188,-0.086829625,8.743286,-0.19301833,-1.3990201,-37.660217,0.09438264,0.35658264,1.648298,0.051742554,0.3264618,4.8049927,0.46647644,11.002197,0.63648987,-1.7850494,9.565367,-0.23966241
-0.01429715,-0.07191629,12.602234,-0.18995233,-1.3277023,-36.79962,0.71643305,0.08644104,0.5424708,-0.2290802,-0.3587494,4.8187256,1.2620964,10.841873,-0.9260254,-1.2275238,9.701202,0.44262534
-0.011820666,-0.12658145,18.441772,-0.27181423,-2.3052485,-40.33966,0.54360175,-0.032302856,0.89598566,-1.2766571,-0.8371277,2.3117065,-0.27383614,9.006592,0.49291992,-1.3016968,9.489649,-0.59230113
0.0033652864,-0.17061296,23.042297,-0.4244565,-3.0036063,-30.60608,0.7815654,0.55192566,1.3616592,-1.9095154,-0.551239,-4.084778,0.049596786,8.446671,0.7657013,-2.691925,9.235509,-1.1146028
0.038539827,-0.19436508,16.545105,-0.6184591,-3.3663337,-37.64801,1.603575,1.0401917,1.7828535,-3.1765137,-0.52593994,-13.839722,0.48334885,10.451843,2.778061,-0.9906311,9.036571,0.18141437
0.07007062,-0.14317462,9.407043,-0.85244364,-2.5697684,-41.17279,1.6041741,0.77441406,1.7094611,-2.7302094,-0.33242798,-13.05542,0.5806837,9.820145,2.7062836,-1.3710938,9.308299,1.5021147
0.09666664,-0.124745235,6.095886,-0.9188899,-2.626821,-41.731262,0.75807357,0.4717865,1.56269,-0.7350006,0.03929138,-10.308838,1.2546568,10.93042,0.5359955,-2.6153564,9.318165,0.08749843
0.07930008,-0.09436715,6.338501,-0.93914306,-2.0541594,-41.50238,-0.48586726,-0.110061646,1.239495,-0.24942017,-0.19003296,-11.018372,-0.4651165,10.033112,1.2993011,-1.8951111,9.508653,0.19845152
0.078735255,-0.096280664,3.1646729,-0.9432441,-2.0381033,-42.633057,0.082714796,0.14796448,1.30568,-0.058151245,0.4684143,-8.432007,0.06825161,9.805786,-0.16270447,-2.1320038,9.503248,-0.42263997
0.07900125,-0.06503089,2.005005,-0.9432218,-1.8645602,-43.17169,0.15686822,0.25541687,0.7134015,0.025787354,0.062561035,-8.406067,0.3343258,9.202789,0.94755554,-1.5457611,9.6012945,-0.48021162
0.05336055,-0.07271359,0.37384033,-0.9452782,-1.4364784,-43.75763,0.031165123,-0.110672,1.0199562,-0.008911133,0.22096252,-7.7575684,0.1072731,9.224335,1.0241241,-1.2394867,9.647103,-0.25549483
0.038875762,-0.07060176,-0.6668091,-0.945159,-1.1589485,-43.09845,-0.03333485,0.021697998,1.0674603,0.00630188,0.08558655,-6.915283,0.19174385,9.951752,0.4785614,-1.1030884,9.679243,-0.42596197
0.038196716,-0.058519438,-0.44708252,-0.94594693,-1.0721681,-42.858887,-0.14402544,0.03427124,0.8484568,-0.030288696,-0.027908325,-7.948303,0.06375313,9.690933,0.5862427,-1.311264,9.710868,-0.23348373
0.041827388,-0.056252,0.32196045,-0.9459808,-1.1253074,-43.070984,-0.1166091,0.070129395,0.7839962,0.0041046143,0.0143585205,-6.3095093,0.092700005,9.772293,0.47138977,-1.1581268,9.710275,-0.30597103
0.031208968,-0.05832693,-0.58898926,-0.8380705,-1.1325009,-43.50586,-0.094964385,0.076675415,0.6272585,0.020950317,0.012527466,-5.7891846,0.114622116,9.796219,0.279953,-1.179657,9.720821,-0.32553285
0.032577787,-0.051453214,-0.6347656,-0.8468856,-1.0742437,-43.60504,-0.091376305,0.0033721924,0.51710284,-0.013916016,0.012466431,-5.3878784,0.061881065,9.777069,0.29910278,-1.134201,9.73391,-0.19940823
0.036681227,-0.04961811,-0.4272461,-0.84472877,-1.1250963,-43.437195,-0.07669604,0.015029907,0.43959606,0.028839111,-0.025222778,-6.665039,0.03782749,9.710068,0.1986084,-1.1868439,9.731973,-0.16069734
0.041728843,-0.043241683,-0.5874634,-0.8459611,-1.141739,-42.2287,-0.07336819,0.04283142,0.2838211,0.028778076,0.0072784424,-5.6167603,0.04319668,9.789032,0.14596558,-1.2059784,9.735824,-0.10477027
0.042318895,-0.040665083,-0.5004883,-0.84433436,-1.125592,-42.06848,-0.065716624,0.039108276,0.23136227,0.007949829,-0.0075683594,-5.3710938,0.035053253,9.78186,0.29193115,-0.830307,9.739091,-0.12997007
0.03542952,-0.06331805,0.6088257,-0.8358602,-1.256568,-41.56952,0.34205782,-0.010559082,0.6599269,0.02168274,-0.026138306,-8.377075,0.41606808,8.829514,0.14596558,-1.7802582,9.703398,-0.0821107
0.03553177,0.040063173,-7.536316,-0.8135892,-0.11204953,-44.058228,-1.665415,-0.22888184,-1.0427756,0.32669067,0.15180969,-2.8778076,-1.8232517,5.4388885,-3.316452,2.5770721,9.750408,1.2685894
0.052332375,0.09846676,-12.075806,-0.7903233,0.35230422,-45.307922,0.54134923,1.4403229,-2.144687,0.7930908,0.7681122,8.7387085,1.2359171,14.541183,-6.65683,-0.85902405,9.562772,-0.71845007
0.017546458,0.027999863,-12.6953125,-0.7888028,0.0655953,-44.903564,0.25081024,0.3709259,-0.6444075,-0.042938232,-0.33700562,-0.5371094,-0.66611576,7.9130707,0.4665985,-0.071777344,9.785234,-1.5981742
0.008120572,-0.008525689,-11.512756,-0.7867439,-0.22850646,-44.0567,-0.037562117,-1.5868378,0.033259895,0.052841187,-0.078186035,-2.4108887,0.33494854,9.817749,-0.035888672,-0.2416687,9.803931,-0.2006533
0.008255602,-0.008521421,-12.077332,-0.7869065,-0.23052976,-43.20526,-0.023538053,0.0029296875,0.03162057,0.0004272461,-0.00048828125,-2.0263672,0.035202026,9.812973,0.01914978,-0.23210144,9.803888,-0.028660692
0.008453155,-0.0085561825,-12.684631,-0.7870179,-0.2339935,-43.91632,-0.021240473,6.1035156e-05,0.029809346,0.00030517578,-0.0007324219,-2.4612427,0.026680946,9.7986145,0.0143585205,-0.25125122,9.803813,-0.031650286
0.008549973,-0.008511428,-11.767578,-0.7872177,-0.23493738,-43.45398,-0.023130372,0.0001373291,0.028023446,-4.5776367e-05,-0.0009765625,-1.7745972,0.02921009,9.810577,0.0143585205,-0.26560974,9.803796,-0.024594206
0.0085990615,-0.008384523,-12.138367,-0.7873767,-0.23415428,-43.60199,-0.01910904,0.00032043457,0.025530672,-0.0007324219,0.00091552734,-1.8722534,0.020647049,9.784256,-0.01675415,-0.25602722,9.803822,-0.03169326
0.009097297,-0.008196144,-10.870361,-0.78802234,-0.23955299,-44.293213,-0.014464945,0.0005645752,0.016850423,-0.00061035156,0.00048828125,-2.6275635,0.016453743,9.793823,0.007171631,-0.25602722,9.803709,-0.015861945
0.0094711855,-0.0079913195,-11.878967,-0.78829885,-0.24285437,-43.528748,-0.008912891,0.0001373291,0.009280632,-0.00016784668,0.0012207031,-2.3422241,0.008246422,9.793823,-0.0047912598,-0.24406433,9.803638,-0.015495244
0.009693008,-0.007900354,-11.9644165,-0.7885603,-0.24518387,-43.3136,-0.0043507516,-0.00012207031,0.005302472,0.00036621094,0.00018310547,-2.5054932,0.0066099167,9.817749,0.050247192,-0.26081848,9.803583,-0.008166669
0.009903866,-0.007875013,-12.239075,-0.78900415,-0.24813725,-44.129944,-0.0044270605,-0.00010681152,0.002547656,0.00036621094,-0.0006713867,-2.3635864,0.006658554,9.817749,0.021530151,-0.2416687,9.803511,-0.0054150466
0.010050818,-0.007825933,-12.431335,-0.78921187,-0.24981971,-44.592285,-0.0031985193,0.00018310547,0.00010253816,0.0,0.0,-3.0975342,0.0026807785,9.793823,0.0023956299,-0.2416687,9.803467,-0.0041765985
0.010143184,-0.007747297,-13.111877,-0.7891889,-0.2503023,-44.158936,-0.00029954314,0.00018310547,-0.002236203,-0.00010681152,-0.00018310547,-2.3208618,0.0016298294,9.800995,0.0023956299,-0.24406433,9.803454,-0.004463011
0.012607892,-0.002158339,-11.547852,-0.9835998,-0.2508429,-43.484497,-0.0009146631,-6.1035156e-05,-0.0028508147,-0.00016784668,0.0,-1.763916,0.0026855469,9.812973,0.007171631,-0.25125122,9.803441,-0.0012236603
0.012595401,-0.0021908637,-12.348938,-0.9836285,-0.25071704,-43.528748,0.0004248023,0.0,-0.0021393648,0.00018310547,-6.1035156e-05,-2.8457642,0.0024328232,9.817749,-0.0047912598,-0.23449707,9.803444,0.001422182
0.012576285,-0.0021335199,-11.265564,-0.9835713,-0.25014514,-43.496704,0.0010868311,6.1035156e-05,-0.0032583384,-6.1035156e-05,0.0,-1.9119263,0.0022630692,9.8033905,-0.0047912598,-0.2536316,9.803458,-0.0015325802
0.012601384,-0.0021167991,-12.828064,-0.9835595,-0.25057,-43.72101,-0.0006416142,0.00024414062,-0.0036855577,0.00012207031,-6.1035156e-05,-2.3849487,0.0010328293,9.808182,-0.0023956299,-0.25125122,9.803449,-0.000143816
0.012590972,-0.0021400356,-11.74469,-0.9835798,-0.2504516,-43.945312,-2.8014183e-05,6.1035156e-05,-0.0031723971,-0.00010681152,6.1035156e-05,-2.581787,0.0011644363,9.777069,-0.007171631,-0.24645996,9.803451,0.0010215978
0.0125543,-0.002143029,-11.380005,-0.9835768,-0.24975476,-43.119812,0.0014156252,0.00018310547,-0.0029900228,6.1035156e-05,6.1035156e-05,-2.4765015,-0.0008211136,9.805786,0.0,-0.24645996,9.803468,0.0013120759
0.012594148,-0.002108806,-11.457825,-0.9835508,-0.2513105,-43.88275,-0.000572294,0.00018310547,-0.00381813,0.00018310547,-0.00024414062,-2.6489258,-0.00085639954,9.812973,-0.007171631,-0.25842285,9.803429,-0.0007201594
0.012629296,-0.0021219952,-11.535645,-0.9835689,-0.2511269,-43.144226,0.00061801076,0.00030517578,-0.0036703427,1.5258789e-05,-6.1035156e-05,-2.645874,-0.0005378723,9.808182,0.0,-0.25125122,9.803433,0.0010309403
0.012634677,-0.0021209635,-12.0147705,-0.9835688,-0.25122705,-43.788147,-0.00046017766,0.00012207031,-0.0037093204,1.5258789e-05,-6.1035156e-05,-2.268982,0.000910759,9.810577,-0.0023956299,-0.25125122,9.8034315,0.00059707416
0.012686838,-0.0021548243,-12.564087,-0.9836091,-0.25235343,-44.85321,-0.00055253506,6.1035156e-05,-0.0031827746,-0.00035095215,-0.00012207031,-2.9464722,-0.0022478104,9.786652,-0.0023956299,-0.24885559,9.803402,0.0010313923
0.012685416,-0.002082016,-12.284851,-0.98354006,-0.25206742,-44.636536,-0.00083717704,0.0,-0.0046792356,-0.00022888184,-6.1035156e-05,-3.0914307,8.678436e-05,9.817749,0.0023956299,-0.24645996,9.803409,-0.0020191902
0.012605644,-0.0020555342,-12.277222,-0.9835022,-0.25043416,-44.114685,0.0015985072,0.0002593994,-0.0049621714,-0.00010681152,0.00061035156,-2.9281616,0.00083732605,9.796219,0.0023956299,-0.24885559,9.803451,-0.0010188785
0.012569128,-0.0020992656,-12.373352,-0.98353773,-0.24988541,-44.467163,0.00082457066,0.0,-0.0039406316,0.00012207031,0.00018310547,-2.2109985,0.0015125275,9.812973,-0.007171631,-0.24645996,9.803465,0.0025069187
0.012563443,-0.0021156853,-12.817383,-0.98355234,-0.24983408,-44.581604,0.00079506636,0.0,-0.003583562,6.1035156e-05,-0.00018310547,-3.4362793,0.00053596497,9.805786,-0.007171631,-0.2536316,9.803466,0.0007155619
0.012536264,-0.002103577,-12.760925,-0.98353654,-0.2492668,-43.32733,0.0025876015,6.1035156e-05,-0.0037434907,-0.00016784668,-0.00012207031,-2.4597168,-0.001543045,9.805786,0.0,-0.25602722,9.803482,-0.00055911415
0.012550076,-0.0021199111,-12.063599,-0.9835542,-0.24959123,-43.736267,0.00076164305,-6.1035156e-05,-0.0034524535,1.5258789e-05,-0.00036621094,-1.8707275,0.00010204315,9.786652,-0.01914978,-0.2368927,9.8034725,0.00081304274
0.01257251,-0.0021041639,-11.274719,-0.9835429,-0.24996808,-43.118286,0.0008727312,-4.5776367e-05,-0.0038508426,-0.00021362305,-0.0005340576,-1.9897461,-0.0016784668,9.777069,-0.035888672,-0.2368927,9.803463,-0.00094034965
0.012575963,-0.0021309936,-12.139893,-0.98356885,-0.25012997,-44.72809,8.8602304e-05,3.0517578e-05,-0.0033093377,-3.0517578e-05,-4.5776367e-05,-2.0401,2.861023e-06,9.791428,-0.0143585205,-0.24406433,9.803459,0.000913766
0.012601752,-0.002176004,-12.0147705,-0.9836155,-0.250787,-43.86139,-0.0009222925,-0.00016784668,-0.00246652,0.0001373291,-0.0004119873,-2.268982,0.0007982254,9.810577,0.007171631,-0.26081848,9.803442,0.0010323408
0.012635457,-0.0021461193,-11.087036,-0.9835927,-0.25133136,-42.985535,-0.00039944053,-9.1552734e-05,-0.0031933407,-0.00022888184,7.6293945e-05,-2.4627686,-0.0016899109,9.8033905,-0.007171631,-0.24645996,9.803429,-0.00088083907
0.012605152,-0.0021384237,-12.026978,-0.9835805,-0.25071943,-43.450928,0.0016206503,0.0001373291,-0.0032522758,-0.0002746582,-0.00022888184,-1.3031006,0.000626564,9.810577,-0.0047912598,-0.25602722,9.803444,-0.00033352757
0.012642457,-0.002111476,-11.418152,-0.98356104,-0.25134343,-43.598938,-0.0008471906,7.6293945e-05,-0.003930496,-0.00039672852,1.5258789e-05,-2.0004272,0.00042152405,9.805786,0.0,-0.25602722,9.803428,-0.0010895422
0.012654619,-0.0021571345,-11.045837,-0.98360616,-0.25174004,-44.355774,-0.00042840838,-4.5776367e-05,-0.0030292578,-0.00015258789,-0.00022888184,-1.991272,0.0017194748,9.810577,0.0047912598,-0.24645996,9.803417,0.0018394189
0.01269085,-0.0021107725,-12.031555,-0.98356813,-0.25227448,-44.274902,-0.00036779046,-4.5776367e-05,-0.004104249,-0.0002746582,-0.00016784668,-1.4694214,0.00045681,9.7986145,-0.0023956299,-0.25842285,9.803403,-0.0014034696
0.012686718,-0.0021600893,-12.657166,-0.983614,-0.25236976,-47.08252,0.00021770597,1.5258789e-05,-0.003073816,-9.1552734e-05,-0.0004119873,-2.4047852,0.00015544891,9.805786,0.0,-0.2536316,9.803402,0.0016400404
0.012699164,-0.0021605792,-12.423706,-0.98361653,-0.2526116,-45.5719,-0.0009875596,-0.00010681152,-0.003104601,-0.00015258789,1.5258789e-05,-3.1051636,-0.0010194778,9.800995,-0.009567261,-0.24885559,9.803395,0.00046522915
0.012696274,-0.002117089,-11.933899,-0.983575,-0.2524016,-45.054626,0.00067201257,0.0002746582,-0.003991857,-0.00021362305,7.6293945e-05,-2.2750854,-0.002916336,9.7986145,-0.009567261,-0.25602722,9.803401,-0.0012725093
0.012674341,-0.0021187062,-11.772156,-0.983573,-0.2519842,-43.484497,3.0636787e-05,0.0001373291,-0.003886364,3.0517578e-05,0.00019836426,-2.9006958,0.0015687943,9.808182,0.0023956299,-0.25842285,9.8034115,0.0005296592
0.012693968,-0.0021834772,-10.51178,-0.9836373,-0.2525924,-42.895508,-0.00031614304,-0.00010681152,-0.002615357,0.00032043457,-4.5776367e-05,-3.642273,-0.00070667267,9.800995,-0.007171631,-0.25125122,9.803396,0.0018982547
0.012682547,-0.0021763886,-11.180115,-0.98362875,-0.252347,-43.4433,0.0008828342,-0.00010681152,-0.0027240294,-3.0517578e-05,-0.00016784668,-2.7923584,0.00080394745,9.779465,0.0023956299,-0.25602722,9.803402,8.443068e-05
0.012675163,-0.0021289901,-11.962891,-0.98358285,-0.25203657,-44.366455,0.00056889653,7.6293945e-05,-0.0036770455,0.0001373291,-0.00016784668,-2.5939941,-0.00025844574,9.817749,0.009567261,-0.25125122,9.80341,-0.0015870554
0.012618578,-0.0021050205,-11.456299,-0.9835511,-0.25085983,-42.338562,0.0022720993,7.6293945e-05,-0.0039849365,0.00019836426,0.00019836426,-3.5217285,0.0009460449,9.812973,-0.0023956299,-0.25602722,9.80344,-0.0005618059
0.01263316,-0.0020775325,-11.755371,-0.9835274,-0.25104338,-44.319153,-0.00018623471,0.0001373291,-0.004599519,-4.5776367e-05,-4.5776367e-05,-2.746582,-0.00017166138,9.815353,0.009567261,-0.23928833,9.803436,-0.00090850797
0.012621463,-0.0021100955,-11.579895,-0.9835564,-0.25093353,-44.299316,-5.954504e-05,-0.00010681152,-0.0038898368,0.00032043457,-0.00010681152,-2.3345947,-0.0005950928,9.800995,0.0,-0.24885559,9.803438,0.0010214017
0.0126536535,-0.0021156496,-11.84082,-0.98356676,-0.25157425,-43.04657,-0.0013307631,7.6293945e-05,-0.0038813092,-3.0517578e-05,0.0001373291,-2.8198242,-0.0003976822,9.805786,-0.009567261,-0.25602722,9.803422,0.0002956388
0.012665304,-0.0021059439,-11.810303,-0.9835595,-0.2517645,-44.33899,-0.00091072917,1.5258789e-05,-0.0041197366,-0.00021362305,1.5258789e-05,-2.507019,4.5776367e-05,9.800995,-0.0047912598,-0.2416687,9.803416,-0.00042721396
0.0126516875,-0.002119561,-11.180115,-0.98357016,-0.2515502,-44.04297,0.0010429919,-4.5776367e-05,-0.0037942086,-3.0517578e-05,1.5258789e-05,-2.8778076,0.0013179779,9.762711,-0.0023956299,-0.23449707,9.803422,0.0004529385
0.0124913305,-0.0020929717,-11.730957,-0.98351926,-0.24836226,-43.649292,-7.599592e-06,0.00050354004,-0.0038137957,-0.0005340576,0.0014190674,-2.3376465,-0.0010881424,9.808182,-0.007171631,-0.23928833,9.803504,0.0023796645
0.012509739,-0.0020481204,-11.51123,-0.9834797,-0.24855764,-44.206238,0.00020892918,7.6293945e-05,-0.004798388,-0.00016784668,0.00019836426,-2.4124146,0.0016698837,9.791428,-0.0143585205,-0.23210144,9.803499,-0.0021437076
0.012484072,-0.0020507518,-11.300659,-0.98347807,-0.24807186,-43.93463,0.0016371608,-4.5776367e-05,-0.004659414,7.6293945e-05,-0.000289917,-2.481079,-0.0006303787,9.810577,-0.0023956299,-0.24406433,9.803511,-0.00013137143
0.012520532,-0.002093065,-11.81488,-0.983524,-0.2489259,-43.658447,-0.0020383447,-4.5776367e-05,-0.0039081834,-0.00021362305,-4.5776367e-05,-2.5024414,0.001326561,9.808182,-0.01914978,-0.24645996,9.803489,0.0020015072
0.012509703,-0.0020210133,-10.48584,-0.983454,-0.24846019,-42.155457,0.001572758,9.1552734e-05,-0.005356594,-0.00015258789,-4.5776367e-05,-3.1555176,0.0002593994,9.805786,-0.011962891,-0.24885559,9.803501,-0.0030194991
0.012527293,-0.0020398444,-12.089539,-0.9834747,-0.24886672,-43.980408,-0.0013649464,-4.5776367e-05,-0.0050268294,-4.5776367e-05,-4.5776367e-05,-3.3996582,0.0009622574,9.808182,0.0,-0.2536316,9.803491,0.00072502764
0.012532047,-0.002074748,-10.421753,-0.9835085,-0.24908285,-46.133423,2.117455e-05,7.6293945e-05,-0.004323507,3.0517578e-05,7.6293945e-05,-1.574707,-0.0015926361,9.815353,-0.01914978,-0.24885559,9.803485,0.0016996558
0.012533514,-0.0021240276,-6.0791016,-0.98355544,-0.24928635,-38.89618,-0.00071434677,-4.5776367e-05,-0.003313087,-9.1552734e-05,-4.5776367e-05,-11.061096,0.00053310394,9.796219,0.011962891,-0.25125122,9.80348,0.0013910786
0.0125191165,-0.0021122152,-7.8338623,-0.98354197,-0.24896671,-28.98407,0.0003824234,-0.00010681152,-0.0035090072,0.00038146973,7.6293945e-05,-22.08252,-0.0013971329,9.7986145,0.007171631,-0.25842285,9.80349,-0.0007935886
0.012518695,-0.0021249389,-16.792297,-0.98355395,-0.24900372,-30.941772,0.00086420774,-0.00010681152,-0.0032454892,3.0517578e-05,-0.00010681152,-24.34082,-0.0022058487,9.8033905,-0.007171631,-0.25125122,9.803488,0.00037682266
0.012531694,-0.002143942,-22.776794,-0.983574,-0.24932195,-45.93048,-0.0009571165,-0.00010681152,-0.002896786,9.1552734e-05,0.0001373291,-21.826172,0.0009174347,9.793823,-0.009567261,-0.24885559,9.803481,0.00027240044
0.0124930795,-0.0021175605,-20.179749,-0.9835428,-0.2484834,-50.177002,0.0018114746,1.5258789e-05,-0.0033130737,-4.5776367e-05,-0.00016784668,-8.47168,0.0017318726,9.812973,-0.0023956299,-0.24645996,9.803501,-0.0007605939
0.012494026,-0.002112025,-16.279602,-0.98353773,-0.24848199,-48.52295,-0.0003246367,-0.00010681152,-0.0034302217,0.0001373291,7.6293945e-05,-5.5511475,0.0013151169,9.805786,-0.009567261,-0.24885559,9.803501,-0.0006431991
0.012549773,-0.0021214006,-13.998413,-0.98355556,-0.24959071,-48.524475,-0.0015976727,-0.00016784668,-0.0034207718,-4.5776367e-05,-0.00010681152,-5.2093506,0.0010347366,9.7005005,-0.055038452,-0.3062744,9.803473,-0.00040832278
0.012504491,-0.002129856,-14.790344,-0.9835563,-0.24874718,-49.08142,0.0025859028,-0.00010681152,-0.003097398,-9.1552734e-05,-0.00022888184,-2.9174805,-0.00057411194,9.829712,-0.0023956299,-0.25602722,9.803494,-1.4716061e-05
0.012552871,-0.002120713,-15.843201,-0.98355544,-0.249648,-49.80011,-0.0013330877,-4.5776367e-05,-0.0034451436,-0.00015258789,-0.00022888184,-3.5324097,-0.0022916794,9.8033905,-0.011962891,-0.25125122,9.803471,-0.0006285941
0.012560668,-0.0020914935,-15.246582,-0.98352903,-0.24969457,-49.64447,0.00012628734,1.5258789e-05,-0.00407289,0.00019836426,-4.5776367e-05,-4.3884277,-0.0016889572,9.8033905,-0.009567261,-0.24406433,9.80347,-0.0009471788
0.012577632,-0.002112534,-15.594482,-0.9835516,-0.25009662,-48.62671,-0.0008915067,7.6293945e-05,-0.0036952381,7.6293945e-05,1.5258789e-05,-5.1208496,0.0011110306,9.800995,-0.009567261,-0.2416687,9.803459,0.00058272504
0.012502204,-0.0021248301,-14.128113,-0.98355114,-0.24868521,-48.532104,0.0010250062,0.0001373291,-0.0031933943,3.0517578e-05,-0.00010681152,-3.8482666,-0.0007829666,9.784256,-0.007171631,-0.2368927,9.803495,-0.0008806356
0.012531326,-0.002106931,-15.098572,-0.9835389,-0.24918343,-49.990845,0.00034065545,-4.5776367e-05,-0.00365811,-3.0517578e-05,-0.00022888184,-4.385376,0.0006084442,9.8033905,-0.0023956299,-0.24885559,9.803483,-0.00064468035
0.012544844,-0.0021282516,-15.292358,-0.9835613,-0.24951993,-49.069214,-0.00050766766,0.00019836426,-0.0032633736,-0.00015258789,-0.00016784668,-3.9031982,0.00040721893,9.7986145,-0.007171631,-0.24406433,9.803474,0.0018292849
0.012560142,-0.0021323718,-15.182495,-0.9835676,-0.24982966,-49.023438,-0.00044244528,7.6293945e-05,-0.0032288514,-9.1552734e-05,-4.5776367e-05,-4.46167,-4.2915344e-05,9.8033905,0.0047912598,-0.24885559,9.803467,-0.00035673403
0.012559998,-0.002129468,-15.795898,-0.98356485,-0.2498166,-48.799133,8.046627e-07,-4.5776367e-05,-0.0032882136,-9.1552734e-05,1.5258789e-05,-3.7612915,-0.0013113022,9.7986145,-0.007171631,-0.24885559,9.803468,-0.00029758713
0.012603346,-0.002114806,-16.192627,-0.98355794,-0.25060076,-48.934937,-0.0016060174,-4.5776367e-05,-0.0037330962,-3.0517578e-05,1.5258789e-05,-4.2633057,-0.00087451935,9.805786,-0.0047912598,-0.24885559,9.803447,-0.0010583051
0.012583807,-0.0021168282,-15.463257,-0.9835567,-0.250231,-49.086,0.0006594062,-4.5776367e-05,-0.0036270793,-3.0517578e-05,-4.5776367e-05,-4.3136597,0.0008506775,9.789032,-0.0047912598,-0.24885559,9.803456,-0.00020286022
0.01259766,-0.0021067203,-14.137268,-0.98354936,-0.25046232,-48.87085,-0.0005362034,-0.00010681152,-0.003881006,0.00019836426,1.5258789e-05,-2.9663086,0.00056648254,9.793823,-0.007171631,-0.25125122,9.803451,-0.0011390033
0.012598124,-0.0020911745,-15.394592,-0.98353475,-0.250416,-49.29657,0.0005736649,-4.5776367e-05,-0.0042029144,7.6293945e-05,0.0001373291,-4.3914795,-0.002650261,9.808182,-0.0047912598,-0.25125122,9.803452,-0.00034463173
0.012624216,-0.0020850634,-15.815735,-0.98353314,-0.25089762,-49.01581,-0.0010715425,1.5258789e-05,-0.0044148318,-9.1552734e-05,-0.00022888184,-4.0863037,0.0019044876,9.812973,0.0,-0.2536316,9.803439,-0.00013230136
0.012649414,-0.0020862324,-15.226746,-0.98353827,-0.2513879,-48.599243,-0.00057700276,-4.5776367e-05,-0.0044737486,-9.1552734e-05,-0.00010681152,-3.9779663,0.00031661987,9.810577,0.0023956299,-0.24645996,9.803427,-0.00054633105
0.012660491,-0.0021251852,-15.490723,-0.9835769,-0.25174,-49.224854,-6.7055225e-06,-4.5776367e-05,-0.0037072308,-0.00021362305,-0.00010681152,-4.7180176,-0.0020208359,9.7986145,-0.0143585205,-0.24645996,9.803417,0.002028433
0.012637784,-0.0021111153,-13.847351,-0.98355997,-0.251252,-49.48883,0.00093224645,0.0002746582,-0.0039225463,-0.00021362305,1.5258789e-05,-3.0395508,-0.0005540848,9.7986145,-0.01675415,-0.23928833,9.803431,-0.00015201606
0.012573026,-0.0020742356,-14.982605,-0.98351467,-0.24987155,-48.67096,0.0007675737,7.6293945e-05,-0.004469229,-3.0517578e-05,0.00044250488,-4.6905518,0.0020151138,9.7986145,-0.009567261,-0.24885559,9.803465,-0.0005509886
0.012573061,-0.0020607235,-15.156555,-0.98350185,-0.24982408,-49.035645,-0.000216946,0.0001373291,-0.004747756,3.0517578e-05,1.5258789e-05,-4.058838,0.00069999695,9.791428,-0.007171631,-0.24885559,9.803466,-0.0002722959
0.01255025,-0.0020906609,-15.0177,-0.9835265,-0.24949063,-49.632263,0.00062930584,-4.5776367e-05,-0.0040557003,-9.1552734e-05,-4.5776367e-05,-5.343628,-0.0008058548,9.805786,-0.0047912598,-0.25125122,9.803475,0.0019041179
0.012552753,-0.0020629102,-14.622498,-0.98350066,-0.24944013,-48.973083,0.0003156513,0.0001373291,-0.004635705,7.6293945e-05,0.0001373291,-4.7592163,-0.0014925003,9.800995,-0.009567261,-0.24885559,9.803476,-0.0013462002
0.012548113,-0.0020282038,-14.942932,-0.983467,-0.24922682,-50.263977,0.00035390258,-4.5776367e-05,-0.00533539,-0.0002746582,-4.5776367e-05,-4.2999268,0.0005912781,9.774673,-0.0047912598,-0.23928833,9.803481,-0.00160773
0.012532733,-0.0020494447,-15.084839,-0.9834847,-0.24900591,-48.945618,0.00013791025,1.5258789e-05,-0.0048470343,-0.00045776367,7.6293945e-05,-4.055786,0.00039196014,9.796219,-0.0023956299,-0.25602722,9.803487,0.00077269645
0.01259366,-0.0020790582,-15.57312,-0.98352253,-0.2502868,-50.979614,-0.0014460087,-0.00010681152,-0.004437885,-0.00021362305,1.5258789e-05,-2.885437,0.0002708435,9.791428,0.0,-0.25602722,9.803455,0.0006077769
0.012599214,-0.0020888725,-16.467285,-0.9835327,-0.25042886,-53.404236,-0.00011143088,1.5258789e-05,-0.0042539425,-0.00021362305,-0.00022888184,-3.4240723,0.0001821518,9.815353,-0.0023956299,-0.24645996,9.803452,0.00042388076
0.012543086,-0.0020701978,-17.75055,-0.983506,-0.24927962,-54.901123,0.0018247515,-4.5776367e-05,-0.0044536646,-3.0517578e-05,-4.5776367e-05,-6.4712524,-0.0021104813,9.82254,-0.0047912598,-0.2536316,9.803481,-0.0005670772
0.012555788,-0.0020815239,-18.458557,-0.9835188,-0.24956498,-59.77478,-0.00071543455,7.6293945e-05,-0.0042622155,0.0001373291,0.0001373291,-8.953857,0.003373146,9.815353,0.0,-0.23928833,9.803473,0.00067656254
0.012562146,-0.002057893,-24.456787,-0.98349744,-0.24960345,-68.24188,-0.00041224062,-4.5776367e-05,-0.004770068,-0.00015258789,-4.5776367e-05,-14.593506,0.0016050339,9.812973,-0.009567261,-0.2536316,9.803472,-0.0009666616
0.012550522,-0.0018083933,-33.847046,-0.98325825,-0.24848339,-75.20447,-0.0003413111,0.0026397705,-0.009870656,-4.5776367e-05,0.00044250488,-18.519592,0.00203228,9.791428,-0.007171631,-0.25602722,9.803497,0.0036462974
0.012536531,-0.0018211175,-34.64508,-0.9832681,-0.24825947,-77.35138,0.0001527667,0.000579834,-0.0095621385,-0.00033569336,7.6293945e-05,-19.779968,6.9618225e-05,9.805786,-0.009567261,-0.26081848,9.803502,-0.0019265078
0.012559981,-0.0016374766,-35.687256,-0.9830963,-0.24804462,-77.88086,-0.0010286868,0.0005645752,-0.013421166,-0.0002746582,0.0001373291,-21.276855,-0.00043964386,9.800995,-0.007171631,-0.24406433,9.803503,0.0031381706
0.012536506,-0.0016772344,-35.54077,-0.9831305,-0.24773686,-78.526306,0.0010511428,0.0012969971,-0.012524341,-0.0013275146,0.0002593994,-21.354675,-0.00060653687,9.808182,-0.007171631,-0.24885559,9.803514,-0.0018332489
0.012512402,-0.0018347739,-35.090637,-0.9832772,-0.24784334,-78.593445,-0.0005157739,-0.0019989014,-0.009200756,-0.0005340576,-0.00010681152,-21.176147,0.00038337708,9.8033905,-0.009567261,-0.24885559,9.803514,-0.00036563445
0.012470397,-0.0018369681,-36.665344,-0.9832724,-0.24704093,-78.359985,0.001318261,-4.5776367e-05,-0.0090159625,-0.00021362305,0.00032043457,-21.806335,-0.00022506714,9.796219,-0.007171631,-0.2416687,9.803534,0.00016659964
0.012490345,-0.0018459742,-35.868835,-0.98328424,-0.24745826,-79.47388,0.00029546022,-4.5776367e-05,-0.008896863,-0.00033569336,-0.00022888184,-22.02301,-0.00045585632,9.805786,-0.0023956299,-0.24885559,9.803523,4.7280453e-05
0.01255088,-0.0018207155,-36.112976,-0.98327005,-0.24853483,-77.5238,-0.0014998466,7.6293945e-05,-0.009618103,3.0517578e-05,-0.00035095215,-21.052551,-0.00029850006,9.810577,-0.0047912598,-0.25602722,9.803495,-0.00091003254
0.012597432,-0.0018129483,-34.73816,-0.9832703,-0.24940483,-77.91443,-0.0018229634,0.00019836426,-0.009932755,-9.1552734e-05,1.5258789e-05,-21.235657,0.00091934204,9.800995,-0.009567261,-0.24885559,9.803473,-0.00035073608
0.012574024,-0.0018105179,-35.827637,-0.9832641,-0.24894445,-77.83661,0.0013229996,7.6293945e-05,-0.009905023,-0.00015258789,1.5258789e-05,-21.202087,0.00045394897,9.7986145,-0.011962891,-0.25125122,9.803485,0.0008119261
0.0125750145,-0.0018076751,-35.092163,-0.9832616,-0.24895325,-77.61688,-0.00010368228,0.0001373291,-0.00996686,-0.00015258789,-0.00010681152,-21.087646,0.0011053085,9.812973,-0.007171631,-0.2536316,9.803484,-8.6969696e-05
0.0125938235,-0.0018279086,-35.968018,-0.98328394,-0.24938926,-77.267456,-0.00040976703,-4.5776367e-05,-0.00961263,-9.1552734e-05,-4.5776367e-05,-21.043396,-0.0019760132,9.805786,-0.0143585205,-0.24406433,9.803473,0.000519081
0.012585935,-0.0018147633,-35.41565,-0.9832701,-0.24918957,-78.56293,0.000589177,1.5258789e-05,-0.00985717,-0.00015258789,-4.5776367e-05,-21.672058,-0.0005226135,9.8033905,-0.0047912598,-0.24645996,9.803478,-0.00042681675
0.012598507,-0.0018240978,-35.6781,-0.9832811,-0.24946585,-77.58331,-0.00058318675,-4.5776367e-05,-0.009706678,0.0001373291,1.5258789e-05,-21.11206,-0.0011425018,9.7986145,-0.0143585205,-0.25602722,9.803472,0.00013928954
0.0126498565,-0.0018455426,-36.48987,-0.98330986,-0.2505339,-78.463745,-0.002168119,1.5258789e-05,-0.009435355,0.0001373291,-4.5776367e-05,-20.271301,-0.0010881424,9.7986145,-0.007171631,-0.25125122,9.803445,0.00082877744
0.012635476,-0.0018362192,-36.569214,-0.98329866,-0.25022283,-79.226685,0.00036993623,1.5258789e-05,-0.009579723,-0.00033569336,0.0001373291,-20.4422,-0.0015211105,9.800995,-0.0047912598,-0.2536316,9.8034525,-0.00047719758
0.012650939,-0.0018651254,-35.803223,-0.9833287,-0.25062543,-78.37372,-0.0011230409,1.5258789e-05,-0.009035471,-3.0517578e-05,-4.5776367e-05,-20.884705,0.0008955002,9.805786,-0.009567261,-0.25125122,9.803443,0.00090166274
0.012618525,-0.0019044196,-34.47876,-0.9833608,-0.2501416,-78.141785,0.0013015568,-0.00010681152,-0.008118457,3.0517578e-05,7.6293945e-05,-21.78955,0.003153801,9.800995,-0.011962891,-0.24645996,9.803456,0.0018933769
0.0126495175,-0.0019044897,-35.68878,-0.9833659,-0.25073975,-77.682495,-0.0005136132,7.6293945e-05,-0.008219666,-9.1552734e-05,-0.00022888184,-22.402954,-0.0014009476,9.8033905,0.007171631,-0.25125122,9.803441,-0.0001574792
0.0126510095,-0.0018895632,-36.280823,-0.98335195,-0.2507148,-77.241516,-0.00027769804,-4.5776367e-05,-0.008532171,-0.00015258789,-4.5776367e-05,-21.380615,0.0013017654,9.793823,-0.0023956299,-0.24645996,9.803441,-0.0008057114
0.012556594,-0.0018256493,-35.65674,-0.9832757,-0.24866289,-77.59094,0.0024432242,7.6293945e-05,-0.009535489,3.0517578e-05,0.00044250488,-20.791626,-0.0013847351,9.805786,-0.009567261,-0.25125122,9.803493,-0.0014815042
0.012522589,-0.0017993024,-34.95331,-0.983245,-0.24791163,-77.508545,0.0012057871,7.6293945e-05,-0.009964953,-3.0517578e-05,7.6293945e-05,-21.162415,0.00019359589,9.808182,-0.0143585205,-0.24885559,9.803511,-0.00056368206
0.012516924,-0.0018039534,-35.035706,-0.98324853,-0.24781916,-77.864075,0.0007041991,0.00038146973,-0.009850349,-3.0517578e-05,0.0001373291,-20.281982,0.0050783157,9.805786,-0.01914978,-0.24406433,9.803513,-0.00091988593
0.012552529,-0.0019577383,-36.279297,-0.9834008,-0.24955179,-77.04773,-0.0014782697,-0.0016937256,-0.0067842924,3.0517578e-05,-0.00010681152,-22.424316,-0.0015745163,9.805786,-0.007171631,-0.25125122,9.8034725,-0.00063210353
0.012587363,-0.0020116845,-63.57727,-0.9834577,-0.24992497,-51.85547,-0.0006106645,-4.5776367e-05,-0.0058053737,-0.00021362305,7.6293945e-05,-26.560974,0.0016679764,9.800995,-0.0047912598,-0.24406433,9.803463,0.002219522
0.012515276,-0.0020312725,-64.627075,-0.9834646,-0.24860433,-31.304932,0.0026048124,1.5258789e-05,-0.0051637036,-0.00033569336,7.6293945e-05,-13.653564,-0.0008010864,9.7986145,-0.007171631,-0.25125122,9.803497,0.0013334863
0.01254158,-0.0020369682,-64.87427,-0.98347425,-0.24913208,-43.91327,-0.00067964196,1.5258789e-05,-0.0051332614,-3.0517578e-05,-0.00010681152,-0.1663208,0.0013818741,9.810577,-0.0047912598,-0.24406433,9.803484,-0.00013091462
0.012527667,-0.0020803588,-56.24695,-0.9835132,-0.24901833,-47.99347,0.0006403029,-0.00022888184,-0.0041934727,3.0517578e-05,-0.00016784668,9.591675,-3.1471252e-05,9.8033905,0.0,-0.24885559,9.803487,0.00036359346
0.012518257,-0.002083856,-56.32782,-0.98351496,-0.24884923,-50.71106,0.00072702765,-0.00033569336,-0.0040903883,3.0517578e-05,-4.5776367e-05,9.165955,0.0009384155,9.805786,-0.0047912598,-0.24885559,9.803491,-0.000456464
0.012566232,-0.002090845,-56.729126,-0.98352927,-0.24979962,-51.8219,-0.0014532506,-0.00010681152,-0.0041045933,-9.1552734e-05,-0.00010681152,8.494568,-0.0014467239,9.8033905,0.0,-0.25842285,9.803468,-0.00044255285
0.0125409635,-0.002086133,-56.985474,-0.98352075,-0.24929538,-52.078247,0.001165092,1.5258789e-05,-0.004118371,-3.0517578e-05,-0.00010681152,7.9177856,0.00079631805,9.8033905,0.0,-0.24645996,9.80348,4.4408254e-05
0.012562856,-0.0020767206,-57.434082,-0.9835154,-0.2496842,-52.355957,-0.00059877336,0.0001373291,-0.004384487,0.00019836426,-4.5776367e-05,8.782959,-0.0001077652,9.800995,-0.0143585205,-0.24406433,9.80347,0.0005546529
0.012516675,-0.0020464296,-57.35016,-0.9834792,-0.24868539,-52.494812,0.0014995337,-4.5776367e-05,-0.004856117,1.5258789e-05,0.0001373291,8.944702,-0.0011949539,9.800995,-0.007171631,-0.25125122,9.803495,-0.0013696393
0.012579227,-0.002072529,-57.678223,-0.983514,-0.2499851,-53.63617,-0.0026920587,7.6293945e-05,-0.0045248433,-4.5776367e-05,-4.5776367e-05,9.326172,0.0012779236,9.810577,-0.007171631,-0.25842285,9.803462,0.0009391797
0.012621009,-0.00208983,-57.437134,-0.98353714,-0.2508527,-52.4292,-0.0015728772,1.5258789e-05,-0.00430602,-0.00016784668,1.5258789e-05,8.700562,0.0005378723,9.8033905,0.0,-0.24645996,9.80344,0.00023219502
0.01261952,-0.0020772628,-57.47986,-0.983525,-0.25077927,-52.305603,0.00028178096,7.6293945e-05,-0.004560126,-0.00033569336,1.5258789e-05,9.181213,0.0016317368,9.808182,-0.0023956299,-0.25125122,9.803443,-0.00023046928
0.012618566,-0.0020726742,-57.670593,-0.9835205,-0.2507445,-53.18756,1.5765429e-05,1.5258789e-05,-0.004651549,-0.00015258789,-4.5776367e-05,9.489441,-0.00018405914,9.805786,-0.0023956299,-0.24406433,9.803442,-0.00013907626
0.012606803,-0.0021106175,-56.72455,-0.98355454,-0.25065258,-51.94397,-0.0008008778,1.5258789e-05,-0.0038308068,-0.00021362305,0.00019836426,9.622192,-0.0006093979,9.800995,-0.007171631,-0.24885559,9.803446,0.0016797245
0.012620247,-0.0021041012,-56.419373,-0.9835505,-0.25088876,-52.416992,-0.00032249093,-4.5776367e-05,-0.0040093753,-4.5776367e-05,1.5258789e-05,9.791565,0.0010290146,9.810577,-0.0047912598,-0.25125122,9.80344,-0.0005371049
0.0126031265,-0.00213412,-56.344604,-0.9835762,-0.25066507,-51.9516,0.00016531348,1.5258789e-05,-0.0033343097,-9.1552734e-05,1.5258789e-05,9.880066,-0.00043582916,9.808182,-0.0047912598,-0.24885559,9.803445,0.0014121588
0.012584385,-0.002122241,-56.503296,-0.98356193,-0.2502614,-52.426147,0.000500232,7.6293945e-05,-0.0035174394,7.6293945e-05,0.0001373291,9.625244,0.000500679,9.800995,0.0,-0.2536316,9.803456,0.00016107457
0.012634364,-0.002139806,-56.993103,-0.98358655,-0.25128788,-53.46985,-0.0018454492,7.6293945e-05,-0.0033198828,-9.1552734e-05,-4.5776367e-05,8.711243,-0.0012521744,9.7986145,-0.0023956299,-0.24885559,9.80343,0.0004515634
0.012655894,-0.002118653,-56.956482,-0.98357,-0.25162813,-51.00708,-0.00077185035,7.6293945e-05,-0.0038267672,-9.1552734e-05,-4.5776367e-05,9.536743,0.0012397766,9.8033905,-0.007171631,-0.24885559,9.80342,-0.00047558127
0.0126706585,-0.0021043727,-57.211304,-0.98355883,-0.25186223,-52.6886,-0.00029313564,-4.5776367e-05,-0.004169749,0.00015258789,-4.5776367e-05,8.790588,2.3841858e-05,9.808182,-0.0047912598,-0.2536316,9.803414,-0.0010938393
0.012647655,-0.0020975494,-57.310486,-0.9835487,-0.25139418,-53.938293,0.00066286325,-4.5776367e-05,-0.0042346762,3.0517578e-05,0.0001373291,9.338379,-0.0007801056,9.805786,0.0023956299,-0.24645996,9.803426,-6.7770015e-05
0.012638247,-0.0021250625,-53.196716,-0.9835732,-0.25131047,-52.209473,-0.00061658025,7.6293945e-05,-0.0036365702,-4.5776367e-05,7.6293945e-05,7.8445435,0.00074481964,9.810577,0.0047912598,-0.24645996,9.80343,0.0014856788
0.012598252,-0.0021098885,-33.04901,-0.98355246,-0.25048503,-50.534058,0.00093099475,7.6293945e-05,-0.0038176693,7.6293945e-05,0.0002593994,0.77667236,-0.0017375946,9.800995,-0.007171631,-0.25125122,9.803451,0.0007051616
0.012586055,-0.0021063965,-22.866821,-0.9835472,-0.25023732,-49.41864,-0.00074744225,0.00015258789,-0.0038494593,0.00019836426,0.00019836426,-1.6647339,0.00026512146,9.7986145,-0.0047912598,-0.24885559,9.803456,-0.00069731637
0.012604504,-0.0021162475,-23.625183,-0.9835595,-0.2506282,-48.65265,-0.00060233474,-0.00010681152,-0.0037072,7.6293945e-05,0.0001373291,-2.0141602,-0.00014781952,9.800995,-0.007171631,-0.2536316,9.803446,0.000121690566
0.012589061,-0.0021338433,-23.39325,-0.9835736,-0.25039276,-50.585938,0.00038260221,7.6293945e-05,-0.0032937287,3.0517578e-05,1.5258789e-05,-5.317688,0.0011825562,9.7986145,-0.0047912598,-0.25125122,9.8034525,0.00065442664
0.012569802,-0.0021576448,-23.606873,-0.98359305,-0.25010562,-52.91443,-0.00015512109,1.5258789e-05,-0.0027398432,-0.0002746582,7.6293945e-05,-6.6314697,-6.67572e-06,9.8033905,-0.0023956299,-0.24885559,9.803459,0.00034453277
0.01255952,-0.0021564255,-21.990967,-0.98359025,-0.24990296,-53.242493,0.00035500526,-0.00010681152,-0.002731142,7.6293945e-05,1.5258789e-05,-5.355835,-0.000330925,9.800995,0.0023956299,-0.2536316,9.803465,-0.00038137962
0.012551265,-0.0021055772,-23.905945,-0.98354083,-0.24956326,-55.751038,0.00046411157,-4.5776367e-05,-0.0037517177,0.00019836426,7.6293945e-05,-7.069397,-0.0030918121,9.805786,-0.011962891,-0.24406433,9.803473,-0.0019858077
0.012566509,-0.0021173812,-24.423218,-0.9835544,-0.24989928,-57.099915,-0.0008292049,1.5258789e-05,-0.003558714,-9.1552734e-05,7.6293945e-05,-6.2179565,0.0038385391,9.7986145,-0.0047912598,-0.24885559,9.803466,0.00044641155
0.012562087,-0.0020874091,-23.846436,-0.9835254,-0.24970742,-55.926514,0.00014267862,0.00019836426,-0.004161722,3.0517578e-05,1.5258789e-05,-6.184387,-0.0020723343,9.810577,-0.009567261,-0.24885559,9.80347,-0.00038526347
0.012580083,-0.0020828347,-24.33014,-0.9835239,-0.2500383,-56.297302,-4.6789646e-06,3.0517578e-05,-0.004315306,0.00015258789,1.5258789e-05,-6.932068,-0.00040912628,9.808182,-0.007171631,-0.25842285,9.803461,-0.00047590537
0.012619177,-0.0020614064,-24.523926,-0.98350996,-0.25071615,-56.05011,-0.0012259483,1.5258789e-05,-0.0048857867,-0.00021362305,-0.00016784668,-6.5353394,0.0018033981,9.815353,0.0,-0.24406433,9.803443,-0.001339287
0.012592137,-0.0021079916,-25.07019,-0.98354965,-0.2503603,-56.33545,0.0010789335,-0.00010681152,-0.003836619,-3.0517578e-05,-0.00010681152,-5.99823,0.0016736984,9.808182,0.0023956299,-0.2416687,9.803453,0.001929994
0.012612499,-0.0021181917,-23.79303,-0.9835626,-0.25078937,-55.451965,-0.00089743733,-0.00010681152,-0.0036934505,-3.0517578e-05,-4.5776367e-05,-6.4208984,-0.0007972717,9.812973,-0.0047912598,-0.24885559,9.803443,-0.00013595447
0.012614853,-0.0021575156,-24.716187,-0.98360014,-0.25097427,-56.0318,1.8298626e-05,-4.5776367e-05,-0.0028906695,7.6293945e-05,-4.5776367e-05,-6.1431885,0.0010690689,9.7986145,-0.0023956299,-0.2536316,9.803438,0.0009839095
0.012602466,-0.0021769954,-22.30072,-0.98361653,-0.2508043,-55.247498,0.00079002976,-0.00016784668,-0.002448431,0.00044250488,-4.5776367e-05,-5.8670044,-0.0015115738,9.800995,0.0,-0.24885559,9.803443,5.310867e-05
0.012569145,-0.002163477,-24.266052,-0.9835985,-0.2501136,-55.82733,0.0013005435,-0.00022888184,-0.0026174888,0.0002593994,-4.5776367e-05,-7.006836,0.00090408325,9.810577,-0.007171631,-0.2536316,9.803459,-0.0004948592
0.012559588,-0.0021489977,-23.246765,-0.9835833,-0.24987796,-55.32074,-0.00034350157,-0.00010681152,-0.0028844303,0.0002593994,-0.00010681152,-6.958008,0.0020303726,9.808182,-0.007171631,-0.25125122,9.803466,-0.00045645447
0.012565558,-0.0021492806,-23.527527,-0.98358446,-0.2499941,-54.934692,-0.00024864078,0.00019836426,-0.0028982458,7.6293945e-05,0.0002593994,-6.7245483,-0.0016784668,9.7986145,-0.009567261,-0.24645996,9.803462,0.00027428125
0.012547535,-0.0021068575,-23.576355,-0.9835414,-0.24949586,-55.78308,0.0014060736,1.5258789e-05,-0.0037130432,7.6293945e-05,1.5258789e-05,-6.4926147,0.00015640259,9.808182,0.0,-0.25125122,9.803475,-0.0013216338
0.012551432,-0.0021083835,-23.18573,-0.9835435,-0.24957643,-55.496216,-0.00043144822,1.5258789e-05,-0.0036944456,0.0002593994,-0.00010681152,-6.0699463,-0.0008544922,9.815353,-0.0023956299,-0.24885559,9.8034725,0.000109191285
0.0125667155,-0.0021001047,-22.943115,-0.98353815,-0.24984188,-54.333496,-0.0006327927,7.6293945e-05,-0.00391539,3.0517578e-05,0.00019836426,-5.569458,0.0016679764,9.789032,-0.009567261,-0.25125122,9.803467,-0.00038665812
0.012589547,-0.0020770202,-23.747253,-0.98352,-0.25020018,-54.9469,-0.00051534176,-4.5776367e-05,-0.0044663255,0.00015258789,-0.00016784668,-5.6884766,-0.0009622574,9.846466,-0.050247192,-0.28234863,9.803457,-0.0012701331
0.012633471,-0.0019548817,-24.137878,-0.9834112,-0.25061113,-57.069397,-0.0013237,0.0012969971,-0.007128194,-3.0517578e-05,0.0001373291,-7.411194,-0.0011224747,9.8033905,-0.007171631,-0.2536316,9.803445,0.0016207262
0.012563841,-0.0019997158,-26.417542,-0.9834425,-0.24942842,-60.10437,0.0030056387,0.00019836426,-0.0059742355,-3.0517578e-05,-4.5776367e-05,-9.147644,0.00037574768,9.805786,-0.0047912598,-0.25125122,9.803475,0.0014280067
0.012572488,-0.0019799243,-28.587341,-0.98342514,-0.2495244,-62.16278,-0.00048488379,0.00015258789,-0.0064105513,0.00032043457,-0.00010681152,-10.221863,-6.67572e-05,9.789032,-0.0023956299,-0.25125122,9.8034725,0.0016202289
0.0125303725,-0.0019396968,-29.014587,-0.9833801,-0.24856773,-61.77368,0.0011716336,0.00088500977,-0.0070997737,0.0001373291,0.0001373291,-8.950806,-0.0008544922,9.7986145,-0.011962891,-0.2416687,9.803496,0.00015774323
0.012546049,-0.0019619975,-28.919983,-0.9834038,-0.24895014,-61.499023,-0.0005943626,3.0517578e-05,-0.006692363,3.0517578e-05,0.0002593994,-9.667969,0.00022506714,9.812973,-0.0047912598,-0.24645996,9.803487,-0.0007226486
0.012549288,-0.0020148554,-29.475403,-0.9834545,-0.24920179,-61.958313,-0.0005786568,-0.0007171631,-0.005614254,-0.00016784668,-0.00010681152,-10.421753,0.000626564,9.808182,0.0,-0.2536316,9.803481,0.00010665273
0.012508416,-0.0020131348,-27.836609,-0.9834463,-0.2484072,-60.821533,0.0017482936,-0.00022888184,-0.005514608,-3.0517578e-05,-0.00010681152,-9.776306,0.00074481964,9.805786,-0.009567261,-0.2536316,9.803502,-0.00022169296
0.012570907,-0.0019988096,-28.094482,-0.9834428,-0.24956149,-61.419678,-0.0021224767,-0.00022888184,-0.006016257,0.0001373291,1.5258789e-05,-9.309387,-0.00045871735,9.8033905,-0.0023956299,-0.24645996,9.803472,-0.0016426835
0.012588946,-0.0019810614,-28.370667,-0.98342884,-0.24984598,-59.832764,-0.0006413162,7.6293945e-05,-0.0064415415,7.6293945e-05,-4.5776367e-05,-8.906555,0.00048732758,9.820145,-0.0143585205,-0.25125122,9.803465,0.0009343242
0.0125836,-0.0020615847,-27.009583,-0.98350435,-0.2500305,-58.610535,-0.00020632148,-0.00033569336,-0.004764778,7.6293945e-05,0.0001373291,-8.032227,0.00048732758,9.805786,-0.007171631,-0.24645996,9.803461,-0.0031382628
0.012558379,-0.002052008,-18.22815,-0.98349124,-0.24950981,-43.533325,0.0004903823,-0.001083374,-0.0048788856,-3.0517578e-05,-0.00016784668,-2.4612427,0.0009613037,9.810577,-0.0023956299,-0.24885559,9.803474,-0.0006130063
0.012580721,-0.0020827565,-15.182495,-0.98352396,-0.25005034,-41.719055,-0.001368314,-4.5776367e-05,-0.0043190257,0.00032043457,0.00019836426,-0.30059814,-0.00032806396,9.796219,-0.011962891,-0.24885559,9.803461,0.0009631533
0.012578039,-0.002089492,-14.024353,-0.9835299,-0.25002256,-40.608215,-0.00021672249,-4.5776367e-05,-0.004171394,-9.1552734e-05,7.6293945e-05,-1.3671875,-0.00085163116,9.808182,-0.0023956299,-0.24645996,9.803461,9.814231e-05
0.012523973,-0.002082137,-15.69519,-0.98351425,-0.2489534,-41.926575,0.001788348,-4.5776367e-05,-0.004144655,-0.00016784668,1.5258789e-05,-1.4511108,-0.0017642975,9.796219,-0.0023956299,-0.24645996,9.803489,-0.0006464035
0.012541412,-0.0020617126,-15.338135,-0.9834977,-0.2492171,-40.82794,-0.00081916153,-4.5776367e-05,-0.004622955,1.5258789e-05,0.0001373291,-2.5527954,-0.00022220612,9.810577,0.0,-0.2536316,9.803482,-0.0013583135
0.01254017,-0.0020465078,-14.944458,-0.9834831,-0.24913889,-41.06598,6.4998865e-05,-0.00010681152,-0.004932087,-3.0517578e-05,1.5258789e-05,-2.1362305,0.001285553,9.805786,-0.0023956299,-0.24885559,9.803483,-0.000804706
0.012528061,-0.002080627,-14.575195,-0.9835135,-0.24902688,-40.766907,0.0006586164,-4.5776367e-05,-0.0041892426,3.0517578e-05,1.5258789e-05,-2.0355225,-0.00088882446,9.796219,-0.0047912598,-0.25125122,9.803487,0.0017938535
0.012506181,-0.002089683,-15.834045,-0.98351854,-0.24863702,-42.259216,0.00097607076,7.6293945e-05,-0.003930524,7.6293945e-05,-4.5776367e-05,-1.3793945,-0.0007543564,9.810577,-0.007171631,-0.24885559,9.803496,0.0005736607
0.012505577,-0.0020556783,-15.068054,-0.9834862,-0.24850427,-41.255188,0.00016333163,1.5258789e-05,-0.004628968,3.0517578e-05,-4.5776367e-05,-1.8203735,0.0017347336,9.7986145,-0.009567261,-0.24885559,9.803499,-0.0015961267
0.012527564,-0.0020555,-14.74762,-0.9834896,-0.2489278,-40.26184,-0.00063605607,1.5258789e-05,-0.004705229,-0.00016784668,-4.5776367e-05,-2.3620605,-0.0013952255,9.805786,-0.0047912598,-0.25125122,9.80349,-0.00031474466
0.012519502,-0.0020481546,-14.414978,-0.9834813,-0.2487461,-41.601562,0.002337262,-4.5776367e-05,-0.004829919,0.00019836426,-0.000289917,-3.0014038,0.0033903122,9.7986145,-0.0143585205,-0.24406433,9.803494,-0.00018923031
0.01254457,-0.002055665,-14.553833,-0.9834925,-0.24925642,-40.852356,-0.000774011,-4.5776367e-05,-0.004757962,3.0517578e-05,-0.000289917,-1.7150879,-0.0028448105,9.800995,-0.007171631,-0.24885559,9.80348,0.00021113595
0.01255233,-0.0021019923,-14.215088,-0.9835376,-0.24957107,-42.347717,0.000488922,-0.00010681152,-0.0038290895,-4.5776367e-05,-0.00016784668,-2.2766113,0.00018787384,9.8033905,0.0,-0.25125122,9.803473,0.0012048471
0.012518756,-0.0021190145,-14.816284,-0.98354834,-0.24898386,-41.97693,0.00086826086,-0.00010681152,-0.0033677442,-0.00015258789,-0.00010681152,-1.4129639,0.0004377365,9.805786,0.0,-0.24406433,9.803488,0.00049940054
0.012541549,-0.002106229,-14.134216,-0.9835399,-0.24937813,-40.98053,-0.00016182661,-4.5776367e-05,-0.003706267,3.0517578e-05,1.5258789e-05,-2.017212,0.0007753372,9.805786,-0.009567261,-0.25125122,9.803477,-0.0008403647
0.012535984,-0.0020791031,-15.065002,-0.9835133,-0.24917433,-41.555786,0.000822857,-0.00010681152,-0.004246773,7.6293945e-05,-0.00016784668,-1.8234253,-0.00011062622,9.834503,0.01675415,-0.1986084,9.803484,-0.0014900016
0.0125361895,-0.0020614637,-14.147949,-0.9834966,-0.24911545,-41.427612,0.00029189885,7.6293945e-05,-0.004610848,7.6293945e-05,-0.00010681152,-2.2644043,8.010864e-05,9.7986145,-0.0047912598,-0.25125122,9.803485,-0.0008969819
0.012573264,-0.0020945421,-14.025879,-0.9835339,-0.2499484,-41.65802,-0.001496315,-0.00016784668,-0.00405159,7.6293945e-05,-0.00016784668,-1.5350342,0.00021743774,9.791428,-0.009567261,-0.23928833,9.803463,0.0009393706
0.012553359,-0.0020939165,-14.526367,-0.9835301,-0.24956219,-40.41443,0.0004913211,7.6293945e-05,-0.003998876,-3.0517578e-05,0.0001373291,-1.2283325,-0.00049877167,9.815353,-0.0023956299,-0.2536316,9.8034725,0.0006424049
0.012531239,-0.0020765825,-14.955139,-0.98351014,-0.24907379,-41.737366,0.00047661364,1.5258789e-05,-0.004283049,0.0001373291,7.6293945e-05,-2.381897,-0.0011301041,9.8033905,-0.007171631,-0.2536316,9.803486,-0.00073684705
0.01254654,-0.0020624674,-14.851379,-0.9834992,-0.24931869,-44.259644,-0.0005054921,1.5258789e-05,-0.0046243262,3.0517578e-05,7.6293945e-05,-1.1108398,-0.001709938,9.8033905,0.009567261,-0.24885559,9.803479,-0.00039594993
0.012519593,-0.0020664614,-15.301514,-0.9834987,-0.24881308,-42.69104,0.00044292212,1.5258789e-05,-0.00445312,-0.00021362305,0.0001373291,-1.1199951,0.0015611649,9.8033905,-0.009567261,-0.24885559,9.803492,0.00015036343
0.012551328,-0.0020497025,-13.613892,-0.9834879,-0.24936557,-42.881775,-0.0018716455,1.5258789e-05,-0.0049031083,0.00015258789,0.0001373291,-0.96435547,7.8201294e-05,9.805786,-0.007171631,-0.25125122,9.803478,-0.00083392067
0.012573088,-0.0020620225,-14.36615,-0.9835031,-0.24982923,-42.118835,-0.0011829883,1.5258789e-05,-0.0047210804,-4.5776367e-05,0.0001373291,-1.2329102,-0.001537323,9.805786,-0.007171631,-0.25125122,9.803466,0.0008910275
0.0125686545,-0.0020787215,-14.398193,-0.9835182,-0.24980319,-41.42914,0.00022633374,0.00019836426,-0.0043623825,-3.0517578e-05,0.0001373291,-1.6326904,8.4877014e-05,9.808182,-0.0023956299,-0.25842285,9.803467,0.0012495178
0.012552123,-0.002064077,-14.550781,-0.9835017,-0.24943215,-42.13257,0.0006095618,0.0001373291,-0.0046095853,-9.1552734e-05,-0.00010681152,-1.8051147,0.0029344559,9.789032,-0.009567261,-0.24885559,9.803477,0.0005360986
0.012591519,-0.0020896827,-14.294434,-0.98353225,-0.2502833,-41.200256,-0.0019295812,7.6293945e-05,-0.0042118877,-0.0002746582,1.5258789e-05,-1.1428833,-0.0026750565,9.8033905,-0.011962891,-0.24645996,9.803455,0.0003819256
0.012624814,-0.0020738475,-14.881897,-0.9835226,-0.25024664,-41.542053,0.00021639466,1.5258789e-05,-0.0049087345,7.6293945e-05,1.5258789e-05,-1.2512207,0.0012493134,9.808182,-0.007171631,-0.25125122,9.803456,-0.0013165469
0.012585976,-0.0020880653,-15.447998,-0.9835298,-0.2501706,-41.519165,0.00086301565,-0.00010681152,-0.0042269537,-0.00022888184,0.00019836426,-0.9536743,6.9618225e-05,9.8033905,-0.0023956299,-0.25125122,9.803457,0.0006414936
0.012609008,-0.0020971866,-14.530945,-0.98354214,-0.25064737,-40.592957,-0.0012827218,-4.5776367e-05,-0.004114868,-0.00021362305,-4.5776367e-05,-2.4353027,0.0013151169,9.772293,-0.100494385,-0.22253418,9.803446,0.00028554117
0.012684587,-0.0018437067,-14.997864,-0.9833138,-0.2511973,-42.111206,-0.0021448731,-0.00010681152,-0.009588381,0.0001373291,7.6293945e-05,-0.8590698,0.0016756058,10.203003,-5.367096,-0.73220825,9.803428,0.0004964527
-0.042780362,0.00975614,-13.551331,-0.9440009,0.85465103,-41.69159,-1.2916449,-0.25195312,0.09374949,0.5337982,0.055786133,-2.079773,1.0039902,8.626129,-6.197418,0.91645813,9.7688875,-1.7588909
0.08767197,0.12759295,-2.9647827,-0.94100875,-0.8651106,-40.92102,-0.65440226,0.6841278,-2.8722873,0.47520447,0.85292053,5.9539795,-0.8798933,8.752945,-5.2163544,-1.804184,9.336591,-1.8726408
-0.028361082,-0.16529943,11.054993,0.9857583,-0.5883436,-38.31787,-3.1822674,1.8964081,-3.18903,-1.1763306,-1.509552,6.590271,-0.3953886,10.717453,2.3234253,4.273575,9.254962,0.35049844
0.027217671,-0.010638687,-3.7719727,0.98940015,0.49848926,-40.290833,2.6066196,-1.3797455,-0.2823819,-2.962387,2.5629883,-11.61499,-0.45901012,9.664612,-0.35414124,3.529419,9.789901,1.1354318
0.003849519,0.01630872,-0.63934326,0.9990062,0.08863754,-36.34796,3.381662,-0.7083435,0.31643167,0.45309448,-0.21304321,-16.674805,0.22232723,9.1453705,-0.107681274,2.005188,9.801144,-1.4106951
0.009000451,0.005862515,0.79345703,0.9997788,0.17856883,-35.112,0.85256153,-0.08079529,0.11176555,0.8071594,0.15609741,-15.797424,-0.09178066,9.468399,0.5288086,-0.17945862,9.804387,-0.23304844
0.006754703,-0.01094425,1.9134521,0.99951875,0.12635888,-35.801697,-0.33391625,0.13856506,-0.21828938,-0.03517151,-0.24645996,-15.512085,0.24020958,9.789032,0.17228699,-0.2536316,9.803407,0.9487458
-0.0028036633,0.011213682,1.4480591,-0.9693499,0.10727896,-36.975098,-0.3636236,0.10862732,-0.1997012,0.0024719238,-0.006210327,-14.978027,-0.006129265,9.810577,0.17468262,-0.2536316,9.804029,0.37714472
-0.0016923244,0.010214668,1.8325806,-0.95509183,0.09102896,-36.532593,-0.3456697,0.00019836426,-0.18151715,7.6293945e-05,-4.5776367e-05,-14.639282,-0.018745422,9.841675,0.17945862,-0.25602722,9.804547,0.36252075
-0.0012160095,0.008950936,2.2354126,-0.9568714,0.07379819,-35.9787,-0.33250573,-0.0007171631,-0.1610605,-4.5776367e-05,0.0009918213,-15.09552,0.013062477,9.805786,0.18902588,-0.2536316,9.80505,0.33390903
-0.0006999056,0.007868546,1.8783569,-0.95853454,0.057121206,-36.810303,-0.31317586,-0.00033569336,-0.14401837,-9.1552734e-05,7.6293945e-05,-15.0390625,-0.0057840347,9.800995,0.18185425,-0.2632141,9.805426,0.32473636
0.0027893034,0.0011542576,1.9958496,-0.96814686,-0.047296885,-35.113525,-0.20896687,-4.5776367e-05,-0.035614505,-3.0517578e-05,-4.5776367e-05,-15.263367,-0.004172325,9.8033905,0.18185425,-0.24885559,9.806472,0.21675733
0.0053714737,-0.0031377373,1.1138916,-0.9736237,-0.11660957,-37.661743,-0.13821742,-0.00010681152,0.035889924,-9.1552734e-05,1.5258789e-05,-14.5980835,-0.0026283264,9.796219,0.18424988,-0.24645996,9.805891,0.14284843
0.0071936655,-0.0059695616,2.005005,-0.97693074,-0.16281646,-36.74164,-0.09247953,1.5258789e-05,0.08427967,7.6293945e-05,-4.5776367e-05,-14.230347,-0.0019044876,9.808182,0.17945862,-0.25125122,9.804936,0.096850134
0.009261229,-0.008998157,1.8798828,-0.9801968,-0.2129201,-36.961365,-0.03998941,0.0001373291,0.13709508,7.6293945e-05,1.5258789e-05,-15.040588,-0.0030841827,9.82254,0.18902588,-0.25602722,9.80338,0.043077543
0.009839291,-0.009665534,1.6036987,-0.9808961,-0.22607952,-35.853577,-0.02660203,1.5258789e-05,0.1485049,0.00019836426,-0.00010681152,-15.768433,-0.0011358261,9.817749,0.17228699,-0.2632141,9.802918,0.029989779
0.010342012,-0.010156769,1.612854,-0.98141295,-0.23719113,-37.40387,-0.019516468,0.0038146973,0.1566895,0.00019836426,7.6293945e-05,-14.735413,0.0019807816,9.808182,0.18424988,-0.2632141,9.802529,0.016290352
0.010647839,-0.010556679,1.3687134,-0.9818104,-0.24422936,-36.569214,-0.014864713,-0.0039520264,0.16375792,-0.00015258789,-0.00047302246,-16.105652,2.3841858e-05,9.832108,0.17706299,-0.2536316,9.80224,0.015669897
0.010817951,-0.010758767,1.1184692,-0.9820116,-0.2480727,-36.71875,-0.007215038,0.0054626465,0.16728698,0.00019836426,0.0005645752,-15.473938,-0.0022001266,9.851257,0.17228699,-0.26560974,9.802085,0.0054579824
0.010846069,-0.010590168,2.0309448,-0.98187035,-0.2481163,-36.512756,-0.004721716,-0.0048065186,0.16374835,-0.000289917,-0.0004119873,-15.995789,-0.014259338,9.793823,0.17468262,-0.26560974,9.802143,0.019640848
0.011130079,-0.010573333,1.8325806,-0.9818998,-0.2534947,-37.39319,-0.0043289065,0.008514404,0.16241464,0.00019836426,0.00019836426,-15.768433,0.021842003,9.8033905,0.16749573,-0.2632141,9.802028,-0.0074356943
0.011060338,-0.010621134,1.4968872,-0.9819303,-0.25230247,-36.04889,-0.002224356,-0.004623413,0.16363387,-9.1552734e-05,-0.00090026855,-15.209961,-0.0048007965,9.829712,0.12921143,-0.25602722,9.802038,0.006687656
0.011243934,-0.0103639765,1.449585,-0.9817364,-0.25504953,-36.676025,-0.0016077161,0.011077881,0.15773995,0.0005645752,0.0019073486,-14.89563,0.0015640259,9.779465,0.12921143,-0.2536316,9.802064,-0.0027340204
0.011254839,-0.010842002,1.222229,-0.9821501,-0.25666475,-36.341858,-0.0021342337,-0.008712769,0.16747344,-0.0004119873,-0.0024261475,-14.984131,0.0007133484,9.779465,0.16989136,-0.2679901,9.801861,-0.003626749
0.011262457,-0.010451026,2.2338867,-0.9818146,-0.25566292,-35.977173,-0.0007831454,0.0009918213,0.1594541,0.00019836426,0.00062561035,-15.098572,-0.0022382736,9.784256,0.16270447,-0.24645996,9.80202,0.008486599
0.011193703,-0.011003541,1.2039185,-0.98227906,-0.25596192,-35.432434,0.000731647,-0.008590698,0.17098768,-0.00015258789,-0.0005950928,-15.141296,-0.0017261505,9.8033905,0.15792847,-0.25842285,9.801818,0.003870532
0.004025371,-0.014823031,0.9567261,-0.73344815,-0.25547728,-36.410522,0.0007121265,0.0069885254,0.15958159,0.00032043457,0.0006866455,-14.593506,-0.00067424774,9.927826,0.17468262,-0.31106567,9.802024,0.0064349025
0.0036083378,-0.015394033,1.5975952,-0.7337174,-0.25701696,-36.528015,-0.0013042986,-0.0055999756,0.17345671,0.0002746582,-0.0015716553,-15.936279,0.0023155212,9.755539,0.18664551,-0.26560974,9.801747,-0.0065025836
0.0039778543,-0.015030232,1.9317627,-0.7336841,-0.2574975,-36.25946,-0.0013697445,0.0027770996,0.16328534,-3.0517578e-05,0.0011749268,-15.274048,-0.0044927597,9.808182,0.15792847,-0.25842285,9.801909,0.0027482212
0.0038641293,-0.015364862,1.8310547,-0.73401624,-0.26023442,-36.306763,-0.000795424,0.0043029785,0.16974369,7.6293945e-05,-0.00077819824,-14.63623,-0.0007610321,9.954147,0.117248535,-0.2679901,9.801727,-0.0077777654
0.0036737474,-0.015259521,1.5869141,-0.7336101,-0.2561939,-36.523438,0.0032354295,-0.009140015,0.17060891,7.6293945e-05,-0.00016784668,-16.096497,-0.005836487,9.793823,0.17228699,-0.25125122,9.801818,0.0043471754
0.003914943,-0.015092143,1.0635376,-0.7336897,-0.25741538,-37.49237,-0.0005106628,0.0050964355,0.16501664,0.00015258789,0.00038146973,-15.322876,0.0051498413,9.8033905,0.1603241,-0.2536316,9.801882,0.0015025437
0.003717749,-0.01529095,1.2115479,-0.7337142,-0.2572194,-37.61139,-0.00019577146,-0.0025482178,0.17051432,-9.1552734e-05,-0.0005340576,-15.316772,0.0017538071,9.777069,0.17706299,-0.24645996,9.801793,-0.0020880103
0.0037725312,-0.0152172875,2.1606445,-0.7336808,-0.25703508,-36.97357,8.761883e-05,0.0008239746,0.16871166,-3.0517578e-05,0.00038146973,-15.1901245,-0.00047779083,9.805786,0.17228699,-0.25602722,9.801829,0.0044944137
0.0037942326,-0.015200886,1.4328003,-0.73368603,-0.2571276,-37.61444,-0.0002784431,0.001373291,0.16818847,3.0517578e-05,0.00019836426,-14.181519,0.0011177063,9.7986145,0.16989136,-0.2536316,9.801836,-0.0014462024
0.0038395768,-0.015101679,1.9241333,-0.73360306,-0.25647917,-36.70807,-0.00091925263,-0.00010681152,0.16612525,-0.00021362305,1.5258789e-05,-15.438843,0.00052547455,9.839294,0.13877869,-0.24885559,9.8018875,0.0025350451
0.0038509553,-0.015354459,1.5457153,-0.73398364,-0.25991446,-35.572815,-0.007027,0.0030212402,0.16975684,-9.1552734e-05,0.0013580322,-15.527344,0.0028209686,9.736389,0.17945862,-0.25602722,9.801735,-0.0049526542
0.0037671404,-0.015010664,1.3824463,-0.7333749,-0.2542805,-34.587097,0.01125738,-0.0039520264,0.1656954,1.5258789e-05,-0.0010223389,-14.559937,-7.8201294e-05,9.805786,0.16749573,-0.24885559,9.801952,-0.0018474907
0.003656713,-0.015379112,1.2252808,-0.73376036,-0.25750342,-36.567688,0.0011386275,0.0007019043,0.17261378,3.0517578e-05,-0.0004119873,-14.985657,-0.014425278,11.160126,-0.021530151,-0.25842285,9.801749,-0.0005083084
0.003496904,-0.014931752,1.4022827,-0.7328999,-0.24945992,-36.972046,-0.0016489178,-0.0017547607,0.16798818,-0.00022888184,0.0030670166,-13.452148,0.018249512,9.791428,0.15553284,-0.279953,9.802038,0.0015631616
0.0035020197,-0.015084184,1.6738892,-0.7331272,-0.25150904,-39.985657,-0.007089287,0.00044250488,0.17019536,0.00015258789,0.0002593994,-14.108276,-0.006008148,9.82254,0.16270447,-0.26081848,9.801947,-0.0010676235
0.003625053,-0.01518208,2.0263672,-0.73343307,-0.25450626,-37.45575,-0.0031620562,-3.0517578e-05,0.17007707,-0.00016784668,0.00038146973,-15.116882,-0.0025453568,9.791428,0.17228699,-0.25842285,9.801871,-0.00068371
0.0036407844,-0.015194795,0.21362305,-0.73347247,-0.25489208,-37.75482,0.0005725026,0.00044250488,0.1700651,7.6293945e-05,-0.00022888184,-14.958191,0.0005378723,9.78186,0.18424988,-0.26081848,9.801862,0.00075791776
0.003581619,-0.015293032,2.5253296,-0.7335356,-0.2553337,-37.347412,-0.002340287,-0.0024261475,0.17229074,-0.00021362305,-0.00035095215,-15.257263,-0.0010728836,9.8033905,0.17228699,-0.25842285,9.801812,0.0016533136
0.003562545,-0.0153588895,0.49438477,-0.7336054,-0.25591868,-38.14087,0.000643909,0.00076293945,0.17351882,0.0001373291,-0.00035095215,-15.1901245,0.0002641678,9.7986145,0.16989136,-0.25602722,9.801775,0.0011398643
0.0035498282,-0.015350231,1.0635376,-0.7335759,-0.25562796,-37.49237,-0.0006196797,-0.0002746582,0.17355257,-4.5776367e-05,-0.000289917,-15.322876,0.0009431839,9.8033905,0.17228699,-0.26081848,9.801783,0.00062565506
0.0036565193,-0.015316581,1.248169,-0.73366964,-0.25669098,-36.19995,-0.0002655685,0.0005645752,0.17168209,-3.0517578e-05,-0.00048828125,-14.581299,0.000626564,9.817749,0.1651001,-0.25602722,9.801787,-0.00062192976
0.0037272838,-0.015330742,0.9490967,-0.7337845,-0.2578688,-36.631775,0.00020501018,0.0006866455,0.17098667,-9.1552734e-05,0.00036621094,-14.758301,0.000746727,9.8033905,0.17228699,-0.26560974,9.801768,8.235872e-05
0.0037097998,-0.015247962,1.2695312,-0.73364145,-0.25655082,-36.465454,0.0010277331,0.00044250488,0.16997406,3.0517578e-05,-0.00024414062,-15.386963,-0.0008096695,9.808182,0.17228699,-0.25602722,9.801821,0.0015751272
0.0037087481,-0.015275675,1.8753052,-0.7336801,-0.25689504,-36.253357,0.00043949485,0.00048828125,0.17040148,0.0002593994,-0.0006713867,-13.909912,0.0021677017,9.808182,0.15792847,-0.25125122,9.801804,0.0023187548
0.0037077523,-0.015366823,1.5151978,-0.73381066,-0.25806153,-35.60486,0.0016295612,0.00018310547,0.17177612,0.0001373291,-0.00018310547,-14.884949,0.0018262863,9.789032,0.16989136,-0.2536316,9.801749,-0.00073491037
0.003715859,-0.015273074,1.0971069,-0.73368585,-0.2569613,-36.979675,0.00054228306,0.00061035156,0.17027149,7.6293945e-05,0.00018310547,-14.753723,0.0010185242,9.765106,0.18424988,-0.24885559,9.801805,0.00074611604
0.0036721444,-0.015259182,1.6082764,-0.7336075,-0.25616702,-36.801147,0.0014014542,-0.00024414062,0.17062442,-4.5776367e-05,-0.00012207031,-14.730835,-0.0018806458,9.808182,0.16989136,-0.26081848,9.80182,0.0013708174
0.0037027132,-0.015256975,2.2628784,-0.733645,-0.25656798,-36.02295,0.00037685037,0.00036621094,0.17019953,7.6293945e-05,-0.00024414062,-15.740967,0.0006608963,9.805786,0.17706299,-0.25125122,9.801816,0.00059990585
0.0037175487,-0.0152628,2.0828247,-0.7336733,-0.25685194,-37.3291,-7.1018934e-05,0.00036621094,0.17009635,3.0517578e-05,-0.00012207031,-14.231873,-0.0011501312,9.810577,0.16989136,-0.24885559,9.80181,0.0011859238
0.0036941443,-0.015221259,1.4282227,-0.73358196,-0.2559848,-38.171387,0.0014717877,0.00036621094,0.16977595,7.6293945e-05,-0.00012207031,-15.391541,0.0011339188,9.786652,0.16270447,-0.2632141,9.801839,0.0010237545
0.003703116,-0.015237467,1.6067505,-0.73361737,-0.2563209,-36.305237,9.793043e-05,0.00036621094,0.16990298,-4.5776367e-05,-6.1035156e-05,-15.771484,-0.0024385452,9.808182,0.16989136,-0.25602722,9.801827,0.0013906211
0.003709068,-0.015252653,1.1734009,-0.7336473,-0.25660127,-36.997986,-9.2595816e-05,0.00030517578,0.17005348,-3.0517578e-05,-0.00012207031,-15.794373,0.00013160706,9.8033905,0.16989136,-0.25602722,9.801817,0.0014828593
0.0037083346,-0.015279992,1.4511108,-0.73368585,-0.25694513,-37.005615,-0.00023114681,0.00036621094,0.17047127,3.0517578e-05,-0.00018310547,-16.02478,0.00039958954,9.800995,0.1651001,-0.25842285,9.801801,0.002251327
0.0037469245,-0.015268751,0.5508423,-0.7337211,-0.25734192,-35.94055,0.00039863586,0.00036621094,0.16980873,-0.00015258789,-0.00018310547,-15.17334,-0.00085163116,9.800995,0.17228699,-0.26081848,9.801803,0.00029693544
0.003734491,-0.015265265,1.6662598,-0.73369944,-0.25712198,-36.283875,0.00042375922,0.00036621094,0.16991599,-9.1552734e-05,-0.00024414062,-16.009521,6.771088e-05,9.812973,0.16989136,-0.25602722,9.801806,0.0011350363
0.0037619106,-0.015262059,1.9012451,-0.7337313,-0.25746587,-36.968994,-0.00020322204,0.00024414062,0.16951667,-0.0002746582,0.0,-14.718628,-0.0007534027,9.810577,0.17945862,-0.25842285,9.801805,0.000823617
0.0037503173,-0.015259401,1.298523,-0.7337121,-0.25726846,-36.131287,0.00058338046,0.0004272461,0.16962554,0.00019836426,-6.1035156e-05,-16.02478,0.0017194748,9.808182,0.17228699,-0.2536316,9.801807,0.0016610473
0.0037344925,-0.015271887,1.5914917,-0.733709,-0.25720778,-35.96649,0.00077298284,0.00030517578,0.1700149,-0.0002746582,-0.00012207031,-14.884949,0.001625061,9.800995,0.16989136,-0.26560974,9.801802,0.001730457
0.0037479475,-0.015286506,1.1032104,-0.7337481,-0.25758627,-35.96039,-0.00028899312,0.0005493164,0.17006087,-0.00015258789,-0.00012207031,-15.629578,-0.00052165985,9.810577,0.16989136,-0.2679901,9.801791,0.0021768808
0.0037586368,-0.015286708,1.4770508,-0.7337626,-0.25773916,-37.016296,0.0010732114,0.00036621094,0.16992691,-0.0002746582,-0.00018310547,-15.621948,0.00029563904,9.805786,0.17468262,-0.25125122,9.80179,0.0013470501
0.0037563764,-0.015272929,0.21209717,-0.7337397,-0.25752887,-38.130188,0.0008675158,0.0004272461,0.16974999,-0.00021362305,-0.00036621094,-15.042114,0.00035476685,9.7986145,0.1651001,-0.25125122,9.801798,0.0012768358
0.003756075,-0.015244526,2.5344849,-0.73369825,-0.25715667,-34.753418,0.0012046099,0.0004272461,0.16932951,-0.00045776367,-6.1035156e-05,-15.881348,-0.0005722046,9.800995,0.16989136,-0.2632141,9.801815,0.00075650215
0.0037440679,-0.015269353,1.5731812,-0.7337181,-0.25730956,-35.585022,0.00062951446,0.0005493164,0.16985433,-0.00033569336,-0.00012207031,-15.122986,-0.00086307526,9.796219,0.17228699,-0.25602722,9.801803,0.0031073391
0.0037594163,-0.015267131,0.9918213,-0.7337354,-0.2580993,-36.90796,-0.00051549077,0.00061035156,0.16988912,-0.0002746582,-0.00012207031,-15.2404785,-0.0006017685,9.800995,0.17468262,-0.2536316,9.801781,0.002363503
0.0037649954,-0.015278994,0.4989624,-0.73375994,-0.2577286,-36.221313,0.0012491047,0.00030517578,0.16973016,-0.000289917,-0.00018310547,-15.982056,-0.001206398,9.810577,0.16989136,-0.25602722,9.801794,0.0006105155
0.003757821,-0.015269526,1.3885498,-0.7337367,-0.2575051,-36.769104,0.0015491247,0.00030517578,0.16968063,3.0517578e-05,-0.00012207031,-14.73999,0.0027074814,9.8033905,0.17228699,-0.25602722,9.8018,0.0013539493
0.0037610428,-0.015244242,1.6876221,-0.73370445,-0.25722283,-36.445618,0.0010272264,0.00036621094,0.16926159,-9.1552734e-05,-0.00024414062,-15.690613,0.0003671646,9.812973,0.17228699,-0.26081848,9.801815,0.0005799085
0.0037575113,-0.015275591,2.0065308,-0.73374504,-0.25757933,-36.546326,0.00043678284,0.00036621094,0.16977523,3.0517578e-05,-0.00030517578,-15.274048,0.0010490417,9.808182,0.17228699,-0.2632141,9.801797,0.0026964992
0.0037590282,-0.015310517,1.7593384,-0.7337976,-0.25805303,-36.09619,-2.7805567e-05,0.00036621094,0.17027766,7.6293945e-05,-0.00024414062,-14.558411,0.00053691864,9.8033905,0.16749573,-0.25602722,9.801776,0.002417773
0.003740182,-0.015265255,-0.14953613,-0.733707,-0.25720185,-36.627197,0.0024369657,0.0004272461,0.16984291,-0.00021362305,-0.00018310547,-14.805603,-0.0018815994,9.8033905,0.18185425,-0.25602722,9.8018055,0.00047381222
0.0037169408,-0.015245946,2.4337769,-0.73364806,-0.25662503,-37.130737,0.001857847,0.00030517578,0.16985238,-0.00021362305,-0.00018310547,-15.499878,-0.00013637543,9.808182,0.16989136,-0.2536316,9.80182,0.0011829287
0.00373626,-0.015196287,0.9277344,-0.73360205,-0.2562531,-37.374878,0.00028851628,0.00036621094,0.16886297,-9.1552734e-05,-6.1035156e-05,-15.16571,-0.00060749054,9.805786,0.16749573,-0.24885559,9.8018465,0.0038557798
0.0036882383,-0.015293582,0.7659912,-0.7336787,-0.2568388,-36.949158,0.0016050935,0.00091552734,0.17093192,-0.0002746582,-0.00024414062,-15.332031,0.0010757446,9.8033905,0.17228699,-0.25602722,9.801797,0.00034293532
0.0037316948,-0.015291267,0.88653564,-0.7337333,-0.2574195,-37.101746,0.0002603829,-0.00018310547,0.1703403,-9.1552734e-05,-0.00061035156,-14.682007,-0.00023937225,9.808182,0.17706299,-0.2632141,9.80179,0.0009367168
0.0037352992,-0.015347726,1.2435913,-0.7338198,-0.25820136,-36.37848,-0.00063312054,0.00036621094,0.17113774,-3.0517578e-05,-0.00030517578,-15.788269,0.00015830994,9.8033905,0.17468262,-0.26081848,9.801756,0.0025327653
0.003756928,-0.015322306,0.9460449,-0.73381186,-0.2581762,-36.254883,0.000779897,0.00036621094,0.17048074,-3.0517578e-05,-0.00018310547,-14.755249,-0.00085544586,9.810577,0.16270447,-0.26081848,9.801769,0.00055770576
0.0037978168,-0.015301341,1.0681152,-0.73383605,-0.25847945,-36.44104,-0.000598371,0.0004272461,0.16964352,7.6293945e-05,-6.1035156e-05,-15.150452,-0.00025558472,9.815353,0.17468262,-0.25842285,9.801775,0.00020700693
0.0038049822,-0.015306909,1.423645,-0.73385364,-0.25865227,-35.98938,6.8604946e-05,0.00048828125,0.16963491,-0.00015258789,-0.00012207031,-15.214539,0.0015745163,9.7986145,0.17468262,-0.25125122,9.80177,0.0016361326
0.0038125569,-0.01534608,1.5213013,-0.73392034,-0.25926608,-36.331177,-0.0005161166,0.00036621094,0.17012338,-0.00015258789,-0.00012207031,-13.763428,-0.0007019043,9.8033905,0.17706299,-0.26081848,9.801746,0.002358541
0.0037769012,-0.015304202,1.7349243,-0.7338123,-0.25822246,-36.2381,0.0022839606,0.00030517578,0.16995426,-4.5776367e-05,-6.1035156e-05,-14.961243,0.0011148453,9.800995,0.15792847,-0.2632141,9.801776,0.00084000826
0.003773453,-0.015305082,1.1383057,-0.73380893,-0.2581854,-35.598755,0.0007993877,0.0004272461,0.1700116,-0.000289917,-0.00018310547,-15.061951,-0.0010099411,9.800995,0.16989136,-0.25842285,9.801776,0.0017373562
0.003745122,-0.015351037,1.5869141,-0.73383766,-0.2583823,-35.09674,0.0005249679,0.00030517578,0.17106135,7.6293945e-05,-0.00024414062,-15.924072,0.0012407303,9.8033905,0.16989136,-0.25842285,9.801752,0.003315881
0.0037716066,-0.015363141,1.4923096,-0.7338905,-0.2589113,-36.12213,-0.00060394406,0.00048828125,0.17090297,-3.0517578e-05,-0.00012207031,-15.292358,0.00034236908,9.808182,0.17228699,-0.25842285,9.801742,0.0015636086
0.003765879,-0.015361899,2.2079468,-0.733881,-0.25881472,-37.426758,0.0011866391,0.00030517578,0.17095777,7.6293945e-05,-0.00024414062,-16.719055,-0.0015201569,9.8033905,0.17468262,-0.25842285,9.8017435,0.0012779534
0.0037930014,-0.015340412,1.689148,-0.7338861,-0.25891775,-36.595154,7.542968e-05,0.0004272461,0.17028916,3.0517578e-05,-6.1035156e-05,-15.690613,-0.0018234253,9.810577,0.17706299,-0.2536316,9.801752,4.0009618e-05
0.0037969607,-0.015371216,1.6708374,-0.73393595,-0.2593723,-38.630676,-0.00019675493,0.00024414062,0.17069891,0.00019836426,-0.00018310547,-14.016724,0.00037956238,9.810577,0.16989136,-0.25602722,9.801733,0.002266243
0.003818703,-0.015375489,1.3381958,-0.73397106,-0.2597333,-38.974,0.00018686056,0.0004272461,0.17048432,0.00019836426,-0.00018310547,-14.678955,0.0016870499,9.805786,0.17468262,-0.25842285,9.801727,0.0010317713
0.0038017367,-0.015394852,2.1514893,-0.7339765,-0.25974545,-38.96637,0.00021475554,0.00036621094,0.17099108,7.6293945e-05,-0.00012207031,-14.482117,-9.536743e-07,9.7986145,0.17468262,-0.25842285,9.801719,0.0024318844
0.0037430308,-0.015373425,2.0568848,-0.7338672,-0.25864282,-38.745117,0.0029196441,0.0004272461,0.17142276,7.6293945e-05,-0.00018310547,-14.807129,-0.00048160553,9.805786,0.17706299,-0.25602722,9.801741,0.00249286
0.0037663688,-0.015331648,0.45013428,-0.7338379,-0.25842988,-38.96637,0.0012970865,0.00036621094,0.17049938,-0.00016784668,-0.00024414062,-13.752747,0.0019159317,9.793823,0.16989136,-0.25842285,9.801762,-0.00020088255
0.0037283297,-0.015306594,1.1199951,-0.733751,-0.25757074,-38.49182,0.00041159987,0.00036621094,0.17061244,-0.00015258789,-0.00012207031,-14.602661,-0.0007009506,9.793823,0.17706299,-0.2536316,9.801783,0.0013817102
0.0037008354,-0.015288688,0.1739502,-0.7336884,-0.2569524,-39.134216,0.0021800697,0.00036621094,0.17069732,-0.00021362305,-6.1035156e-05,-14.649963,-0.0006303787,9.808182,0.17706299,-0.25602722,9.801797,0.0015466958
0.0037232677,-0.015263358,0.5950928,-0.7336817,-0.25693953,-37.53662,1.4275312e-05,0.0004272461,0.17003137,-0.00015258789,-0.00012207031,-14.700317,-0.00011539459,9.8033905,0.17468262,-0.25842285,9.801808,0.0005352646
0.0037387814,-0.015288995,1.0726929,-0.73373944,-0.25748968,-36.340332,-0.0006260574,0.0004272461,0.17021553,-0.00015258789,-6.1035156e-05,-13.946533,-8.106232e-05,9.8033905,0.16989136,-0.25842285,9.801791,0.0017856807
0.0037227857,-0.015273835,2.3529053,-0.7336962,-0.25706849,-33.26416,0.0008507967,0.00036621094,0.17019406,-3.0517578e-05,0.0,-16.278076,-0.000702858,9.8033905,0.16989136,-0.25602722,9.801803,0.0013402253
0.0037301378,-0.015267413,1.0025024,-0.7336967,-0.25708863,-36.158752,0.0006374419,0.00036621094,0.17000389,-0.0002746582,-0.00024414062,-14.993286,0.00081157684,9.7986145,0.17468262,-0.26081848,9.8018055,0.001035139
0.0037628417,-0.0152760595,2.2659302,-0.73375285,-0.2576603,-36.39984,-0.0004465282,0.00036621094,0.1697139,0.00032043457,-0.00012207031,-15.744019,0.000538826,9.800995,0.17468262,-0.2632141,9.801795,0.0008472651
0.0037846602,-0.0152819995,0.6652832,-0.7337905,-0.25804394,-37.626648,-0.00030392408,0.00048828125,0.16952305,-3.0517578e-05,-0.00018310547,-15.823364,0.00018787384,9.805786,0.17468262,-0.25602722,9.801788,0.0017533749
0.0037936666,-0.015297343,1.159668,-0.73382473,-0.25836933,-37.217712,0.00027406216,0.0005493164,0.16963695,-3.0517578e-05,-0.00018310547,-16.04004,0.0005979538,9.7986145,0.17228699,-0.25842285,9.801779,0.0025952607
0.0038148768,-0.015312469,1.2817383,-0.73387486,-0.25886342,-37.898254,-0.00022929907,0.0005493164,0.16959126,-0.00021362305,-0.00024414062,-15.397644,-0.0027914047,9.779465,0.17228699,-0.2632141,9.801766,0.0019475818
0.0038170465,-0.015357401,0.79803467,-0.73394275,-0.2594758,-37.21924,-0.00031778216,0.0004272461,0.17023511,-0.00015258789,-0.00018310547,-15.975952,0.0011720657,9.812973,0.17228699,-0.2632141,9.801739,0.0024831742
0.003785257,-0.015338114,1.0192871,-0.7338725,-0.25877914,-36.99341,0.0018577278,0.0004272461,0.17035404,3.0517578e-05,-0.00012207031,-14.839172,0.00029850006,9.815353,0.17468262,-0.25842285,9.801755,0.0018887669
0.0037934263,-0.015329263,1.2283325,-0.73387057,-0.25877935,-36.524963,0.00067672133,0.00048828125,0.17011708,-9.1552734e-05,-0.00012207031,-16.030884,0.0006723404,9.820145,0.17228699,-0.2632141,9.801759,0.0014027357
0.0037677314,-0.015295476,1.3320923,-0.7337874,-0.25798056,-35.769653,0.002042979,0.00036621094,0.16994137,3.0517578e-05,-6.1035156e-05,-15.457153,0.0010852814,9.808182,0.16989136,-0.25842285,9.801784,0.001081124
0.0037539185,-0.015277466,1.9546509,-0.73374295,-0.2575531,-35.742188,0.0018261969,0.00036621094,0.16984928,-9.1552734e-05,-0.00036621094,-14.866638,-0.0013532639,9.810577,0.17468262,-0.25602722,9.801796,0.0014292896
0.0037446257,-0.015302398,1.8692017,-0.7337666,-0.25774544,-36.54785,0.000818938,0.0004272461,0.17034091,-9.1552734e-05,-0.00024414062,-14.073181,-0.0007505417,9.7986145,0.17945862,-0.25842285,9.801783,0.0028663874
0.0037272805,-0.015287476,1.6723633,-0.7337219,-0.25730836,-35.836792,0.0013468564,0.00036621094,0.17034024,0.00019836426,-0.00018310547,-15.846252,0.00029945374,9.810577,0.16989136,-0.2632141,9.801794,0.0014302135
0.003729035,-0.015295773,1.5289307,-0.7337363,-0.2574405,-36.091614,0.00024917722,0.00048828125,0.17044173,-9.1552734e-05,-0.00018310547,-15.853882,-0.0018796921,9.808182,0.16989136,-0.2632141,9.801789,0.0015737563
0.003754452,-0.0152771445,1.6067505,-0.73374325,-0.25755644,-36.650085,0.00040096045,0.00044250488,0.16983764,3.0517578e-05,0.0,-14.729309,0.0027303696,9.805786,0.17228699,-0.25602722,9.801796,0.0007199794
0.0037405672,-0.0152880475,1.9241333,-0.73374045,-0.25750253,-35.957336,0.0010569394,0.00048828125,0.1701785,-3.0517578e-05,-0.00030517578,-15.353394,-0.00057411194,9.8033905,0.17228699,-0.26560974,9.801792,0.002779439
0.0037557764,-0.015311093,2.206421,-0.7337941,-0.25801477,-36.465454,-0.00033840537,0.00048828125,0.17032792,-0.00021362305,-0.00024414062,-14.460754,-7.05719e-05,9.7986145,0.17468262,-0.25125122,9.801775,0.0019130707
0.003766992,-0.015330715,1.0925293,-0.7338374,-0.25842655,-36.03058,9.217858e-05,0.0004272461,0.17047745,-4.5776367e-05,-0.00024414062,-15.792847,0.0013847351,9.767502,0.17945862,-0.25842285,9.801762,0.002224192
0.003769798,-0.015293061,2.4795532,-0.7337867,-0.25797832,-36.698914,0.0015607774,0.00048828125,0.1698788,9.1552734e-05,-0.00018310547,-14.772034,0.0007686615,9.810577,0.16989136,-0.25125122,9.8017845,0.00019221008
0.0037385998,-0.015287488,0.8590698,-0.73373705,-0.25746763,-36.068726,0.0010358095,0.0005493164,0.17019536,-0.00039672852,-6.1035156e-05,-16.044617,-0.0010995865,9.8033905,0.16989136,-0.25602722,9.801793,0.0032265037
0.003773377,-0.015273359,0.60272217,-0.733763,-0.25777343,-37.01477,-0.00034162402,0.00048828125,0.16953854,-0.00021362305,0.0,-14.535522,-0.001543045,9.800995,0.17228699,-0.25602722,9.801796,6.6801906e-05
0.0037466278,-0.015273798,1.8936157,-0.73372793,-0.2574031,-35.838318,0.0014427602,0.0004272461,0.16988792,-3.0517578e-05,-0.00012207031,-14.709473,0.00024986267,9.808182,0.16749573,-0.2632141,9.801799,0.00235492
0.0037472565,-0.015284758,2.0812988,-0.7337446,-0.2575539,-36.909485,0.0003927648,0.00048828125,0.1700436,-3.0517578e-05,-0.00030517578,-15.274048,0.00032520294,9.774673,0.16749573,-0.2536316,9.801792,0.002196148
0.0037395079,-0.015258235,2.1942139,-0.7336959,-0.25710142,-36.909485,0.0009020269,0.00036621094,0.16974667,9.1552734e-05,-6.1035156e-05,-14.706421,4.2915344e-05,9.820145,0.16989136,-0.25602722,9.801809,0.0012873709
0.0037670506,-0.015245357,1.8203735,-0.73371404,-0.25732172,-36.03363,0.00067698956,0.0005493164,0.16920124,-9.1552734e-05,-6.1035156e-05,-15.840149,0.0020990372,9.8033905,0.16989136,-0.2536316,9.801813,0.0015858859
0.0037389342,-0.015220416,1.133728,-0.7336405,-0.25660336,-36.499023,0.0023572445,0.00074768066,0.16918908,3.0517578e-05,-0.00030517578,-15.229797,0.00027656555,9.793823,0.16270447,-0.2632141,9.801832,0.002068922
0.003745819,-0.015220834,1.5014648,-0.73365027,-0.25724912,-35.90088,-0.00037688017,0.0004272461,0.16944823,-0.0002746582,-0.00024414062,-15.130615,-0.00074005127,9.791428,0.16749573,-0.2536316,9.80181,0.0022979826
0.0037556577,-0.015252115,1.7150879,-0.7337086,-0.25743297,-36.4563,-0.00017389655,0.00048828125,0.16925436,-4.5776367e-05,-0.00030517578,-15.286255,0.001420021,9.808182,0.17468262,-0.25125122,9.801809,0.0015333295
0.0037398224,-0.015276901,1.0070801,-0.73372334,-0.25734767,-37.51526,0.0009121001,0.0004272461,0.17002152,-9.1552734e-05,0.0,-15.084839,-0.001452446,9.805786,0.16749573,-0.25842285,9.801799,0.0022126585
0.0037466558,-0.015300338,2.4932861,-0.7337664,-0.2577473,-36.584473,-0.000113755465,0.00018310547,0.1702841,3.0517578e-05,-0.00012207031,-15.657043,0.000626564,9.8033905,0.17468262,-0.2536316,9.801784,0.001944229
0.0037851455,-0.015297328,0.59661865,-0.73381335,-0.25824934,-37.1933,-0.0003208518,0.00036621094,0.1697459,-0.00015258789,-0.00024414062,-15.742493,0.00057697296,9.810577,0.1651001,-0.25842285,9.80178,0.0005701184
0.0037949919,-0.015276157,0.8453369,-0.7337958,-0.25811353,-36.71112,0.0012180507,0.00036621094,0.16930337,-0.00015258789,-0.00018310547,-15.246582,-0.00025463104,9.800995,0.17228699,-0.25602722,9.801791,0.00028283894
0.0037632189,-0.015265396,1.3198853,-0.73373795,-0.25752747,-37.342834,0.0016115904,0.00030517578,0.16954975,7.6293945e-05,-0.00030517578,-15.792847,0.0014247894,9.829712,0.17228699,-0.24885559,9.801802,0.0017026216
0.003751766,-0.015264117,1.5777588,-0.7337208,-0.2573499,-36.11145,0.0009036958,0.00036621094,0.16967742,-3.0517578e-05,-6.1035156e-05,-15.126038,-0.0032043457,9.769897,0.17706299,-0.24885559,9.801804,0.0016025752
0.0037164707,-0.015256634,1.7166138,-0.7336629,-0.2567569,-36.109924,0.0014817119,0.00044250488,0.17001806,3.0517578e-05,-6.1035156e-05,-16.329956,-0.002623558,9.793823,0.16989136,-0.2632141,9.801814,0.0024899691
0.0037441435,-0.015255199,1.4968872,-0.7336978,-0.25712726,-36.393738,-0.00028645992,0.0004272461,0.1696419,-4.5776367e-05,-0.00012207031,-14.167786,0.0009613037,9.805786,0.16989136,-0.25602722,9.801811,0.00093506277
0.0037701726,-0.015229573,1.8661499,-0.7336954,-0.25716108,-36.730957,0.00068065524,0.0004272461,0.1689254,0.0001373291,-0.00012207031,-15.19928,-0.00095939636,9.810577,0.16989136,-0.2632141,9.801822,0.00022573769
0.0037447705,-0.015249539,1.7059326,-0.7336904,-0.25706273,-36.572266,0.00037884712,0.0004272461,0.1695493,3.0517578e-05,-0.00012207031,-14.321899,0.001909256,9.812973,0.18664551,-0.25125122,9.801814,0.00245364
0.0037313914,-0.015217333,2.3086548,-0.733626,-0.2564574,-36.265564,0.0023951828,0.00024414062,0.16923973,3.0517578e-05,-0.00012207031,-15.09552,-0.00016117096,9.796219,0.17706299,-0.2536316,9.801835,0.0010865778
0.0037078022,-0.01520621,0.9567261,-0.73357844,-0.25598174,-37.687683,0.0016716123,0.00048828125,0.16937608,7.6293945e-05,-0.00030517578,-14.76593,-0.0002746582,9.8033905,0.16989136,-0.26081848,9.801846,0.0021580905
0.0037168902,-0.0152208945,1.28479,-0.73361176,-0.25629973,-36.772156,-0.00016793609,0.00048828125,0.16947885,-3.0517578e-05,-0.00018310547,-15.226746,-0.00050258636,9.824936,0.17945862,-0.25125122,9.801835,0.0015863329
0.0037356229,-0.015240587,1.473999,-0.7336652,-0.25681818,-35.813904,0.00012812018,0.0004272461,0.16953284,-9.1552734e-05,-0.00024414062,-15.531921,0.00045776367,9.796219,0.17228699,-0.25602722,9.801821,0.0020011216
0.003792399,-0.015249612,1.083374,-0.73375404,-0.2577332,-37.95166,-0.0011273623,0.00048828125,0.16893995,-3.0517578e-05,-0.00018310547,-15.083313,-0.00034046173,9.810577,0.17228699,-0.25842285,9.801807,0.00067411363
0.0038027547,-0.015289532,1.6326904,-0.73382556,-0.25839588,-40.68756,-0.00067040324,0.00048828125,0.16940375,-0.00021362305,-0.00018310547,-13.7146,0.0016813278,9.800995,0.17228699,-0.26081848,9.801781,0.002834916
0.0037916624,-0.0153030725,1.2512207,-0.73383033,-0.25841537,-38.00354,0.00074386597,0.00048828125,0.16974826,-3.0517578e-05,-0.00024414062,-14.755249,-0.0030241013,9.8033905,0.16989136,-0.2536316,9.801776,0.0025162548
0.00378578,-0.015264362,1.1016846,-0.7337665,-0.25783122,-36.00464,0.0016026497,0.00048828125,0.16924515,-0.00015258789,-0.00012207031,-14.582825,0.00068187714,9.805786,0.16749573,-0.25125122,9.801799,0.0010911375
0.003795402,-0.015250292,1.8981934,-0.733759,-0.25778422,-36.592102,0.0005836189,0.00061035156,0.16891162,-0.00021362305,-0.00012207031,-14.715576,-0.0008249283,9.7986145,0.1651001,-0.25602722,9.801806,0.0014317483
0.003789882,-0.015240343,2.972412,-0.73373723,-0.25757772,-36.18164,0.0018186867,0.0004272461,0.16883372,0.0001373291,-0.00018310547,-13.861084,0.00057029724,9.800995,0.16989136,-0.25602722,9.801813,0.0017490536
0.0037746488,-0.015241656,1.7837524,-0.7337188,-0.25738057,-37.161255,0.0011305511,0.00074768066,0.16904856,-3.0517578e-05,-0.00030517578,-14.323425,-0.0013875961,9.805786,0.17228699,-0.26081848,9.801814,0.002751395
0.0037767324,-0.015287905,1.8341064,-0.7337885,-0.25800902,-35.88867,-0.00084999204,0.00036621094,0.1697129,-3.0517578e-05,-0.00018310547,-15.597534,0.0022640228,9.796219,0.16270447,-0.2536316,9.801786,0.003012836
0.0037749792,-0.015279893,1.4770508,-0.73377454,-0.25788057,-36.19232,0.0002322495,0.0005493164,0.16961563,-0.00015258789,0.0,-15.534973,0.00037956238,9.805786,0.17706299,-0.25842285,9.801791,0.0016723126
0.0037626885,-0.015242447,1.739502,-0.73370403,-0.25722268,-37.81891,0.0017452836,0.0004272461,0.16921367,-9.1552734e-05,-6.1035156e-05,-15.054321,0.0015172958,9.808182,0.17228699,-0.25602722,9.801815,0.0011001974
0.003730912,-0.015257409,1.0620117,-0.7336833,-0.2569699,-36.245728,0.0014744401,0.00036621094,0.16984451,-3.0517578e-05,-0.00024414062,-16.279602,-0.0013780594,9.8033905,0.17468262,-0.26560974,9.801811,0.0024036616
0.0037550344,-0.015278619,1.776123,-0.7337461,-0.25758374,-37.03766,-0.00053077936,0.00048828125,0.16985221,0.00015258789,-0.00024414062,-15.52887,0.00035858154,9.800995,0.16989136,-0.2536316,9.801796,0.0019041747
0.003782205,-0.015281396,1.5686035,-0.7337864,-0.25800163,-37.054443,-0.0003619492,0.00036621094,0.1695455,-0.00015258789,-0.00012207031,-14.251709,-0.00040721893,9.805786,0.1651001,-0.2536316,9.801789,0.0010240525
0.0037566281,-0.015285966,1.4373779,-0.73375887,-0.2577013,-36.865234,0.0010380447,0.0006866455,0.16994156,7.6293945e-05,-6.1035156e-05,-14.013672,0.001627922,9.793823,0.16989136,-0.2536316,9.801791,0.0037262738
0.00377703,-0.015244889,0.7965088,-0.7337267,-0.25745595,-37.182617,0.00076672435,0.00048828125,0.16906635,7.6293945e-05,-0.00012207031,-14.929199,-0.001955986,9.7986145,0.17945862,-0.25842285,9.801812,0.0003157556
0.0037735587,-0.015271908,1.4907837,-0.73376113,-0.2577572,-36.076355,0.00034043193,0.00061035156,0.16951454,-0.00033569336,-0.00024414062,-16.418457,-0.00082683563,9.815353,0.16989136,-0.25602722,9.801797,0.0024988502
0.0037642675,-0.015266446,1.0650635,-0.73374087,-0.25755584,-37.643433,0.0013366938,0.0004272461,0.16955201,-9.1552734e-05,-0.00012207031,-15.322876,0.0005636215,9.812973,0.17228699,-0.2632141,9.801802,0.0022123307
0.0037599795,-0.015291734,1.1917114,-0.7337717,-0.2578231,-36.70349,-7.3075294e-05,0.0005493164,0.16998479,0.00015258789,-0.00024414062,-15.470886,5.340576e-05,9.810577,0.17228699,-0.25842285,9.801786,0.0027398616
0.003769189,-0.015288331,1.1199951,-0.7337791,-0.2579085,-36.793518,0.00075498223,0.0005493164,0.16981593,-9.1552734e-05,0.0,-15.473938,0.00027370453,9.8033905,0.17228699,-0.25125122,9.801787,0.0014576316
0.003739394,-0.015315948,2.116394,-0.73377925,-0.2578474,-36.54785,0.0009765625,0.0005493164,0.17061041,-0.0002746582,-0.00030517578,-14.706421,0.0028934479,9.887146,0.17468262,-0.2632141,9.801775,0.003979072
0.0037052524,-0.015329227,1.6998291,-0.7337529,-0.25753954,-36.57074,0.001121074,0.0005493164,0.17124636,-9.1552734e-05,-0.00018310547,-14.402771,-0.0015859604,9.796219,0.1651001,-0.26081848,9.801772,0.0028834492
0.0037183007,-0.015299545,1.5579224,-0.7337274,-0.2573385,-36.30066,0.0011455715,0.0004272461,0.17063566,-4.5776367e-05,-0.00012207031,-14.324951,-0.0013847351,9.810577,0.17228699,-0.25602722,9.801788,0.00016500056
0.0037511045,-0.015289011,1.435852,-0.73375595,-0.2576631,-36.221313,0.00028261542,0.00036621094,0.17005785,3.0517578e-05,-0.00024414062,-15.054321,0.00019550323,9.800995,0.16749573,-0.24885559,9.801789,0.00025302172
0.0037321073,-0.015285833,1.3687134,-0.73372597,-0.25735492,-35.710144,0.00089272857,0.00030517578,0.17025383,-0.00021362305,-0.00012207031,-14.892578,-0.0021123886,9.793823,0.17468262,-0.25125122,9.801794,0.0015096068
0.003704328,-0.01532284,1.7105103,-0.7337425,-0.25744385,-36.575317,0.0005159676,0.00036621094,0.17116278,1.5258789e-05,-0.00012207031,-14.242554,0.00051116943,9.810577,0.17228699,-0.26560974,9.801777,0.0034795254
0.0037063556,-0.0153013915,1.4938354,-0.73371416,-0.25719452,-36.949158,0.001221627,0.0004272461,0.17081633,-3.0517578e-05,-0.00018310547,-15.3793335,-0.0004682541,9.808182,0.1651001,-0.2536316,9.801788,0.0011904389
0.0037474115,-0.015268056,1.1428833,-0.7337207,-0.25733975,-36.802673,0.00064739585,0.00048828125,0.16979209,3.0517578e-05,-0.00018310547,-15.150452,-0.00014972687,9.762711,0.16270447,-0.25125122,9.801803,-0.0006522089
0.003710847,-0.015255361,1.0437012,-0.73365355,-0.2566614,-36.80725,0.002102226,0.00036621094,0.17007114,-9.1552734e-05,-0.00024414062,-15.557861,-0.001376152,9.815353,0.17706299,-0.24885559,9.801816,0.0024223775
0.0036525098,-0.015234239,0.032043457,-0.7335452,-0.25556797,-37.094116,0.0031475425,0.0005493164,0.17050369,-3.0517578e-05,-0.00018310547,-15.446472,-0.0009288788,9.8033905,0.16989136,-0.24645996,9.801837,0.0024864525
0.0036702193,-0.015262336,1.1810303,-0.73360944,-0.25618082,-36.549377,-0.0010194778,0.00036621094,0.1706962,3.0517578e-05,-0.00018310547,-15.6311035,0.00082302094,9.808182,0.17228699,-0.2536316,9.801818,0.0010962039
0.0036958938,-0.015270811,0.9552002,-0.7336559,-0.25665137,-37.04071,-4.0650368e-05,0.00012207031,0.1704936,-9.1552734e-05,-0.00012207031,-15.80658,0.0015058517,9.796219,0.16989136,-0.25602722,9.801808,0.00079730153
0.0036702438,-0.01529991,2.078247,-0.7336638,-0.25666788,-36.38153,-2.9146671e-05,0.0004272461,0.17125711,-9.1552734e-05,-0.00024414062,-15.26947,-0.0004415512,9.808182,0.17228699,-0.26081848,9.801795,0.0033939034
0.003704202,-0.015288291,2.445984,-0.73369235,-0.25699458,-35.783386,-0.00019022822,0.00048828125,0.17064823,-0.00015258789,0.00012207031,-15.168762,1.2397766e-05,9.8033905,0.16989136,-0.25125122,9.801797,0.00088980794
0.0037076308,-0.015269212,0.5584717,-0.7336693,-0.25679561,-36.094666,0.001057595,0.0005493164,0.17031927,-0.00015258789,-0.00018310547,-15.092468,0.0009584427,9.808182,0.17228699,-0.26081848,9.801807,0.0014394224
0.0037643479,-0.015243012,1.9638062,-0.7337071,-0.25725335,-35.62622,-0.00064623356,0.0006866455,0.16920085,-3.0517578e-05,-0.00018310547,-15.830994,-0.0008125305,9.7986145,0.16749573,-0.2679901,9.801815,0.0011304617
0.0037726737,-0.015242377,2.2354126,-0.73371726,-0.25736216,-36.8515,-0.00027278066,0.0006866455,0.16908465,3.0517578e-05,-6.1035156e-05,-14.057922,0.0015211105,9.810577,0.17945862,-0.26081848,9.801814,0.001950413
0.0037705891,-0.015269245,1.1932373,-0.7337533,-0.25768095,-37.22992,-0.000192523,0.00061035156,0.16951281,-0.0002746582,-6.1035156e-05,-15.556335,0.00036621094,9.800995,0.17228699,-0.2536316,9.801799,0.0027239472
0.0037630987,-0.015276094,1.4266968,-0.7337532,-0.25766435,-37.869263,0.00050735474,0.00048828125,0.16971111,-0.00015258789,-6.1035156e-05,-15.390015,-7.8201294e-05,9.808182,0.17468262,-0.25602722,9.801795,0.0022818893
0.0037264153,-0.015296547,1.461792,-0.7337339,-0.25741372,-36.408997,0.0007402599,0.0004272461,0.17048687,0.0001373291,-0.00018310547,-15.779114,-0.0003824234,9.800995,0.17468262,-0.26081848,9.801789,0.0027144402
0.0037377945,-0.015315373,2.078247,-0.7337763,-0.25781748,-36.532593,0.0004029274,0.00030517578,0.17062232,-0.00015258789,-6.1035156e-05,-15.270996,-0.0018501282,9.800995,0.17228699,-0.25602722,9.801776,0.0016335696
0.0037864428,-0.0152771175,1.3031006,-0.73378587,-0.2580058,-36.553955,0.00034114718,0.0004272461,0.16942728,7.6293945e-05,-0.00024414062,-14.901733,-0.00043296814,9.879959,0.105285645,-0.2871399,9.801792,-0.0007530451
0.0036387462,-0.015325016,1.1199951,-0.73365813,-0.2565505,-35.968018,0.0010335743,0.0007324219,0.17203592,-3.0517578e-05,0.00012207031,-15.388489,-0.00029087067,9.865616,0.1531372,-0.25842285,9.8017845,0.0026216954
0.0036245154,-0.015306112,-0.24261475,-0.73361176,-0.2561057,-36.784363,0.0010814965,-0.0014648438,0.17193599,-9.1552734e-05,0.00018310547,-15.133667,0.0015792847,9.800995,0.16989136,-0.25602722,9.801797,-0.0020828843
0.0036031397,-0.015330971,1.1276245,-0.7336192,-0.25612736,-36.421204,-6.660819e-05,7.6293945e-05,0.17258134,7.6293945e-05,-6.1035156e-05,-15.310669,0.0015115738,9.810577,0.17228699,-0.2536316,9.801785,0.002995178
0.003591147,-0.015339714,1.5167236,-0.7336158,-0.25607213,-35.861206,0.00083616376,0.00024414062,0.1728657,0.00032043457,-6.1035156e-05,-16.012573,-0.00026607513,9.808182,0.17228699,-0.2536316,9.801783,0.001995787
0.0036216695,-0.015388699,1.7562866,-0.73372746,-0.25713518,-36.50055,-0.0016729832,0.00036621094,0.17320615,0.0001373291,-0.00012207031,-15.768433,0.0009393692,9.805786,0.17945862,-0.25842285,9.801748,0.0018904209
0.0036100708,-0.015421528,1.8081665,-0.73375946,-0.25739723,-36.14807,5.00679e-06,0.0004272461,0.17384529,7.6293945e-05,-0.00012207031,-14.958191,-0.0014533997,9.815353,0.17468262,-0.2536316,9.80173,0.0026978403
0.0035787849,-0.015374005,1.3427734,-0.73364896,-0.2563425,-36.647034,0.0027977228,0.00030517578,0.17353636,0.00038146973,-0.00018310547,-14.338684,0.001420021,9.8033905,0.17468262,-0.2536316,9.801764,0.0008433461
0.0035552937,-0.01538919,1.8417358,-0.73363954,-0.25620916,-37.81433,0.0007419288,0.00030517578,0.17406435,0.00019836426,-6.1035156e-05,-14.6484375,-1.5258789e-05,9.8033905,0.17945862,-0.25602722,9.801758,0.0027106702
0.0035436407,-0.015371656,1.9775391,-0.73359865,-0.25581846,-37.330627,0.0015331209,0.00048828125,0.17395186,3.0517578e-05,-0.00018310547,-14.718628,-0.0017709732,9.8033905,0.17706299,-0.26081848,9.801769,0.0009164959
0.0035600734,-0.015403177,2.0019531,-0.7336662,-0.25645736,-36.47003,3.4928322e-05,0.0004272461,0.17421198,-3.0517578e-05,0.0,-15.354919,0.00048065186,9.800995,0.17706299,-0.25842285,9.801748,0.0023147613
0.003593244,-0.015403922,1.663208,-0.73371154,-0.25693294,-37.574768,0.0002695322,0.0005493164,0.17379792,0.00015258789,-0.00024414062,-14.01062,-0.0009536743,9.805786,0.17468262,-0.25602722,9.8017435,0.0013029426
0.0036108282,-0.015432107,0.6591797,-0.7337758,-0.25754482,-36.99341,-0.0005416572,0.0004272461,0.17399366,0.0001373291,-0.00024414062,-14.77356,0.00079631805,9.808182,0.17468262,-0.26081848,9.8017235,0.0018168241
0.0035962428,-0.015412512,0.9674072,-0.733728,-0.25708628,-38.86566,0.0016184449,0.0005493164,0.17388782,-0.00015258789,-0.00018310547,-13.647461,-0.0004348755,9.791428,0.17228699,-0.25602722,9.801738,0.0023995787
0.0036050917,-0.01541041,1.1169434,-0.73373675,-0.25718334,-38.191223,0.0007635951,0.0005493164,0.17374298,-0.00015258789,-0.00018310547,-14.599609,-0.00045394897,9.800995,0.18664551,-0.2536316,9.801737,0.0013582706
0.003556083,-0.0154310465,1.3595581,-0.73370117,-0.2567621,-36.38153,0.00177899,0.00036621094,0.17467946,-3.0517578e-05,-0.00024414062,-15.138245,0.00017547607,9.810577,0.18185425,-0.2536316,9.801732,0.0032884777
0.003561723,-0.015398727,1.5151978,-0.73366195,-0.2564229,-36.958313,0.0009380281,0.00036621094,0.17412436,0.00019836426,-0.00024414062,-15.055847,-0.0010099411,9.805786,0.17468262,-0.24885559,9.80175,0.00051118433
0.0035806845,-0.015383758,0.4852295,-0.7336656,-0.25649548,-36.288452,0.0007762909,0.00048828125,0.1736577,-9.1552734e-05,-6.1035156e-05,-16.22467,0.00076007843,9.800995,0.1651001,-0.25602722,9.801758,0.00072719157
0.0035728926,-0.015373347,0.869751,-0.73364013,-0.25625122,-35.998535,0.0007598102,0.00036621094,0.17360207,-3.0517578e-05,-0.00012207031,-15.882874,-0.0012483597,9.800995,0.17228699,-0.2536316,9.8017645,0.0010380149
0.0035599715,-0.015342236,1.8707275,-0.73357785,-0.25566685,-36.43036,0.0009063184,0.00030517578,0.17330308,7.6293945e-05,6.1035156e-05,-15.118408,0.0010681152,9.805786,0.17945862,-0.2536316,9.8017845,0.0010835379
0.0035734545,-0.0153411515,1.6662598,-0.7335943,-0.2558422,-37.861633,0.00036144257,0.0004272461,0.17311402,3.0517578e-05,-0.00018310547,-16.183472,-0.00024604797,9.805786,0.18185425,-0.25602722,9.801784,0.0010306239
0.003557755,-0.015373231,0.2685547,-0.73361975,-0.2560371,-37.280273,-0.00039318204,0.00036621094,0.17379442,-9.1552734e-05,-0.00018310547,-15.193176,-0.0003376007,9.805786,0.17468262,-0.25842285,9.801766,0.0032210797
0.0035861826,-0.0153896,1.2939453,-0.7336814,-0.25664833,-36.58142,0.00020241737,0.00048828125,0.17367448,7.6293945e-05,0.0,-16.11023,-5.8174133e-05,9.800995,0.17468262,-0.25842285,9.801753,0.0011899322
0.0035916476,-0.015378514,0.98114014,-0.7336726,-0.25658157,-37.322998,0.00037932396,0.0004272461,0.17343883,3.0517578e-05,-0.00036621094,-14.360046,-4.7683716e-05,9.8033905,0.17706299,-0.25602722,9.801759,0.0014259368
0.0035779623,-0.015378957,1.0223389,-0.73365504,-0.25639507,-36.949158,0.0016016066,0.0004272461,0.17362088,0.0002593994,-6.1035156e-05,-15.882874,-0.0019435883,9.8033905,0.17706299,-0.25602722,9.801761,0.0019782633
0.0035698912,-0.015405136,0.6790161,-0.7336821,-0.25662062,-36.579895,0.00042447448,0.00048828125,0.17411539,-9.1552734e-05,-0.00036621094,-15.492249,0.002371788,9.800995,0.17228699,-0.25842285,9.801745,0.003140688
0.0035437227,-0.015373285,0.9246826,-0.7336011,-0.25584072,-36.245728,0.0015664399,0.00048828125,0.17397515,0.0001373291,-0.00012207031,-15.077209,-2.5749207e-05,9.7986145,0.17706299,-0.25842285,9.801769,0.0013739914
0.0035441625,-0.015395037,1.5655518,-0.73363316,-0.2561285,-36.257935,0.00038808584,0.00048828125,0.17429437,-9.1552734e-05,-0.00012207031,-15.2908325,-0.0012989044,9.808182,0.17228699,-0.25125122,9.801755,0.0020120293
0.0035435772,-0.015391037,1.6265869,-0.7336266,-0.2560685,-36.431885,0.0005840063,0.0004272461,0.17424214,7.6293945e-05,-0.00018310547,-14.404297,0.0008869171,9.805786,0.17945862,-0.25842285,9.801758,0.0018273741
0.0035360637,-0.015371697,2.1072388,-0.7335886,-0.25571257,-36.769104,0.0019076169,0.00036621094,0.17404963,0.0002593994,-0.00024414062,-14.868164,0.00011253357,9.808182,0.17468262,-0.24645996,9.80177,0.0015308559
0.0035267582,-0.015349886,1.4404297,-0.7335446,-0.25529948,-37.002563,0.00079259276,0.00048828125,0.17384326,0.00019836426,-6.1035156e-05,-16.18805,0.0011873245,9.8033905,0.17228699,-0.2536316,9.801785,0.00078079104
0.0035479025,-0.015379815,0.7537842,-0.7336161,-0.25598398,-36.643982,-0.00043651462,0.00030517578,0.1740191,-4.5776367e-05,-0.00012207031,-15.489197,0.0006284714,9.800995,0.16989136,-0.2632141,9.8017645,0.0017891228
0.003568987,-0.015369517,1.248169,-0.7336294,-0.25614676,-37.582397,0.0004259944,0.00036621094,0.17359494,7.6293945e-05,-0.00018310547,-15.878296,-0.0013446808,9.808182,0.17945862,-0.2632141,9.801767,0.00079096854
0.003544573,-0.015409092,0.49743652,-0.733654,-0.25631624,-35.993958,0.00037017465,0.00048828125,0.17449906,0.0002593994,-0.00024414062,-15.98053,0.00021839142,9.805786,0.17228699,-0.25842285,9.801747,0.0034699738
0.003579934,-0.015410235,1.0848999,-0.7337029,-0.2568277,-36.479187,-0.00079229474,0.00036621094,0.17406285,0.0001373291,-0.00018310547,-15.957642,0.00030231476,9.800995,0.16749573,-0.2536316,9.801742,0.0005616993
0.0035849193,-0.015358927,0.59814453,-0.7336353,-0.25623342,-37.23755,0.0017050207,0.0004272461,0.1732325,3.0517578e-05,0.0,-14.616394,-0.0015649796,9.805786,0.17706299,-0.2536316,9.801771,0.00020109117
0.0035622343,-0.015376431,1.2863159,-0.73363036,-0.25614142,-36.216736,0.0001821816,0.0004272461,0.17378478,-3.0517578e-05,-6.1035156e-05,-14.013672,0.00022983551,9.800995,0.17706299,-0.25125122,9.801764,0.0025301725
0.0035413585,-0.015383368,1.5182495,-0.73361254,-0.25593805,-36.402893,0.0006812513,0.00036621094,0.17415605,7.6293945e-05,-0.00012207031,-13.844299,-0.0011291504,9.793823,0.16749573,-0.25842285,9.801763,0.0012074858
0.003526293,-0.01539849,1.2969971,-0.7336143,-0.25592226,-37.153625,0.002998978,0.00030517578,0.17457508,0.00038146973,-0.00018310547,-15.068054,-0.0047254562,9.817749,0.17945862,-0.2368927,9.801756,0.0024939477
0.0036947606,-0.015267574,1.7166138,-0.7336498,-0.25659353,-37.478638,-0.00032654405,0.0018463135,0.17045979,0.0001373291,-0.0007324219,-14.248657,0.0059080124,9.8033905,0.16749573,-0.26081848,9.80181,-0.00036977232