rotationVector.y,rotationVector.x,magneticField.y,rotationVector.z,gravity.y,magneticField.z,linearAcceleration.y,gyroscope.y,gravity.x,gyroscope.z,gyroscope.x,magneticField.x,linearAcceleration.z,accelerometer.z,accelerometer.x,accelerometer.y,gravity.z,linearAcceleration.x
-0.017230755,-0.0150041105,22.102356,-0.11857926,-0.2520524,-37.23297,0.09158158,0.1925354,0.37037426,0.1182251,0.11378479,-8.396912,0.4216652,10.487747,-0.011962891,0.1986084,9.7964115,-0.3342479
-0.0053341486,0.0055433633,22.257996,-0.11049605,0.119614765,-38.198853,0.11443319,0.084472656,0.09196297,-0.13957214,0.28549194,-6.14624,0.45473766,9.169296,0.45703125,0.42352295,9.805489,0.2632673
-0.015279277,0.026347177,20.63446,-0.14385603,0.5542482,-38.964844,-0.13541192,-0.2016449,0.22208115,-0.3487854,0.15446472,-6.5444946,-0.48260403,9.84407,-0.1603241,0.34457397,9.788456,0.03920293
-0.030128771,0.03847145,19.180298,-0.17308457,0.84452826,-39.897156,-0.2699272,-0.061645508,0.45068768,-0.22740173,0.123062134,-7.659912,-0.398345,10.145569,0.16989136,0.75852966,9.759817,-0.43171614
-0.033787254,0.025965216,17.633057,-0.18398423,0.62202203,-39.77661,0.17647582,-0.1612091,0.5570583,0.013214111,-0.2761383,-9.017944,0.039645195,10.21257,0.08135986,0.49291992,9.771037,-0.6480555
-0.05542703,-0.008448014,20.866394,-0.1994874,0.054767087,-38.89923,0.014651485,-0.35632324,1.0965652,-0.15263367,-0.38284302,-10.717773,0.17207146,9.896713,1.1030884,-0.23210144,9.744996,-0.24954462
-0.05782116,-0.01884285,21.780396,-0.2140616,-0.11754409,-36.48529,-0.3728003,0.15209961,1.1847383,-0.035232544,-0.027145386,-15.325928,0.02906704,9.559326,1.6223297,-0.22492981,9.734114,0.45316076
-0.063507125,-0.008558499,22.377014,-0.24278644,0.13992867,-36.190796,-0.12793507,-0.01991272,1.2464311,-0.23246765,0.16386414,-14.009094,0.026299477,9.800995,1.1652985,0.04067993,9.7261095,0.09861481
-0.07664867,-0.011707217,20.34607,-0.28364062,0.20694044,-36.158752,-0.24963686,-0.076416016,1.5020008,-0.349823,0.04951477,-13.856506,-0.04364872,9.556931,1.4356995,-0.035888672,9.688733,-0.20889139
-0.074283436,-0.012061207,19.018555,-0.30833393,0.22489594,-36.358643,-0.26067075,-0.11894226,1.4545541,-0.38726807,-0.05732727,-17.376709,0.060803413,9.865616,1.0217285,0.0047912598,9.69557,-0.17940354
-0.06820289,-0.010337169,18.255615,-0.3060615,0.21690428,-36.073303,-0.21821441,0.054611206,1.3321959,-0.119522095,0.026428223,-18.937683,-0.0012769699,9.968506,1.4428711,0.124420166,9.713321,-0.045056105
-0.07079249,0.0012771089,18.598938,-0.15962467,0.24629821,-35.583496,-0.04389426,0.046783447,1.3631425,0.120910645,-0.009490967,-18.112183,0.26799202,9.61676,1.6797638,0.33738708,9.708324,0.30104983
-0.07380576,0.0071152747,18.740845,-0.14777112,0.35154322,-37.10022,-0.12394366,-0.017959595,1.4070313,0.16549683,0.070892334,-17.23175,0.015552521,9.867996,1.1557312,0.26081848,9.698818,0.17308939
-0.05413961,0.019145412,18.293762,-0.13001987,0.50975466,-38.430786,-0.160411,0.061203003,1.0022523,0.1025238,0.08732605,-16.45813,0.15539742,9.820145,0.6269226,0.5048828,9.741972,-0.26285243
-0.0346139,0.03058927,18.138123,-0.10082326,0.66470385,-37.91504,-0.13096356,0.25558472,0.61421543,0.24533081,0.11958313,-13.243103,0.009772301,9.944565,0.899704,0.63648987,9.764799,0.13210177
-0.02955034,0.045763027,16.416931,-0.07336904,0.9363317,-39.648438,-0.03974253,0.18832397,0.5113013,0.2827301,0.12501526,-10.838318,0.09794235,10.059433,1.0169525,1.0265198,9.748447,0.4081505
-0.030204324,0.054567873,17.108154,-0.059270196,1.1013993,-40.16266,-0.11369395,-0.032928467,0.52677536,0.20349121,0.10803223,-11.454773,0.17269707,9.49472,0.6412811,0.9188385,9.730355,0.4162966
-0.022654679,0.062898524,16.253662,-0.055800807,1.2537553,-39.86664,-0.3796897,0.11972046,0.3738065,0.08584595,0.13198853,-10.041809,-0.13500023,9.645462,-0.13639832,0.8877411,9.718988,-0.18762621
-0.014785021,0.0736544,16.308594,-0.053697575,1.4540049,-42.036438,-0.4071716,0.07249451,0.21117224,-0.00944519,0.09007263,-8.366394,-0.27507305,9.578476,0.16270447,1.1318054,9.695961,-0.37258586
-0.016752815,0.07880616,15.507507,-0.03307576,1.5506438,-42.214966,-0.29819834,-0.002456665,0.27620596,0.18656921,-0.030136108,-6.1523438,-0.11827278,9.506683,0.5288086,1.3375854,9.679338,0.14402497
-0.015021629,0.06987466,15.492249,-0.01169526,1.3703196,-41.381836,0.10363865,-0.031219482,0.27782202,0.26519775,-0.007904053,-6.3079834,0.11919403,10.535599,0.06939697,1.6845398,9.706463,0.07162154
-0.031081786,0.084392816,15.071106,0.02028679,1.6358049,-40.304565,-0.21977127,0.0045776367,0.6405992,0.35487366,0.28292847,-7.041931,0.584218,8.011169,0.9571228,1.6486511,9.648013,-0.51226074
-0.0121718785,0.095407695,14.627075,0.04187922,1.8509372,-43.832397,-0.08890891,0.2557068,0.31578043,0.06813049,0.016052246,-4.272461,-0.5479193,10.21257,0.49531555,1.7802582,9.625213,0.10598892
0.016005684,0.100377485,14.11438,0.048031893,1.9713312,-43.49823,-0.14588213,0.23236084,-0.21737212,-0.00541687,0.10144043,-2.0401,-0.03410244,9.504288,0.04547119,1.689331,9.604009,0.43580925
0.025614938,0.11117364,12.550354,0.045535166,2.186845,-42.607117,-0.11602044,0.011474609,-0.3993001,0.008636475,0.018188477,-0.25024414,-0.21339607,9.219543,-0.6269226,2.1631165,9.551369,-0.042004555
0.029373577,0.10813662,12.303162,0.04803856,2.1327698,-43.58673,-0.07489133,0.04421997,-0.46992934,-0.005722046,-0.028671265,0.29449463,-0.0988636,9.561722,-0.41874695,2.0195465,9.560379,-0.08850449
0.034980327,0.10429375,12.731934,0.049798608,2.064743,-44.5755,-0.07257271,0.030410767,-0.5791943,0.023834229,-0.019500732,-1.0635376,0.04274559,9.937393,-1.0337067,2.0171509,9.569314,0.05937779
0.033789475,0.102323115,13.903809,0.05259081,2.0272677,-43.362427,-0.09722757,-0.004699707,-0.5523975,0.028549194,-0.0287323,-0.8407593,0.09368801,9.595215,-0.5096741,1.8999023,9.578905,-0.061188698
0.029172095,0.09937386,13.1362915,0.051628143,1.9654945,-43.540955,-0.10866511,-0.054367065,-0.46769124,-0.006881714,0.0046844482,-0.3112793,0.031863213,9.702896,-0.4905243,1.7802582,9.596274,-0.08423397
0.025669418,0.10063947,13.461304,0.048965055,1.9854685,-44.02008,-0.1209079,-0.028396606,-0.40348122,0.0231781,0.05055237,0.09765625,0.041054726,9.415756,-0.37327576,1.9908295,9.5950775,-0.07978806
0.02656013,0.10448551,12.391663,0.050488647,2.061034,-46.01288,-0.044965267,0.02809143,-0.4137607,0.02708435,0.066986084,-0.8468628,-0.007484436,9.5354,-0.43070984,1.9860382,9.5786915,-0.01913026
0.01615828,0.111276925,12.872314,-0.089847796,2.1313086,-43.792725,-0.021928549,0.026626587,-0.5097109,0.028060913,-0.03337097,-1.0513306,-0.06975937,9.262619,-0.5240326,2.2085724,9.558667,0.054005206
0.018651973,0.110690325,12.510681,-0.08495298,2.1183052,-43.310547,0.043181896,0.045928955,-0.5466169,0.03996277,0.062042236,0.14343262,0.060930252,9.652649,-0.61016846,2.0578308,9.559518,0.03529167
0.024954293,0.12158496,12.652588,-0.07962761,2.3196385,-43.5791,-0.1418221,0.096084595,-0.6739717,0.07685852,0.11268616,0.06561279,-0.02141571,9.669403,-0.6891327,2.428711,9.504496,0.10961896
0.025140924,0.13545053,10.629272,-0.06784884,2.591664,-43.670654,-0.13419318,-0.10769653,-0.667497,0.0717926,0.0664978,1.4251709,0.03791809,9.815353,-1.208374,2.7062836,9.434411,-0.017900884
0.019707661,0.12852636,11.11908,-0.07533811,2.4630787,-43.06183,0.11400318,0.063583374,-0.57205707,-0.05935669,-0.046813965,0.08544922,-0.06567955,10.308273,-0.055038452,2.8594208,9.47504,0.2534786
0.026539708,0.1150985,12.844849,-0.07707488,2.1947756,-43.196106,0.12221861,0.02607727,-0.6893215,-0.107681274,-0.19946289,0.8041382,-0.060646057,9.284149,-0.68196106,2.0650024,9.533006,-0.12990838
0.030404607,0.08958754,13.749695,-0.08152883,1.6947318,-43.659973,0.025051236,0.012145996,-0.7349207,0.037399292,-0.15872192,0.11444092,0.18641853,9.846466,-0.70588684,1.8903351,9.6311035,0.07292962
0.033459645,0.0942208,14.274597,-0.08950578,1.7725271,-44.436646,-0.06597757,0.054351807,-0.8157231,-0.06668091,-0.005645752,1.3397217,-0.026425362,9.207581,-0.59820557,1.7060852,9.610574,-0.07382661
0.028660703,0.08672728,14.363098,-0.0909436,1.6356966,-43.675232,-0.03135097,-0.0020751953,-0.7121377,-0.043655396,-0.041748047,1.6708374,-0.049072266,9.896713,-0.59103394,1.6390839,9.643016,-0.11570889
0.029138342,0.090274036,13.91449,-0.08992286,1.7039912,-42.588806,-0.036887646,-0.055343628,-0.725811,-0.004257202,0.007980347,0.53253174,0.038290024,9.296112,-0.447464,1.450058,9.630161,0.011479557
0.026602859,0.09229855,14.99939,-0.09022605,1.7474132,-42.69409,-0.06646085,-0.008743286,-0.68055344,-0.0052337646,0.0007171631,-0.70648193,-0.0100393295,8.982651,-0.3014984,1.5337982,9.625684,-0.089038014
0.028338216,0.09121861,14.453125,-0.09071659,1.7230856,-44.448853,-0.035968542,-0.012466431,-0.7132631,0.024520874,0.034301758,0.7019043,0.028606415,9.786652,-0.8805542,1.8544312,9.6277,-0.003652215
0.02703504,0.093009725,13.993835,-0.090716876,1.7599906,-42.497253,-0.039079905,-0.012527466,-0.69104475,-0.0035858154,0.025634766,0.61950684,-0.053383827,10.164719,-1.3208313,2.038681,9.622644,-0.004019916
0.03231656,0.09676277,14.323425,-0.08252388,1.8291217,-42.10968,-0.1744318,0.032546997,-0.78497106,-0.008651733,0.011520386,0.15106201,0.039248466,9.698105,-0.16989136,1.5074768,9.602527,0.16102582
0.050665278,0.11858954,12.397766,-0.0866739,2.2115543,-43.24951,-0.09665823,0.13963318,-1.1832421,-0.029296875,0.19941711,1.7471313,-0.052954674,11.100311,-2.7684937,2.7421722,9.480472,0.07821441
0.03350877,0.11480537,13.050842,-0.093719356,2.1639743,-42.437744,0.16819,0.05418396,-0.8606158,-0.042922974,0.10394287,1.7822266,-0.0069265366,9.243469,-0.7393799,2.3042908,9.526118,-0.38966513
0.012810356,0.08820728,12.5946045,-0.096135855,1.6909502,-42.851257,0.43332684,-0.13220215,-0.41540337,0.017425537,-0.11383057,0.39215088,-0.09218216,9.614365,0.18185425,0.088531494,9.650829,-0.41796714
-0.104714714,0.15829553,11.361694,-0.1705425,3.3521879,-42.17224,-2.04033,-0.40800476,1.4563342,-0.08984375,-0.08572388,-3.8391113,0.49291325,7.0420837,-6.5659027,9.241089,9.100127,-1.35658
-0.18266846,-0.01938704,15.54718,-0.06989173,-0.12242408,-38.087463,1.6603022,-2.0218658,3.539428,-0.32936096,0.24499512,-18.266296,-0.909214,6.1591187,7.800598,-1.3950195,9.144826,-0.27284765
-0.36057398,0.09207561,22.155762,0.16272536,0.4994347,-32.57141,-3.0951555,-0.17855835,6.756296,1.0210266,-1.2772217,-22.357178,0.4108262,4.9483643,5.704483,-3.7088776,7.0903745,-1.0137725
-0.60088044,-0.054136526,23.893738,0.2077079,-3.265451,-7.823181,-0.46796417,-0.61906433,8.853864,3.3505707,-2.1049652,-37.21161,3.8590722,10.291534,7.228714,-8.128418,2.6676428,-2.5779676
-0.4054062,-0.46076077,41.00952,0.23682468,-8.68947,11.442566,0.1376915,2.1011505,3.8484974,1.5488739,-1.5163879,-18.769836,6.903061,3.6466675,12.753738,-1.4979095,2.419209,7.471606
-0.46570975,-0.48372352,39.888,0.19709347,-8.577502,18.79425,2.8524733,-0.8792267,4.6549397,-0.649765,-0.3563385,-13.9328,1.2666132,0.9499512,6.891327,-12.660431,0.96352303,-0.098879814
-0.46845135,-0.48192525,38.516235,0.20360503,-8.5999775,24.900818,1.4470177,0.68429565,4.616635,1.5844269,-0.34498596,-2.0370483,0.28526878,-2.0195465,0.29670715,-8.645264,0.94734955,-0.38981533
-0.24838206,-0.6387965,36.13434,0.23583433,-9.780457,27.677917,-2.3515959,0.90426636,0.40145007,1.4517517,-1.0949402,-2.4429321,0.14895034,-1.1724854,-1.0073853,-8.934799,0.5932122,3.4928756
-0.25348192,-0.592858,40.19165,0.2759172,-9.660548,18.144226,-2.4580164,0.2616272,0.33561218,-0.44786072,1.6730347,-3.9489746,-0.95389354,-2.646469,1.105484,-10.073776,1.6527401,0.18487105
-0.24675864,-0.603652,39.3631,0.26231065,-9.690698,19.195557,-0.124461174,-0.09768677,0.33672336,0.22421265,-0.25787354,-4.219055,-1.6257707,1.0695953,-0.3014984,-10.593033,1.4653975,0.34836513
-0.23977111,-0.60254055,40.208435,0.2557854,-9.675753,17.054749,-0.56492233,0.22753906,0.34881693,-0.064971924,0.21499634,-4.9209595,-1.0903455,0.090927124,0.3900299,-10.107285,1.5583694,-0.33664045
-0.2523914,-0.60918397,39.756775,0.28038806,-9.722388,16.409302,0.0021648407,0.057418823,0.10292512,0.054870605,-0.04095459,-2.4215698,-0.27220726,1.385437,0.899704,-9.403793,1.2786597,0.7629747
-0.2796476,-0.5791329,39.96277,0.32673916,-9.658727,15.527344,0.22687435,-0.3921814,0.08724414,0.17649841,-0.028549194,1.6830444,-0.32358754,0.22492981,0.8901367,-7.7695007,1.6946336,0.48477292
-0.29935977,-0.5337099,41.69159,0.34470356,-9.475317,13.12561,2.3606806,-0.661026,0.57123154,0.14393616,0.26081848,4.396057,-0.7049265,1.7874451,4.290329,-8.566299,2.4622042,-0.6523604
-0.31242302,-0.47858313,41.68091,0.347732,-9.107441,10.185242,-0.06709862,-0.1088562,1.2904031,-0.42044067,0.5891571,0.59051514,-0.31004906,3.4959106,1.7826538,-9.6957245,3.3999665,-0.12207234
-0.32203904,-0.41550317,42.485046,0.34813118,-8.524261,6.07605,-0.81354046,-0.21002197,2.065478,-0.36412048,0.5587311,-2.0614624,-0.3511114,4.3908234,2.2588196,-8.6931305,4.386475,-0.42387724
-0.3276859,-0.35075182,43.21289,0.35959405,-7.8158674,2.0599365,-0.96186495,-0.19792175,2.6689637,-0.3287506,0.6465149,-3.6697388,-0.35829592,5.3312073,1.9692993,-8.298309,5.2876506,-0.3750844
-0.32370016,-0.28864685,45.20874,0.36050448,-6.9638696,-4.9468994,-1.39222,-0.21984863,3.201902,-0.2758484,0.65200806,-5.166626,-0.15747643,6.8315125,3.4839478,-8.085342,6.117412,-0.7047701
-0.28466058,-0.2621054,47.85919,0.33698228,-6.2938237,-8.963013,-3.0469937,-0.027374268,3.059769,-0.3576355,0.5575104,-0.8178711,0.83762264,7.417755,3.069992,-7.625931,6.8699336,0.68256474
-0.30793595,-0.27422616,48.90747,0.33782896,-6.5909767,-8.724976,-0.22668123,0.26567078,3.2929971,-0.24224854,0.083724976,-1.4938354,-0.36211443,5.8672028,2.8713837,-5.934204,6.471908,-0.65525985
-0.2880332,-0.2875314,48.672485,0.34452164,-6.7171044,-8.296204,-0.0484519,0.0848999,2.836221,0.13433838,-0.09048462,1.6372681,0.12831879,6.9224396,4.342972,-7.7886353,6.557954,0.328758
-0.3064668,-0.27887747,48.87848,0.34632716,-6.685253,-7.3120117,-0.06555939,-0.002380371,3.1646607,0.058410645,-0.049743652,2.6184082,-0.12256956,6.5036926,3.0341034,-7.0037994,6.4391537,0.093708515
-0.20304738,-0.34638637,50.66223,0.050693657,-6.414454,-9.378052,-0.5745168,-0.07470703,3.2973297,-0.08476257,0.12831116,2.922058,0.07759094,6.3912354,3.103485,-6.685547,6.644755,-0.26628637
-0.20120978,-0.3471997,49.90387,0.03734935,-6.3795915,-9.152222,-0.16754007,0.011230469,3.3573542,-0.1687622,0.04084778,-0.8102417,-0.30097437,6.747757,3.5653076,-6.47258,6.6482615,-0.12440848
-0.19914685,-0.3454534,49.98932,0.033745196,-6.3411336,-9.443665,-0.1556797,0.092178345,3.350911,-0.069610596,-0.0014953613,-0.64697266,0.11185837,6.5060883,3.2015991,-6.4414825,6.688184,-0.005543947
-0.19337854,-0.3388047,49.816895,0.04040256,-6.265929,-10.108948,-0.20353746,0.0012817383,3.2204442,0.006790161,0.032836914,-0.016784668,-0.27337646,6.8123627,3.1465607,-6.5108643,6.821822,0.07151055
-0.19065468,-0.3328641,49.31183,0.04192577,-6.179688,-11.64093,-0.31024647,0.054244995,3.1760302,0.05657959,0.119400024,-0.1296997,-0.114806175,6.9344025,3.0867462,-6.278763,6.920597,-0.088765144
-0.19074684,-0.3310203,50.33264,0.03753376,-6.1353793,-11.553955,-0.141016,0.010314941,3.2108457,-0.022216797,0.041397095,0.9613037,0.04884243,6.879364,3.081955,-6.2596283,6.9439163,-0.10494757
-0.19019383,-0.3297664,50.382996,0.035465673,-6.108716,-11.862183,-0.13530779,0.008850098,3.2175329,-0.044326782,0.010604858,-0.48828125,-0.053593636,6.9224396,3.2183533,-6.2524414,6.964299,-0.02423048
-0.19144952,-0.33029836,50.39673,0.037499517,-6.1234355,-10.813904,-0.13621473,0.0024871826,3.224755,-0.0029754639,0.008956909,-0.15716553,-0.053014755,6.8147583,3.1776733,-6.312271,6.9480133,0.0047831535
-0.18977493,-0.3324779,49.78485,0.037096795,-6.157441,-12.168884,-0.13348007,-0.011062622,3.193882,0.010772705,0.005706787,0.36773682,-0.068769455,6.924835,3.2087708,-6.254837,6.932202,-0.039893866
-0.18986177,-0.3328575,50.126648,0.036444865,-6.161109,-11.378479,-0.07025337,0.01171875,3.1989548,-0.0137786865,0.014022827,1.1932373,-0.023663044,6.960724,3.213562,-6.209381,6.926602,-0.009213448
-0.18995036,-0.33362737,49.900818,0.03549784,-6.1698833,-12.878418,-0.03432989,-0.0022125244,3.2052388,-0.009811401,0.0063323975,-0.1953125,0.011956692,6.9344025,3.2231293,-6.197418,6.915878,-0.020970583
-0.19087303,-0.33461386,49.6109,0.036011774,-6.1865764,-11.630249,-0.0070586205,-0.009292603,3.2157512,-0.0066986084,-0.0073547363,1.0879517,-0.008972168,6.8889313,3.2518463,-6.209381,6.8960567,0.017167807
-0.19021773,-0.3351764,49.24469,0.037791386,-6.202006,-12.229919,-0.039350986,0.0010375977,3.1912808,0.010894775,-0.0032043457,0.98724365,-0.0307827,6.920044,3.1585236,-6.276367,6.893565,-0.004270792
-0.19034213,-0.33521816,49.801636,0.03827849,-6.204271,-10.748291,-0.024251938,0.00065612793,3.190069,0.009002686,0.012008667,0.7827759,-0.004893303,6.8937225,3.225525,-6.2237244,6.8920875,-0.0072448254
-0.19012488,-0.3349753,49.388123,0.038791794,-6.202364,-11.326599,-0.018902302,-0.0053253174,3.1833673,0.0027008057,0.0047454834,-0.045776367,-0.02361679,6.90329,3.1776733,-6.250046,6.896901,0.008188963
-0.18968323,-0.3346766,49.81079,0.038149416,-6.1957216,-12.5564575,-0.024059296,0.012878418,3.180666,-0.0029144287,0.011459351,0.6881714,-0.01695013,6.9798584,3.1968079,-6.2189484,6.9041147,0.0023612976
-0.18961743,-0.33427793,49.064636,0.037889574,-6.188601,-11.611938,0.0052924156,0.0019378662,3.182105,-0.0066986084,0.0033874512,1.6281128,0.015109062,6.9152527,3.1872406,-6.2165527,6.909834,-0.014126539
-0.19023864,-0.33332458,49.02191,0.038017973,-6.1736784,-12.571716,-0.012014389,-6.1035156e-05,3.194003,-0.004196167,0.008163452,0.89416504,-0.017761707,6.948761,3.1752777,-6.2237244,6.9176893,0.012526512
-0.19058384,-0.3337294,49.809265,0.035790265,-6.1720934,-11.802673,0.008116722,-0.002090454,3.2140493,-0.008224487,0.0020446777,0.7751465,0.01866436,6.8841553,3.270996,-6.1615143,6.909815,-0.0041508675
-0.22761184,-0.30845338,49.13025,0.14410952,-6.162527,-11.778259,-0.02132988,0.008911133,3.200852,-0.018127441,-0.007293701,0.42419434,-0.026058674,6.9966125,3.1872406,-6.262024,6.924463,0.0017035007
-0.23111804,-0.31116477,49.954224,0.14073962,-6.1978827,-12.6449585,0.008895874,0.007751465,3.2707026,-0.023986816,0.001449585,1.739502,0.030216694,6.735794,3.4695892,-6.1280212,6.8599663,-0.035094976
-0.23504141,-0.31100252,49.913025,0.14306112,-6.20852,-12.356567,-0.10255766,-0.05168152,3.32105,-0.0051116943,-0.019760132,0.050354004,-0.057928562,6.908081,3.282959,-6.422333,6.8260756,-0.067917824
-0.24427357,-0.320268,49.293518,0.13304192,-6.32576,-12.010193,0.23191833,-0.05857849,3.5028956,-0.07487488,-0.033065796,-0.4562378,0.18558359,6.5491486,3.5820618,-6.1878357,6.624565,-0.056657314
-0.23441157,-0.3216554,49.032593,0.13022698,-6.327627,-9.558105,-0.016022205,0.012390137,3.3534608,-0.01953125,-0.10038757,-0.7720947,-0.0028529167,6.546768,3.3356018,-6.467804,6.6996884,0.0570364
-0.23520207,-0.3241234,48.580933,0.11569103,-6.312179,-9.295654,-0.027040482,0.1065979,3.4577298,-0.040481567,-0.026290894,-2.0767212,-0.05409336,6.6687927,3.4791565,-6.3625183,6.6611476,0.111050844
-0.23625538,-0.32906395,49.066162,0.10841828,-6.361511,-8.656311,0.15741396,0.0056762695,3.506896,-0.12667847,-0.07209778,-2.3712158,0.05812311,6.546768,3.419342,-6.3601227,6.588114,0.093559265
-0.23240116,-0.32886985,49.990845,0.1083425,-6.356439,-7.7453613,-0.02679491,0.049468994,3.4440653,-0.028747559,-0.014251709,-1.5182495,-0.033931732,6.6592255,3.500702,-6.30748,6.626046,0.025487661
-0.2314466,-0.32584783,48.3963,0.113516904,-6.3285027,-9.576416,0.047414303,0.011047363,3.4035795,0.027389526,0.008224487,-1.6021729,0.022509575,6.75972,3.426529,-6.3720856,6.6735363,0.05814314
-0.22989874,-0.32346475,48.46039,0.12197017,-6.321603,-9.109497,0.020980835,0.002319336,3.328313,0.061584473,0.009750366,-1.6769409,-0.04356575,6.6137695,3.3475647,-6.551544,6.7178917,0.07464671
-0.23137078,-0.3232899,49.850464,0.1310711,-6.3532977,-8.94928,-0.14874077,-0.0034942627,3.290129,0.09140015,0.05911255,-0.48828125,-0.13404894,6.6759796,3.242279,-6.4534454,6.706792,-0.03880787
-0.22470364,-0.3195552,49.02649,0.12721875,-6.2748237,-8.848572,-0.09217405,-0.00012207031,3.2207055,0.035079956,0.018417358,0.27923584,-0.08146906,6.7501526,3.2159576,-6.45105,6.813518,-0.016450882
-0.22312571,-0.3191618,49.223328,0.120224394,-6.2424655,-9.049988,-0.05234003,0.080322266,3.2437022,-0.054840088,0.03778076,-1.1611938,0.007419586,6.8697968,3.1274261,-6.2644043,6.832306,-0.0033488274
-0.22492835,-0.3184724,48.181152,0.117784314,-6.224331,-10.598755,-0.013914585,0.015563965,3.293369,-0.054718018,-0.0069885254,-1.701355,0.06495428,6.8362885,3.2518463,-6.262024,6.8250866,-0.10450816
-0.22793005,-0.31642944,48.40088,0.11987525,-6.202118,-10.179138,-0.04973221,-0.027252197,3.3375118,-0.012252808,0.007247925,-1.6067505,-0.022236347,6.7621155,3.2996979,-6.30748,6.8238654,-0.057348967
-0.23025955,-0.3161079,48.04535,0.12124004,-6.2039485,-7.585144,-0.030702591,-0.0440979,3.3685682,0.0038604736,0.016708374,-2.2476196,-0.049969673,6.817154,3.4217377,-6.214157,6.8069205,0.0024905205
-0.23011957,-0.3157912,49.417114,0.12045701,-6.1959543,-8.891296,-0.012992859,0.0053100586,3.3727887,-0.0055389404,0.017868042,-0.4272461,0.0017399788,6.879364,3.397812,-6.180664,6.812109,0.009027004
-0.22848874,-0.3162997,48.35663,0.118956685,-6.1971493,-9.757996,-0.0272336,0.006591797,3.3536334,-0.008895874,-0.006866455,-1.1230469,-0.0008444786,6.898514,3.3930206,-6.254837,6.8204737,-0.042897224
-0.22899485,-0.31474012,48.791504,0.11859462,-6.171611,-9.292603,0.0037846565,0.0009765625,3.3706326,-0.013717651,0.0060272217,-1.1001587,-0.009557247,6.855438,3.5030975,-6.1782684,6.8352356,0.019179583
-0.2284143,-0.31538,48.425293,0.11984645,-6.185856,-6.9595337,-0.030817986,0.0071411133,3.3499298,0.005584717,0.015548706,-0.85754395,-0.01582241,6.9439697,3.3954163,-6.273987,6.8325357,-0.005420208
-0.22985685,-0.31553423,48.9151,0.11710007,-6.1792636,-8.276367,0.022613049,-0.0064849854,3.3921366,-0.012634277,-0.009429932,-1.3290405,0.042146206,6.8362885,3.4695892,-6.180664,6.8176613,-0.017071724
-0.23125458,-0.31670702,47.758484,0.117275044,-6.199416,-8.666992,-0.025646687,-0.018829346,3.4098444,-0.0029754639,-0.008636475,-1.2237549,-0.020898342,6.7812653,3.448059,-6.278763,6.7904773,-0.0076584816
-0.23253855,-0.31721812,47.973633,0.11503753,-6.1999483,-9.52301,-0.03245163,0.009216309,3.4445674,-0.011398315,0.006011963,-1.3778687,0.005002022,6.8315125,3.4432678,-6.2117615,6.772443,-0.02141881
-0.2343472,-0.316182,46.99402,0.11303309,-6.1771936,-9.776306,0.0192132,-0.0065460205,3.4923716,-0.02935791,-0.0058898926,-1.9088745,-0.00045013428,6.8075867,3.505478,-6.2596283,6.768753,0.008104324
-0.23567887,-0.31632566,47.89734,0.111786455,-6.175469,-10.166931,-0.012740135,-0.012527466,3.5225096,-0.01776123,0.002105713,-2.59552,-0.0033726692,6.752548,3.5796661,-6.202194,6.7546935,-0.0038027763
-0.2370706,-0.3154577,47.792053,0.112359494,-6.1648507,-9.837341,0.0008149147,-0.004776001,3.5451574,-0.014328003,-0.0014343262,-1.953125,-0.013994694,6.7860413,3.6681976,-6.1782684,6.752545,0.011620522
-0.2380236,-0.31545535,48.161316,0.11272838,-6.166818,-9.269714,-0.0124902725,-0.008987427,3.5585577,-0.00016784668,0.0049743652,-2.89917,0.023547173,6.75972,3.4624176,-6.3026886,6.743694,-0.019726515
-0.23774372,-0.31699157,47.756958,0.10665905,-6.1670485,-7.600403,-0.02535963,-0.019058228,3.5891528,-0.021972656,-0.010650635,-3.3050537,-0.042278767,6.752548,3.7710876,-6.1423798,6.72725,-0.03631401
-0.23899347,-0.31454036,47.62268,0.10589814,-6.12602,-7.032776,-0.0026893616,0.042144775,3.6241891,-0.05256653,-0.0010681152,-3.0654907,-0.037569523,6.764511,3.6299133,-6.1136627,6.7459254,0.090532064
-0.23798919,-0.3123334,47.187805,0.107827,-6.098304,-10.023499,0.005929947,0.013977051,3.6026902,-0.004196167,0.023849487,-2.3025513,-0.00756979,6.8602295,3.5844421,-6.118454,6.782456,0.024963856
-0.23670566,-0.31126073,47.860718,0.10753713,-6.079507,-8.047485,0.007816792,0.014282227,3.587142,-0.008163452,0.004180908,-2.9022217,0.009976864,6.8530426,3.6586304,-6.089737,6.8075256,0.00651145
-0.23553038,-0.31165868,48.5672,0.10720399,-6.083889,-8.912659,-0.013404369,-0.007888794,3.568225,0.015838623,0.0011291504,-2.2338867,0.0068888664,6.8362885,3.550949,-6.16391,6.8135486,-0.023416758
-0.23585393,-0.31266785,48.272705,0.10966443,-6.109632,-10.098267,-0.014160633,-0.00831604,3.5534859,0.015655518,-0.0027160645,-2.4169922,-0.01872158,6.8362885,3.5724792,-6.1567383,6.7982006,-0.0123102665
-0.2355194,-0.31315532,47.33734,0.11042041,-6.1200843,-9.692383,-0.008361816,0.0028076172,3.5410066,0.004119873,0.0022888184,-2.2140503,-0.0051255226,6.8315125,3.5677032,-6.1375885,6.79531,-0.005919218
-0.23595794,-0.31279993,47.299194,0.11027617,-6.114159,-9.648132,0.0036725998,-0.0008087158,3.5506377,-0.0068206787,0.0010070801,-1.651001,0.00017976761,6.850647,3.6011963,-6.135193,6.7956176,0.01268816
-0.23609474,-0.3126839,48.005676,0.110139854,-6.111873,-9.446716,-0.012104034,-0.0020751953,3.554272,-0.004196167,0.0018005371,-3.0670166,-0.0045666695,6.8745728,3.7567291,-5.9940186,6.795774,-0.002142191
-0.23708592,-0.31351128,48.22693,0.10856899,-6.1193657,-9.448242,0.013022423,0.0064086914,3.578263,-0.0055389404,-0.017501831,-1.9317627,-0.012969971,6.7501526,3.460022,-6.273987,6.776414,0.0038888454
-0.23443209,-0.31482607,48.15674,0.1101075,-6.144635,-10.289001,-0.0382843,0.020828247,3.5186605,0.00894165,0.012191772,-2.0233154,-0.025906563,6.817154,3.550949,-6.1017,6.7847533,-0.026127338
-0.23269996,-0.31433576,48.002625,0.108067386,-6.128075,-8.918762,-0.025800228,0.01586914,3.5051792,-0.018493652,0.013473511,-3.0639648,0.018299103,6.929611,3.694519,-6.070587,6.806673,-0.008594751
-0.23206753,-0.31318396,46.87805,0.10385973,-6.093345,-8.827209,-0.055419445,-0.017852783,3.5268786,0.10643005,0.0055389404,-3.515625,-0.0076465607,6.9128723,3.5485535,-5.974884,6.826615,-0.03344989
-0.23277603,-0.31495515,47.875977,0.111900926,-6.152553,-8.505249,-0.12172556,-0.003189087,3.4783797,-0.057281494,-0.048828125,-2.7435303,0.0035886765,6.764511,3.4241333,-6.20459,6.798334,-0.13946223
-0.23377259,-0.31623062,48.060608,0.10859152,-6.1605787,-8.972168,0.1299243,-0.012954712,3.512601,0.038619995,0.012252808,-3.302002,0.0268116,6.8937225,3.6179504,-6.118454,6.773425,0.11487317
-0.23402682,-0.31493062,48.675537,0.11395099,-6.1607804,-6.6436768,0.010513306,-0.031280518,3.4855833,0.023361206,-0.0030212402,-3.6590576,-0.038462162,6.8123627,3.4671936,-6.22612,6.787186,0.055906773
-0.2356213,-0.3159851,48.110962,0.113623485,-6.1771574,-9.143066,0.0012712479,-0.01600647,3.5104067,-0.018798828,-0.042114258,-2.5787354,0.043337822,6.6424713,3.517456,-6.1878357,6.7594495,-0.049901962
-0.23741353,-0.31787768,48.275757,0.11284299,-6.204972,-8.21991,-0.00111866,-0.027008057,3.5383346,-0.021850586,-0.0042419434,-2.1591187,-0.0538435,6.8410797,3.596405,-6.238083,6.719293,0.023771048
-0.24013618,-0.31714058,48.07892,0.111939155,-6.191423,-8.454895,-0.004044056,0.016967773,3.5926073,-0.022460938,0.016525269,-2.9769897,-0.0076498985,6.7166595,3.6299133,-6.2285156,6.702972,0.0025389194
-0.24126174,-0.31617302,47.86682,0.11041215,-6.170785,-8.621216,-0.016206264,-0.009292603,3.62537,-0.006576538,-0.013412476,-1.7807007,-0.018696785,6.7166595,3.6921234,-6.1423798,6.7043633,0.01905036
-0.24283198,-0.31613335,46.69342,0.109825015,-6.1686187,-8.660889,0.061157227,0.0029144287,3.6555643,-0.009628296,-0.007904053,-2.9586792,0.053984642,6.5443726,3.4983063,-6.2285156,6.6899467,0.038517237
-0.24044077,-0.31846508,48.114014,0.10820371,-6.1975627,-7.9727173,-0.061192513,0.04019165,3.618042,-0.036514282,0.012252808,-3.453064,-0.08527899,6.649658,3.7591248,-6.2309113,6.683589,-0.05735898
-0.24064611,-0.31731522,48.416138,0.10746969,-6.176701,-7.7697754,-0.022366047,0.049957275,3.6307662,0.010528564,0.046463013,-3.277588,-0.07645035,6.809967,3.6490479,-6.1543427,6.6959906,0.062164545
-0.23794739,-0.31437942,48.406982,0.10806635,-6.1315465,-9.989929,-0.020468235,0.0178833,3.59278,0.005645752,0.028747559,-2.571106,0.00017595291,6.8650055,3.6107635,-6.0873413,6.757696,0.021782875
-0.23810808,-0.31317678,48.205566,0.11227033,-6.1291585,-10.113525,0.050280094,-0.017166138,3.571748,0.041610718,0.020004272,-2.3406982,0.057697296,6.8123627,3.6059875,-6.1208344,6.7709985,-0.009346247
-0.23818035,-0.31365475,48.38867,0.11589395,-6.150885,-10.025024,0.047721386,-0.011795044,3.5467246,0.029586792,-0.00039672852,-1.7684937,0.06586695,6.8147583,3.5796661,-6.242874,6.764447,-7.534027e-05
-0.23773547,-0.3149292,47.72339,0.11620757,-6.1718855,-9.327698,0.0024886131,-0.00036621094,3.5322406,0.016937256,-0.012496948,-1.7913818,0.010488987,6.8410797,3.620346,-6.20459,6.7528877,-0.011853933
-0.23725688,-0.31521854,48.931885,0.121432535,-6.196221,-9.017944,0.06293726,-0.0040283203,3.4876664,0.059143066,-0.01121521,-3.3447266,0.032503605,6.7812653,3.3666992,-6.376877,6.75377,0.04402566
-0.2343251,-0.31867096,49.08905,0.11998639,-6.2427,-9.309387,-0.042361736,0.01838684,3.434956,-0.008590698,-0.016281128,-1.0070801,-0.008707523,6.7621155,3.6011963,-6.1878357,6.7379646,-0.06628418
-0.23671898,-0.31703368,48.490906,0.12553522,-6.239905,-9.873962,0.047630787,-0.0009918213,3.4433634,0.060791016,0.010360718,-1.2802124,-0.027661324,6.611374,3.1417694,-6.558731,6.7362623,0.13077688
-0.23463313,-0.31732273,48.81897,0.12937626,-6.2569904,-9.303284,-0.20179796,0.0006713867,3.3810732,-0.005844116,-0.008880615,-0.69732666,-0.078608036,6.6927185,3.4169464,-6.1950226,6.7519493,-0.17590833
-0.2379107,-0.31996304,47.776794,0.11167105,-6.2333713,-8.0581665,-0.01349926,0.034561157,3.5466175,-0.1504364,-0.048034668,-3.0670166,0.037503242,6.8243256,3.7112732,-6.173477,6.6885695,-0.17312193
-0.24063997,-0.3177288,48.373413,0.11889831,-6.228272,-8.2473755,0.069796085,-0.03970337,3.5511842,0.05267334,0.022262573,-2.8823853,0.047622204,6.628113,3.4791565,-6.3936157,6.6908975,0.14170289
-0.24192053,-0.3169122,47.781372,0.114272766,-6.1980896,-10.014343,-0.18472004,0.0061035156,3.6072323,-0.087875366,-0.0070495605,-3.2440186,-0.113969326,6.788437,3.6442719,-6.22612,6.6889415,-0.22242737
-0.24809328,-0.31901145,47.525024,0.10726873,-6.205646,-8.345032,-0.0034475327,-0.05986023,3.7490008,-0.050247192,-0.041015625,-4.689026,0.17274094,6.520447,3.7543335,-6.12323,6.603434,-0.124242544
-0.250262,-0.31651464,48.110962,0.11327698,-6.192416,-8.378601,0.06148672,-0.045150757,3.7533803,0.049682617,0.032470703,-4.663086,-0.05984497,6.55394,3.7328033,-6.3433685,6.613358,0.054858923
-0.2547488,-0.3172344,47.695923,0.11471463,-6.2119255,-8.700562,-0.11008835,-0.035125732,3.8143368,-0.012130737,-0.012542725,-4.3640137,-0.021855354,6.541977,3.907486,-6.2644043,6.55997,-0.102594376
-0.25460255,-0.31849194,48.033142,0.11375325,-6.227406,-7.53479,0.0022969246,0.010314941,3.813521,0.00050354004,-0.019332886,-3.5339355,-0.03668785,6.5563354,3.8237305,-6.2859497,6.545751,0.042930603
-0.25246808,-0.31990334,47.77832,0.11374727,-6.2483263,-9.216309,0.012543678,0.019897461,3.7729805,0.018341064,-0.0033874512,-4.281616,-0.0057935715,6.592224,3.7567291,-6.352951,6.549307,0.013182402
-0.25152627,-0.32045797,47.982788,0.11848597,-6.2760553,-8.610535,-0.03819418,-0.011062622,3.7225506,0.040023804,0.013961792,-3.302002,-0.01870203,6.6089783,3.7471619,-6.3505554,6.5516505,-0.0104346275
-0.2518511,-0.3207925,47.63031,0.12017545,-6.2883825,-8.91571,-0.033512115,-0.018753052,3.714782,0.008514404,0.008834839,-3.1600952,-0.0057940483,6.551544,3.7830505,-6.317047,6.5442367,-0.028996468
-0.2536512,-0.31933025,48.225403,0.12176195,-6.273322,-8.6502075,-0.02866745,-0.002456665,3.7392638,-0.008285522,0.029296875,-2.9708862,-0.046509266,6.6017914,3.7543335,-6.3266296,6.544748,0.01475668
-0.25227678,-0.3180283,47.257996,0.11969306,-6.2436695,-9.436035,-0.05036354,0.022232056,3.7364166,-0.034317017,0.022750854,-3.3416748,-0.039818764,6.620941,3.7734833,-6.2285156,6.5746613,-0.02600646
-0.25106153,-0.3159574,48.023987,0.117426574,-6.201269,-8.403015,0.03384924,0.02607727,3.7404137,-0.012924194,0.008102417,-2.6565552,0.009749413,6.6879425,3.7256317,-6.2285156,6.6124086,0.026863575
-0.24955873,-0.31515032,48.19641,0.11677644,-6.185076,-9.841919,0.0072522163,0.010559082,3.723358,0.0022277832,0.006942749,-3.5446167,0.017326832,6.661621,3.7734833,-6.242874,6.6371546,0.0007071495
-0.24935432,-0.31483692,48.347473,0.11826407,-6.18613,-8.387756,-0.0009255409,0.008300781,3.711113,0.011444092,0.0059051514,-3.2852173,-0.009792805,6.6472626,3.6873474,-6.312271,6.6430273,0.024810553
-0.24879315,-0.316032,46.931458,0.1170466,-6.199533,-9.255981,-0.044647694,-0.004470825,3.7053876,-0.018188477,-0.009307861,-3.8375854,-0.013740063,6.6879425,3.830902,-6.1088715,6.6337233,-0.03576851
-0.2503596,-0.31535158,47.66388,0.11599923,-6.185499,-9.333801,0.057208538,-0.0158844,3.7410328,0.00032043457,-0.009246826,-3.8070679,0.0379076,6.5970154,3.6275177,-6.4630127,6.6268134,0.01701665
-0.2511403,-0.31907043,48.350525,0.111571014,-6.2256804,-8.418274,-0.11378145,-0.029266357,3.7694564,-0.06942749,-0.022018433,-4.33197,-0.013902664,6.546768,4.043869,-6.0012054,6.5728607,-0.11925173
-0.25078526,-0.31459713,47.676086,0.10325602,-6.120726,-9.6710205,0.10467243,0.08093262,3.837229,-0.07597351,0.058547974,-4.774475,-0.06203842,6.776474,4.175476,-6.0801697,6.6319513,0.06674647
-0.24061428,-0.30930105,48.028564,0.101951756,-6.027986,-8.6883545,0.01928091,0.08282471,3.6965752,0.011199951,0.044265747,-4.8309326,-0.07943964,6.7716827,3.7088776,-6.1591187,6.7947855,0.22922778
-0.2397035,-0.3103882,47.088623,0.09838022,-6.030465,-9.410095,-0.11793327,0.02192688,3.7010424,-0.040603638,-0.012542725,-4.7973633,-0.09273577,6.8027954,3.8476562,-5.9437714,6.790152,-0.03906393
-0.23412214,-0.3117582,48.22693,0.09190202,-6.0246263,-9.056091,0.08077717,0.042755127,3.645475,0.021026611,0.012069702,-4.1000366,-0.059681892,6.896118,3.5246277,-6.0227356,6.8253036,0.12626958
-0.23129168,-0.31157553,47.346497,0.09383087,-6.028569,-9.7595215,0.015319347,0.009277344,3.5858061,0.025726318,0.007858276,-4.2251587,0.024011135,6.9152527,3.4791565,-6.077774,6.8533745,0.058135033
-0.23018101,-0.31113508,47.02301,0.08797814,-5.9983373,-9.805298,-0.023774147,0.03793335,3.6069136,-0.056854248,-0.0046691895,-4.722595,0.027643204,6.9655,3.8117676,-5.893524,6.8688064,-0.039544344
-0.23223242,-0.3113969,47.24121,0.08597157,-5.9949136,-9.127808,-0.055980206,-0.07244873,3.653755,-0.009689331,-0.01927185,-3.5812378,-0.03435421,6.90329,3.883545,-5.60878,6.847005,-0.011734724
-0.23732983,-0.31133825,47.30072,0.108247794,-6.0838594,-9.288025,0.34339237,-0.07562256,3.592562,0.20349121,0.061920166,-4.866028,0.052302837,7.0133667,3.390625,-6.644867,6.800776,0.25144625
-0.23906364,-0.31351152,47.982788,0.09804852,-6.0783997,-9.210205,-0.42235756,-0.009475708,3.6815324,-0.1619873,-0.07637024,-3.3874512,0.051781178,6.7166595,4.1228333,-5.761917,6.7579412,-0.3848374
-0.23666404,-0.31242317,47.499084,0.0920949,-6.036543,-8.830261,0.25392342,0.05809021,3.6846006,-0.007003784,0.0137786865,-4.0496826,-0.11097002,6.7046967,3.6131592,-6.1423798,6.793692,0.27079654
-0.2390088,-0.31375292,47.331238,0.09259066,-6.060116,-8.325195,-0.07700062,-0.03567505,3.7160187,-0.007003784,-0.011581421,-4.2938232,-0.0402956,6.850647,3.8883362,-6.1615143,6.7554855,-0.050793886
-0.24679814,-0.31235594,47.67914,0.095072925,-6.0499067,-7.371521,0.024130821,-0.08509827,3.8340793,0.0062408447,0.0059661865,-5.558777,0.07206535,6.71904,3.929016,-6.0131683,6.6984215,0.01566863
-0.24631542,-0.3103199,48.641968,0.100744486,-6.041289,-6.135559,0.04515171,0.003112793,3.7957642,0.043502808,0.029541016,-5.1849365,-0.05989456,6.6065826,3.6299133,-6.24527,6.727956,0.065351486
-0.24556732,-0.31282017,47.924805,0.09556959,-6.0590544,-8.404541,-0.16809988,0.018325806,3.808724,-0.069503784,-0.038391113,-3.062439,-0.09362173,6.754944,4.2305145,-5.716461,6.704615,-0.13666701
-0.24854304,-0.31230384,47.11151,0.09037468,-6.0294585,-6.744385,0.20060635,0.0060424805,3.8942857,-0.0044403076,0.0029144287,-5.2581787,0.04503727,6.838684,3.7734833,-6.2668,6.682108,0.21777439
-0.24126954,-0.31127205,46.676636,0.101066105,-6.055913,-9.9609375,-0.035545826,0.028762817,3.7062738,0.08798218,0.028137207,-4.496765,-0.0732851,6.757324,3.728012,-6.0921326,6.764602,0.095220804
-0.24280533,-0.31248507,47.894287,0.09459754,-6.049102,-9.025574,-0.10521412,0.006164551,3.7704227,-0.061920166,-0.020370483,-4.6783447,-0.05101347,6.8195496,3.7591248,-6.111267,6.735181,-0.08759427
-0.24308416,-0.3126065,47.14203,0.09733925,-6.062391,-8.784485,0.03553915,-0.008743286,3.7564576,0.021759033,0.0039367676,-5.0323486,-0.008618355,6.7860413,3.9888306,-5.9533386,6.7310343,0.042713642
-0.24382725,-0.31231245,47.2641,0.09643748,-6.0542197,-8.52356,0.004708767,-0.00024414062,3.7758417,-0.004501343,-0.00064086914,-5.345154,-0.03178644,6.788437,3.9792633,-6.0921326,6.7275424,0.07223368
-0.24446867,-0.3131979,48.207092,0.09896956,-6.0788484,-8.596802,-0.019510746,-0.0016021729,3.7665224,0.015533447,-0.0082092285,-4.3395996,-0.02457285,6.623337,3.8165588,-6.1423798,6.7105365,0.049438715
-0.24359596,-0.31467074,47.91107,0.09831626,-6.099136,-8.354187,-0.050962448,0.017822266,3.7511106,-0.020690918,0.013473511,-4.350281,-0.07570934,6.8889313,3.7567291,-6.0131683,6.700753,-0.058953524
-0.23944172,-0.3104427,46.998596,0.091287605,-6.00241,-9.342957,-0.010154247,0.09094238,3.7431142,-0.07090759,0.036376953,-5.039978,0.0046286583,6.673584,3.8955078,-5.934204,6.791949,0.034939766
-0.2343052,-0.31194264,48.01178,0.08459278,-5.9983172,-8.952332,0.059240818,0.049468994,3.6958826,0.046813965,0.00077819824,-4.0283203,-0.041199684,6.90329,3.6179504,-6.025131,6.821366,0.10940957
-0.22992612,-0.31217742,47.69745,0.085805066,-6.006346,-8.9279175,-0.072237015,0.013793945,3.6134515,0.01828003,-0.0032653809,-4.3655396,-0.005182743,6.71904,3.4671936,-6.089737,6.858363,-0.032422304
-0.24230759,-0.32034189,47.831726,0.09148015,-6.1598377,-7.4645996,-0.0024571419,-0.13671875,3.7557042,0.02708435,-0.10185242,-4.347229,0.0971899,6.867401,4.3334045,-5.922241,6.6423993,-0.250906
-0.25373185,-0.3234897,47.520447,0.0937636,-6.2196293,-7.8933716,0.16366291,-0.13671875,3.917522,0.029220581,-0.03741455,-4.685974,0.25181103,6.2357025,3.763916,-6.1160583,6.4915032,0.19446969
-0.2527911,-0.32127166,47.94464,0.12574424,-6.31922,-7.6171875,0.22155571,-0.13562012,3.6893523,0.35334778,0.08647156,-3.779602,-0.053408146,6.336197,3.4121704,-6.4869385,6.5288982,0.25196266
-0.2567373,-0.3238077,49.067688,0.15554522,-6.4815598,-7.873535,-0.120256424,-0.07997131,3.5301652,0.20678711,0.02331543,-1.1581421,-0.10338831,6.525223,3.0939178,-6.821945,6.457376,-0.093715906
-0.25673696,-0.3316643,49.46289,0.14270546,-6.5503764,-7.1655273,-0.2753682,0.020889282,3.5860076,-0.14958191,-0.13117981,-1.6983032,0.11241579,6.4414825,3.809372,-6.3912354,6.356375,-0.38075662
-0.26549813,-0.3353971,48.88153,0.12859608,-6.5551724,-7.359314,0.17151499,-0.042037964,3.8130145,-0.105895996,-0.08047485,-1.7272949,0.20979595,6.0442657,4.2472534,-6.563507,6.2177997,-0.038527966
-0.2702803,-0.3333908,49.505615,0.13361043,-6.549338,-5.7876587,-0.014243126,-0.06951904,3.8616872,0.030563354,0.029418945,-2.0080566,-0.11226225,6.02034,3.8763733,-6.8315125,6.1938634,0.0899775
-0.27424967,-0.3323267,48.87085,0.11959122,-6.473332,-2.8625488,-0.31803942,0.04232788,4.0317054,-0.20767212,-0.0047302246,-4.6661377,-0.1567359,6.1902313,4.445862,-6.4031982,6.1653643,-0.33281994
-0.27476236,-0.32809094,48.008728,0.10230282,-6.329863,-5.569458,0.06987333,0.059432983,4.1809826,-0.12680054,0.017196655,-3.68042,-0.085445404,6.5324097,4.2520447,-6.139984,6.2147098,0.099843025
-0.26029015,-0.31410083,48.16284,0.11046278,-6.1472664,-8.174133,0.06409979,0.12742615,3.9463072,0.100128174,0.1976471,-3.8528442,-0.13475657,6.7286224,3.5724792,-6.317047,6.5427957,0.2263186
-0.25316098,-0.3123945,48.086548,0.11900796,-6.15327,-8.081055,-0.13476181,0.030349731,3.7784991,0.070510864,0.027160645,-2.8137207,-0.015755177,6.5970154,3.6873474,-6.2237244,6.635556,0.048927784
-0.24807352,-0.31319565,47.909546,0.11574779,-6.1493096,-8.624268,-0.0687685,0.07550049,3.7136054,-0.020385742,0.0035858154,-3.3050537,-0.07479477,6.69751,3.677765,-6.197418,6.67574,-0.028890133
-0.24590507,-0.31252497,47.86377,0.115402184,-6.1360493,-8.349609,-0.025119305,0.00793457,3.682733,0.010772705,0.007980347,-2.9037476,-0.0104055405,6.726227,3.6825562,-6.173477,6.7049794,0.03468561
-0.24361336,-0.3123431,48.439026,0.117948115,-6.141938,-8.602905,-0.006266594,0.024551392,3.6283185,0.027389526,0.013961792,-3.0426025,-0.02901125,6.723831,3.5317993,-6.2596283,6.7292128,0.04479766
-0.23632997,-0.30688688,48.857117,0.1244692,-6.075335,-9.152222,-0.00946188,0.05241394,3.4850607,0.0332489,0.0708313,-2.3040771,-0.043676853,6.941574,3.402588,-6.0634155,6.8640385,0.052012682
-0.23233165,-0.30338973,46.858215,0.12753356,-6.0274096,-9.571838,-0.041380882,0.027786255,3.41179,0.026824951,0.04597473,-3.9230347,-0.010045528,7.039688,3.3690948,-5.99881,6.9426503,0.0009875298
-0.2278194,-0.30126372,47.802734,0.1279189,-5.990204,-10.517883,-0.019242287,0.042144775,3.3417883,0.0066833496,0.025939941,-1.876831,0.0059142113,7.092331,3.3356018,-6.0012054,7.0085874,0.007217169
-0.2244616,-0.30148903,48.08197,0.12793924,-5.9903617,-10.30426,0.0022616386,0.029129028,3.2840137,0.012237549,0.004180908,-2.0263672,0.019002914,7.056427,3.2446747,-6.049057,7.03571,0.012975693
-0.21209352,-0.3091835,47.90039,0.09493165,-5.987082,-10.707092,-0.038557053,-0.0037994385,3.2604446,0.010406494,0.007797241,-0.42877197,-0.011110306,7.147354,3.287735,-5.9126587,7.04945,-0.04308057
-0.21340595,-0.30807313,48.5672,0.09651099,-5.975478,-10.731506,0.001657486,-0.029022217,3.2763088,0.011993408,0.017318726,-0.23803711,0.023838997,7.1569366,3.1465607,-6.1950226,7.0519395,-0.011300325
-0.21238518,-0.30777058,48.01483,0.095346786,-5.965987,-10.546875,-0.07781792,-0.00630188,3.267355,-0.0256958,0.024841309,-1.9485474,-0.034720898,7.125824,3.349945,-5.819351,7.0641184,-0.078650236
-0.21472195,-0.3041345,48.147583,0.09537667,-5.9086385,-10.55603,0.03957033,-0.0037841797,3.3190446,-0.008773804,0.025512695,-1.05896,0.004011631,7.0612183,3.2973022,-5.934204,7.088182,0.039004087
-0.21508464,-0.3035545,47.78595,0.09399002,-5.8944454,-9.761047,-0.022246838,-0.0017242432,3.3360012,-0.019042969,0.004425049,-2.0355225,-0.010734081,7.1186523,3.349945,-5.8624115,7.092037,-0.013588667
-0.21534574,-0.3027856,48.846436,0.092755154,-5.877664,-8.969116,0.013233662,0.0026245117,3.3508172,-0.008163452,-0.0002746582,-1.3366699,0.008473873,7.075577,3.357132,-5.9126587,7.0989766,0.016139269
-0.21478368,-0.3022159,48.065186,0.093837485,-5.8721123,-10.717773,-0.019180775,0.0126953125,3.3361313,0.006439209,0.019943237,-1.2237549,-0.031983376,7.135391,3.3523407,-5.860016,7.1104784,0.0012180805
-0.21462797,-0.30112848,48.020935,0.093857326,-5.854501,-10.667419,-0.0080266,0.0012207031,3.3368318,-0.0012664795,0.00730896,-0.82244873,0.007634163,7.204788,3.3356018,-5.893524,7.124658,0.008330345
-0.21379775,-0.30092183,48.664856,0.093910486,-5.85095,-11.129761,-0.009459972,0.000289917,3.322913,-0.0005950928,0.002166748,-1.0406494,0.01312685,7.1210327,3.378662,-5.8289185,7.1340747,-0.00488019
-0.21428199,-0.30053398,47.424316,0.094486214,-5.8469653,-11.038208,0.008653641,-0.00032043457,3.328828,0.005218506,0.0039367676,-2.142334,-0.013822079,7.1641083,3.3188477,-5.8743744,7.134585,0.012800455
-0.21440749,-0.30073035,47.380066,0.094917215,-5.8517623,-10.687256,-0.008881569,-0.009414673,3.327621,0.0022277832,0.00088500977,-1.6571045,0.003923893,7.137787,3.373886,-5.8815613,7.131213,-0.020188332
-0.21549411,-0.30070534,47.59369,0.095595,-5.854342,-10.385132,-0.010838509,-0.006362915,3.342043,-0.005050659,0.0008239746,-0.59814453,-0.012008667,7.1401825,3.3643036,-5.883957,7.122346,0.004230261
-0.2166634,-0.30039105,47.158813,0.09623872,-5.852171,-11.0321045,-0.0019397736,-0.004776001,3.359022,-0.00541687,-0.0011291504,-1.7486572,-0.0026922226,7.1282196,3.3810577,-5.8791656,7.1161404,0.0006802082
-0.21649072,-0.30024225,47.12982,0.0960851,-5.849114,-10.870361,0.009540081,0.00579834,3.3575234,0.008453369,0.002532959,-2.1514893,-0.003707409,7.104294,3.3356018,-5.9102783,7.1193614,0.024005175
-0.21564718,-0.30073652,48.495483,0.09651649,-5.8582563,-10.4019165,-0.015140057,0.006225586,3.3387249,0.002532959,0.0024719238,-1.2817383,-0.014512539,7.1401825,3.357132,-5.89592,7.1206846,-0.0060629845
-0.21582963,-0.30004364,47.7005,0.096915334,-5.8485622,-11.618042,-0.01910019,-0.0010375977,3.3415916,-0.00077819824,0.014694214,-1.3275146,-0.012712002,7.1593323,3.3379822,-5.8624115,7.127304,0.0009407997
-0.21626015,-0.29939038,48.246765,0.0979419,-5.8419123,-10.656738,0.009779453,-0.0064849854,3.3446214,0.011260986,0.0010681152,-1.7791748,0.0008225441,7.2382812,3.2733765,-5.927017,7.131336,0.0144610405
-0.215528,-0.30064875,47.87903,0.095874295,-5.854452,-10.430908,-0.011404514,0.0015258789,3.3410387,-0.023864746,-0.017501831,-1.7959595,0.033479214,7.130615,3.4217377,-5.848053,7.1227274,-0.03972292
-0.21699107,-0.30107072,47.789,0.094120115,-5.855617,-10.136414,0.020678997,-0.008987427,3.3758466,-0.006454468,-0.009735107,-2.0370483,-0.0036826134,7.097107,3.3762665,-5.8983154,7.1053357,0.023188353
-0.2195993,-0.30107293,46.82312,0.097539626,-5.8694587,-10.816956,-0.015873909,-0.033172607,3.3987207,0.017913818,0.007797241,-1.2802124,-0.024032116,7.034897,3.4145508,-5.9653015,7.0829754,-0.0023505688
-0.22677375,-0.29801443,47.66388,0.11240179,-5.87969,-10.670471,-0.040328503,-0.012771606,3.4367225,-0.030822754,-0.006439209,-0.6790161,-0.01974535,7.0660095,3.517456,-5.8791656,7.0561023,-0.02850318
-0.22853245,-0.29739267,46.33484,0.10992261,-5.8616133,-11.1831665,0.006418228,0.008239746,3.4845953,-0.037857056,-0.0071105957,-2.1087646,-0.006627083,7.068405,3.550949,-5.864807,7.0476575,0.01788354
-0.22926691,-0.29651976,47.43805,0.110223025,-5.849155,-11.419678,0.0025305748,0.005065918,3.4982731,0.0018005371,0.00932312,-1.9821167,-0.019937038,7.0827484,3.5198364,-5.8743744,7.051231,0.028834105
-0.22826622,-0.29596,47.869873,0.11082695,-5.841657,-10.920715,-0.014827728,0.016540527,3.4795055,0.0011138916,0.00944519,-0.91400146,-0.016395092,7.1210327,3.4767761,-5.8504486,7.0667152,0.012699604
-0.2263019,-0.2955699,46.914673,0.11087095,-5.834042,-10.61554,0.0029788017,0.025405884,3.4473033,0.008758545,0.008224487,-2.079773,-0.0027813911,7.1593323,3.4337006,-5.8408813,7.0887547,0.013948679
-0.22431232,-0.29477203,47.602844,0.11344416,-5.8290954,-11.170959,0.008606434,0.012207031,3.4000895,0.03239441,0.010482788,-1.6494751,0.00899601,7.1736755,3.4241333,-5.8743744,7.1155767,0.017450333
-0.22287855,-0.29529428,47.743225,0.11650093,-5.8475485,-10.388184,-0.010536194,0.0063476562,3.3544214,0.028366089,0.005783081,-1.638794,-0.008611679,7.1449738,3.3260193,-5.9030914,7.122108,0.0059821606
-0.22225016,-0.29635474,48.643494,0.116340436,-5.861623,-10.446167,-0.0023550987,0.0018920898,3.350582,-0.0059051514,-0.0047302246,-1.2771606,-0.00838089,7.133011,3.3595276,-5.8863373,7.1123385,-0.0038352013
-0.22243968,-0.29602817,47.45636,0.11551132,-5.855467,-11.050415,0.0023856163,0.00035095215,3.3505352,0.0039978027,0.006072998,-1.6571045,-0.0026187897,7.1234283,3.3379822,-5.900696,7.1174293,0.008938074
-0.2222619,-0.29589742,47.91107,0.11618161,-5.855627,-10.292053,-0.011653423,-1.5258789e-05,3.3437307,0.002532959,0.005783081,-1.3076782,-0.009988308,7.1401825,3.3595276,-5.8863373,7.1204987,-0.0069818497
-0.22301696,-0.29584154,47.743225,0.11664864,-5.857083,-10.913086,-0.009893417,-0.00642395,3.35382,-0.0060272217,-0.0051574707,-1.7227173,0.0031981468,7.113861,3.4289093,-5.8576355,7.114552,-0.007098913
-0.22336186,-0.29574388,47.901917,0.11766254,-5.8594985,-8.439636,0.011118412,0.008178711,3.3536026,0.009246826,0.004257202,-2.3391724,-0.019655228,7.135391,3.3475647,-5.9102783,7.112666,0.02536583
-0.22223099,-0.29602265,47.608948,0.117026806,-5.8606925,-11.174011,-0.023836613,0.003967285,3.33737,-0.0020599365,0.0071868896,-1.5701294,-0.0053067207,7.142578,3.373886,-5.8695984,7.1193132,-0.016571045
-0.22194646,-0.29536504,47.6593,0.11663247,-5.8483458,-11.827087,-0.004292965,0.0036010742,3.3374557,0.0016784668,0.011459351,-1.9760132,-0.011171341,7.195221,3.357132,-5.85524,7.1294208,0.012742519
-0.22134064,-0.29482377,48.31848,0.11607097,-5.836988,-11.167908,-0.010552406,0.00035095215,3.332678,-0.0019989014,0.0090789795,-1.8585205,-0.0022354126,7.1641083,3.3332062,-5.831314,7.1409526,-0.005431175
-0.22119474,-0.29443398,47.00775,0.115852945,-5.829739,-10.803223,-0.0016570091,-7.6293945e-05,3.3329961,-0.0007171631,0.004119873,-0.7095337,-0.0012488365,7.1569366,3.3595276,-5.848053,7.1467237,0.0011007786
-0.22178423,-0.29428557,47.09778,0.116181836,-5.829042,-10.946655,0.0016670227,-0.005569458,3.3415112,0.0020446777,0.00088500977,-0.46539307,0.0032577515,7.1449738,3.3666992,-5.871994,7.1433163,0.0026917458
-0.22220658,-0.2943567,48.00415,0.11647448,-5.8316355,-11.56311,-0.012888432,-0.0050811768,3.346597,-4.5776367e-05,0.004989624,-1.1535645,-0.013639927,7.1808624,3.385849,-5.85524,7.1388173,-0.0021295547
-0.2229464,-0.2936838,48.155212,0.11673019,-5.8222933,-10.861206,-0.01005888,-0.0041656494,3.360058,-0.008651733,0.005783081,-0.98114014,-0.0038604736,7.1521454,3.402588,-5.8217316,7.140118,-0.002182722
-0.22173493,-0.2944933,47.743225,0.11101961,-5.813594,-10.464478,-0.000910759,-0.003982544,3.3724902,-0.00035095215,0.0051727295,-1.638794,-0.0074748993,7.1641083,3.385849,-5.8456726,7.1413465,0.00660491
-0.22215676,-0.29438573,48.391724,0.111249745,-5.81302,-10.476685,-0.0052227974,-0.0050811768,3.3786182,-0.0016937256,-9.1552734e-05,-1.7715454,0.0033721924,7.154541,3.4073792,-5.8384857,7.138916,-0.0011508465
-0.2228635,-0.2943519,48.223877,0.11168164,-5.8146152,-11.172485,-0.00033473969,-0.0012359619,3.3880646,-0.0013275146,0.0005187988,-2.1865845,-0.012327194,7.1521454,3.4217377,-5.826523,7.133138,0.0060822964
-0.22309713,-0.29424736,47.14203,0.111794785,-5.8135176,-11.671448,-0.0069260597,-0.00093078613,3.3917072,0.0034332275,0.0039367676,-0.95062256,-0.007162571,7.1521454,3.4289093,-5.8289185,7.132302,0.012621164
-0.22278257,-0.2943053,46.6568,0.11161616,-5.8135524,-10.913086,-0.007613659,0.0006713867,3.387265,0.0058288574,0.0055999756,-1.6113281,-0.011723518,7.171295,3.3882294,-5.843277,7.134383,0.004591942
-0.2225316,-0.29435155,47.218323,0.11147364,-5.813582,-11.61499,-0.002400875,0.00579834,3.38372,-0.0029144287,-0.001739502,-1.9927979,0.001513958,7.1234283,3.3643036,-5.8624115,7.136041,0.0036654472
-0.22231764,-0.29468578,47.38922,0.11144546,-5.818742,-10.992432,-0.009297371,0.0013427734,3.3790548,0.0017242432,0.0020446777,-1.5792847,-0.011921406,7.195221,3.4097748,-5.824127,7.1340475,-0.0013277531
-0.22223328,-0.29443926,48.565674,0.11131459,-5.814188,-10.610962,-0.00072050095,-0.0017852783,3.379323,0.0038757324,0.0042419434,-1.361084,0.0012726784,7.166504,3.3954163,-5.8456726,7.1376305,0.0052728653
-0.2222995,-0.2946818,47.651672,0.111432835,-5.8186164,-10.847473,-0.008401394,-0.0037994385,3.3788395,0.005279541,0.0019226074,-1.9683838,-0.009457588,7.154541,3.402588,-5.8504486,7.1342516,0.0016825199
-0.22260839,-0.29486063,47.67151,0.11168316,-5.8226843,-10.929871,-0.002085209,-0.003921509,3.3818839,0.0018005371,-0.003326416,-1.725769,-0.0012812614,7.1449738,3.373886,-5.900696,7.129488,0.00453043
-0.22291388,-0.29555503,47.77832,0.11209556,-5.835715,-10.778809,-0.0020189285,0.0013427734,3.3819869,-0.0027923584,-0.005706787,-1.1566162,-0.00010967255,7.1186523,3.4002075,-5.9030914,7.1187778,-0.008879423
-0.22342269,-0.29581574,47.598267,0.11249859,-5.8418303,-10.98938,-0.0015368462,-0.007217407,3.3871567,0.0042419434,0.0023498535,-0.60272217,-0.016053677,7.10907,3.4360962,-5.85524,7.1112995,0.023725748
-0.22205932,-0.29642728,46.951294,0.11224269,-5.8497195,-11.906433,-0.0203166,0.008239746,3.3633578,-0.0025482178,0.0024108887,-1.6845703,-0.0053248405,7.176071,3.3595276,-5.87677,7.1161075,-0.018292189
-0.22209805,-0.29624867,47.547913,0.111576825,-5.844423,-10.8932495,0.0010504723,-0.0010986328,3.368882,-0.004989624,-0.0024108887,-1.3290405,0.006392956,7.1808624,3.448059,-5.888733,7.117847,0.0012483597
-0.22286074,-0.29607907,47.680664,0.11202621,-5.8439193,-10.934448,-0.005431652,-0.009719849,3.379634,0.0030670166,0.0055999756,-1.5655518,-0.0069937706,7.1162567,3.4217377,-5.8791656,7.1131606,0.0007798672
-0.22342457,-0.2956867,47.55249,0.11334146,-5.8428335,-10.940552,-0.012340069,-0.0002593994,3.3823144,0.0032043457,0.008529663,-0.2029419,-0.021906853,7.1210327,3.3882294,-5.8456726,7.11278,0.005450487
-0.22284813,-0.29558092,48.768616,0.112962805,-5.8392596,-11.883545,-0.005938053,0.013061523,3.3752837,-0.002243042,0.002532959,-0.64086914,-0.006588459,7.1186523,3.5461578,-5.7786713,7.1190524,0.0029780865
-0.22275227,-0.29436406,46.936035,0.11670506,-5.8330803,-11.795044,0.022795677,0.026321411,3.3544056,0.04081726,0.009017944,-0.79956055,-0.029911041,7.281357,3.2566376,-5.8576355,7.1339693,0.10408807
-0.21984147,-0.2974421,47.03827,0.11814599,-5.885535,-10.845947,0.014177799,-0.0181427,3.2842772,0.026779175,-0.046813965,-1.3519287,0.087917805,7.1521454,3.1920319,-5.967697,7.1235104,-0.05741906
-0.22186986,-0.3028752,48.423767,0.11205143,-5.953028,-9.321594,-0.0051345825,-0.0029449463,3.3380444,-0.05911255,-0.06556702,-2.243042,0.07469034,6.9631195,3.419342,-5.9485626,7.041967,-0.15057325
-0.22901589,-0.3030785,49.035645,0.117730826,-5.9828696,-9.634399,0.008878708,-0.0443573,3.4214213,-0.013534546,-0.026779175,-0.77056885,-0.040341854,6.867401,3.4504547,-6.106491,6.9763556,-0.004040003
-0.23386717,-0.3025588,47.850037,0.12126018,-5.991929,-9.291077,-0.06660032,-0.05015564,3.4820383,0.008758545,0.011154175,-2.1087646,-0.09842777,6.8530426,3.4552307,-6.0969086,6.9384856,-0.012421608
-0.23612121,-0.29983383,48.568726,0.11929577,-5.9426203,-8.717346,-0.11861515,-0.0103302,3.5432322,-0.04310608,0.02293396,-3.277588,-0.097726345,6.9439697,3.6442719,-5.8911285,6.949903,-0.07608724
-0.23743428,-0.2971666,48.08197,0.11551596,-5.8860455,-10.409546,-0.022060871,0.003967285,3.599826,-0.042678833,0.020187378,-3.1524658,-0.04884863,7.0037994,3.6299133,-5.929413,6.968939,0.01975298
-0.23721385,-0.2957,47.93091,0.11315661,-5.852957,-10.0616455,-0.03805971,0.011169434,3.616701,-0.030456543,0.022140503,-3.1555176,-0.03150797,7.039688,3.6275177,-5.9030914,6.9880443,-0.009073019
-0.23726095,-0.2945462,47.021484,0.11137436,-5.827313,-9.893799,-0.052371502,-0.003982544,3.6330879,-0.026916504,0.020858765,-2.5512695,-0.023676395,7.097107,3.797409,-5.694916,7.000963,-0.036192417
-0.23502512,-0.29283512,47.276306,0.112873375,-5.803885,-10.765076,0.08442068,0.030654907,3.59224,0.02909851,0.025756836,-2.1453857,-0.016098976,7.0540466,3.5270233,-5.871994,7.0413866,0.1271751
-0.23177145,-0.29256785,48.194885,0.11818854,-5.817415,-10.336304,-0.017907143,0.03553772,3.5047312,0.047546387,0.01322937,-2.5039673,-0.047285557,7.207184,3.505478,-5.790634,7.0742435,0.053879738
-0.2294592,-0.2930959,47.795105,0.12085512,-5.83396,-11.04126,0.048040867,0.029190063,3.4467404,0.04234314,-0.0058898926,-2.0446777,0.025102139,7.1186523,3.3068848,-5.95813,7.0890956,0.030258179
-0.22407283,-0.29288673,47.769165,0.122831434,-5.8326035,-10.249329,-0.089556694,0.035964966,3.3436382,0.021881104,0.015914917,-1.234436,-0.067694664,7.2143555,3.4815521,-5.728424,7.1394124,-0.019035578
-0.22351483,-0.29368752,47.927856,0.12502585,-5.852962,-10.794067,0.047888756,0.0036621094,3.3171675,0.033920288,0.00033569336,-0.024414062,0.012741566,7.1641083,3.2183533,-6.0107727,7.1350985,0.056611538
-0.2228692,-0.2946373,48.20099,0.12725061,-5.875649,-11.360168,-0.06622839,-0.008865356,3.2883458,0.013519287,-0.008453369,-1.4663696,-0.012615204,7.085144,3.2781677,-5.9413757,7.1297917,-0.049179077
-0.22347502,-0.2960605,47.702026,0.12587334,-5.8944135,-11.769104,-0.029049397,0.0025634766,3.3019128,-0.019226074,-0.0050964355,-1.3275146,-0.030072212,7.068405,3.3595276,-5.9030914,7.1079993,-0.023402452
-0.22389631,-0.2950984,48.562622,0.1268885,-5.8829384,-10.310364,-0.0038237572,0.014282227,3.30631,0.0058898926,0.013839722,-1.361084,-0.0417161,7.154541,3.247055,-5.950943,7.115458,0.04675269
-0.22164892,-0.29488915,47.877502,0.12663712,-5.87621,-10.128784,-0.024167538,0.012512207,3.2705321,-0.0037078857,0.010726929,-1.7913818,0.0072727203,7.188034,3.247055,-5.8743744,7.1375184,-0.03000164
-0.22086167,-0.294242,47.65625,0.1247112,-5.858026,-10.548401,0.0038380623,-0.005630493,3.2718902,-0.009933472,0.0043029785,-1.8829346,0.025651455,7.142578,3.2805634,-5.8791656,7.1518283,-0.029119492
-0.22245127,-0.2938624,48.112488,0.12591583,-5.8578596,-10.6918335,-0.0055851936,-0.020843506,3.2927494,0.0066223145,0.001739502,-1.6235352,-0.0055270195,7.1210327,3.3236237,-5.922241,7.1423864,-0.001982689
-0.2239014,-0.2944061,47.45941,0.12602581,-5.8686256,-10.40802,-0.017741203,-0.0037384033,3.314595,-0.010848999,-0.0002746582,-2.6168823,-0.023236752,7.1401825,3.390625,-5.87677,7.1234174,0.0021407604
-0.22476207,-0.29350138,47.599792,0.1257818,-5.853991,-9.968567,0.0015234947,-0.0015411377,3.3342702,-0.0025482178,0.007003784,-1.5609741,-0.0053453445,7.130615,3.357132,-5.860016,7.1262755,0.018517017
-0.22453149,-0.29249227,48.535156,0.12887655,-5.8485403,-10.717773,0.0015807152,0.004638672,3.3146198,0.026229858,0.01725769,-0.72021484,-0.019644737,7.1569366,3.110672,-5.9772644,7.139906,0.028887987
-0.21618816,-0.29845878,48.283386,0.10639262,-5.8571134,-10.522461,-0.06166315,0.008239746,3.2930243,-0.036880493,-0.002166748,-1.2145996,-0.0036644936,7.1593323,3.3427734,-5.7882385,7.14287,-0.068309784
-0.21690679,-0.29693344,47.579956,0.103216566,-5.8214526,-11.688232,0.028296947,0.031448364,3.3306282,-0.040298462,-0.0009460449,-2.0584106,-0.0053663254,7.1904297,3.3930206,-5.77388,7.1545787,0.03404665
-0.21715732,-0.29391292,48.579407,0.10864609,-5.791973,-10.391235,0.047035694,0.006958008,3.311196,0.06286621,0.0289917,-1.1184692,-0.00957489,7.2023926,3.1657104,-5.900696,7.187449,0.10154009
-0.21334754,-0.2942179,48.51837,0.113596246,-5.811224,-11.236572,-0.06693077,0.017410278,3.213718,0.033737183,0.02923584,-1.0467529,-0.032082558,7.2885437,3.1944122,-5.826523,7.216099,-0.04852605
-0.21184811,-0.29369935,48.431396,0.1122332,-5.7967076,-12.071228,-0.014313698,0.016052246,3.1983397,-0.012802124,0.0022277832,-1.3793945,0.014647007,7.3052826,3.2087708,-5.7834473,7.234583,-0.01704812
-0.21148044,-0.29333404,48.171997,0.11429297,-5.797512,-10.520935,-0.013481617,-0.0062408447,3.1804042,-0.0047454834,0.003692627,-1.7822266,0.0007901192,7.269394,3.1968079,-5.831314,7.241842,-0.014081717
-0.21194349,-0.2932993,49.542236,0.11383684,-5.7958007,-11.331177,-0.011553764,-0.0013427734,3.1913488,-0.011459351,0.00064086914,-1.0040283,-0.009026051,7.2885437,3.2303162,-5.7882385,7.238396,-0.0074703693
-0.21249948,-0.2928137,47.247314,0.1128544,-5.784977,-10.348511,0.0004849434,-0.0068511963,3.2087758,0.003189087,0.007369995,-1.4190674,0.0037426949,7.4680023,3.2326965,-5.81456,7.2393494,0.0015866756
-0.21287005,-0.29222167,48.017883,0.11316626,-5.7767205,-11.117554,-3.5762787e-05,-0.0135650635,3.2152915,-0.013900757,0.003692627,-0.90789795,0.0065135956,7.257431,3.2303162,-5.8097687,7.2430515,-0.001137495
-0.21351402,-0.29208013,48.121643,0.11226737,-5.771849,-11.86676,-0.016252995,-0.009292603,3.2324681,-0.0010681152,0.0030822754,-0.5065918,0.0030241013,7.2311096,3.3140564,-5.7714844,7.2392874,-0.019278765
-0.21535641,-0.29116976,47.512817,0.11316835,-5.761761,-11.373901,0.003942013,-0.0068511963,3.2617152,-0.0016937256,0.006134033,-0.8514404,-0.011348724,7.274185,3.254242,-5.797806,7.2342057,0.019290209
-0.2156815,-0.29096103,48.776245,0.113311976,-5.759144,-11.689758,-0.010304928,0.002319336,3.2671406,0.0038146973,0.022018433,-1.6021729,-0.010435104,7.199997,3.345169,-5.7475586,7.2338395,-0.0013563633
-0.2162434,-0.29030114,48.138428,0.11346645,-5.7493997,-11.529541,-0.0064578056,-0.21636963,3.2781668,0.2554779,-0.11602783,-1.3092041,-0.03499794,7.5014954,3.4983063,-5.4317017,7.2366023,0.0098462105
-0.21919611,-0.30437344,47.416687,0.15308468,-6.116067,-11.303711,0.27331972,-0.00440979,3.0166776,0.24142456,-0.13679504,-1.1779785,0.18034935,7.2957153,2.7852478,-6.295517,7.047252,-0.017648935
-0.22928804,-0.32439,48.529053,0.15296924,-6.4450555,-12.835693,-0.19456387,-0.07952881,3.0960634,-0.16723633,-0.2662964,1.1123657,0.10765934,6.4127655,3.0269165,-6.7286224,6.7116346,-0.3450365
-0.24451926,-0.32344285,50.434875,0.124891624,-6.3434877,-9.674072,-0.17560291,-0.09970093,3.550516,-0.49893188,-0.30355835,1.6235352,-0.29391956,7.0253296,4.3860474,-8.013565,6.5821266,-0.18928981
-0.26728722,-0.33152813,49.24469,0.12089805,-6.4643135,-7.736206,0.17461872,-0.120895386,3.914605,-0.29344177,0.0005340576,-1.7913818,0.31740713,6.9918213,5.0847473,-9.875183,6.249712,0.20106173
-0.30108503,-0.33662263,49.56665,0.23234223,-7.0594025,-7.5561523,-4.1778164,-0.4399414,3.5529494,0.2631836,-0.43423462,-4.5928955,0.2660222,0.5312042,3.517456,-6.065811,5.806185,0.708534
-0.49020863,-0.22855096,44.110107,0.34081563,-6.7237935,-5.871582,6.960218,-1.7969971,5.8655286,1.8835144,1.3379669,-6.4300537,0.19289637,15.608383,13.21077,-4.187439,4.0689745,7.36196
-0.47346982,0.058074653,43.095398,0.037261132,0.6541726,-10.395813,-10.554544,-1.5493469,8.196777,-3.0783997,-0.13435364,-7.9559326,8.123041,-0.9020996,4.364502,-4.208969,5.3437157,-1.1231785
-0.113792375,0.13143882,23.716736,0.027814165,2.4756014,-17.163086,0.18465424,1.4896088,2.2686832,-2.6647186,1.4367371,-34.928894,-3.8553228,5.4101715,13.119843,-14.146362,9.2138405,-1.5777304
-0.13285246,0.12372531,10.247803,0.06768625,2.2043102,-37.454224,-2.4708626,3.0702362,2.7205517,0.4600067,0.755249,-19.42749,-4.160346,12.8111725,5.7188416,0.9834442,9.16024,5.43825
-0.10319697,0.12445883,9.945679,-0.022151794,2.4531622,-40.423584,-0.27533388,-0.3730011,1.9428275,-0.8313751,-0.7108917,-11.177063,2.0116348,8.678772,1.8065796,3.6490479,9.293966,0.69464576
-0.09099795,0.1632518,8.898926,-0.067968,3.2592552,-40.333557,0.7098191,0.10873413,1.5314918,-0.7006531,0.49197388,-14.845276,-1.1357918,8.506485,1.6175537,3.6107635,9.121523,-0.5686959
-0.095513545,0.15252493,5.140686,-0.079142295,3.0813966,-41.116333,0.75767756,0.06352234,1.6000214,-0.2741394,-0.12060547,-14.450073,-0.7815323,8.6931305,1.1629181,3.6634064,9.171441,-0.8011457
-0.09304693,0.101898886,7.2525024,-0.071785375,2.1052537,-41.09497,1.8175557,-0.16242981,1.6592772,0.13825989,-0.33270264,-15.563965,-0.45618725,9.939789,3.0149536,3.9361877,9.433191,0.10642183
-0.086305074,0.05221601,10.626221,-0.092183694,1.1705633,-39.050293,0.8985561,-0.1437378,1.5824409,-0.13131714,-0.38957214,-17.082214,-0.48344326,8.061417,0.899704,2.4789581,9.607083,0.054297686
-0.06898311,0.06488621,13.484192,-0.06265785,1.3491762,-40.974426,0.8846531,0.41323853,1.2644944,0.12915039,-0.35542297,-14.883423,0.6908636,8.922836,1.4165497,2.6201477,9.630741,-0.17592847
-0.07442256,0.08274356,14.468384,-0.05756044,1.694105,-41.84723,0.8102207,-0.2109375,1.3547561,0.121032715,0.21121216,-14.44397,-0.42509747,9.336792,1.454834,2.6321106,9.563735,-0.15720487
-0.065700226,0.077420495,12.782288,-0.05106097,1.5744292,-41.95862,1.0615547,0.082214355,1.2027137,0.12194824,0.15586853,-14.599609,-0.59332657,10.174286,2.4335022,2.3234253,9.604428,0.32817543
-0.027690955,0.03392028,14.0686035,-0.04186027,0.6868016,-43.01758,1.2876515,0.45967102,0.5142644,0.037399292,-0.47729492,-11.81488,0.08664608,10.327423,0.20578003,1.7826538,9.769044,0.30842978
-0.035381112,0.02132654,17.330933,-0.06620961,0.46295366,-41.773987,0.8006594,0.092422485,0.66412956,-0.052764893,-0.2862091,-7.56073,0.10776615,9.745972,0.27038574,1.1868439,9.773177,-0.12247342
-0.00049020554,-0.013210437,17.630005,-0.06748638,-0.257838,-39.93225,1.048262,0.06480408,0.027077526,-0.33631897,-0.14363098,-10.505676,0.22242737,9.887146,-0.6412811,0.8231354,9.803222,0.15449724
-0.001571512,0.011536856,20.310974,-0.060182884,0.2277053,-38.912964,0.556852,0.031951904,0.017146641,0.25242615,-0.16026306,-7.3242188,0.18656445,9.71965,0.36610413,0.6699829,9.803991,0.08633592
0.0038354842,0.015189948,19.689941,-0.065482765,0.29232287,-38.63678,0.6413772,0.19969177,-0.09456474,-0.051589966,0.07707214,-7.914734,-0.12060261,9.958923,-0.28474426,0.9882355,9.801836,-0.078821994
0.003226808,0.01922276,20.109558,-0.0646725,0.3720677,-38.13629,0.50254285,0.027053833,-0.08752675,-0.022216797,0.0063323975,-7.00531,0.118323326,9.887146,-0.43310547,0.87815857,9.799198,-0.23052365
0.009468896,0.01811273,19.767761,-0.060735796,0.34324062,-38.92517,0.58251405,-0.013076782,-0.206911,0.04309082,0.012619019,-7.8323364,-0.07605457,9.659821,-0.04547119,0.9523468,9.798457,0.029757276
0.014767439,0.017405171,19.90509,-0.060202554,0.3232276,-38.456726,0.5209396,0.038909912,-0.3095888,0.0059509277,-0.025802612,-5.731201,0.042689323,9.482758,-0.31825256,0.89730835,9.796432,-0.022672832
0.024664937,0.016318772,19.950867,-0.05870068,0.29097575,-39.90326,0.4957946,0.11959839,-0.5015027,0.007232666,-0.041503906,-5.178833,-0.0019721985,9.887146,-0.5168457,0.7920227,9.789495,0.015236616
0.021254044,0.022123305,19.247437,-0.23533897,0.32340991,-38.031006,0.41465652,0.048919678,-0.507068,0.012664795,-0.004058838,-4.6295166,0.026352882,9.580856,-0.6149597,0.74894714,9.788191,-0.12267578
0.022236241,0.02324579,18.997192,-0.23069541,0.34277368,-39.266968,0.41331232,-0.0010375977,-0.52931017,0.03868103,-0.014923096,-5.2124023,0.0014038086,9.942184,-0.5312042,0.69869995,9.786353,-0.042127013
0.020277318,0.030170012,19.548035,-0.22585814,0.48621684,-39.48059,0.26326567,-0.02822876,-0.5208065,0.015411377,0.01512146,-4.6295166,0.005391121,9.856033,-0.55992126,0.7537384,9.780733,-0.036678493
0.022886915,0.034235187,20.26825,-0.22355062,0.5535382,-40.005493,0.18566734,0.027664185,-0.5872434,0.0105896,-0.011444092,-4.841614,0.015616417,9.7005005,-0.62213135,0.70588684,9.773389,-0.03576517
0.026243007,0.035703372,19.613647,-0.22085796,0.5685852,-39.5813,0.12878698,0.015380859,-0.6561415,0.0028381348,-0.010528564,-3.6605835,-0.050507545,9.729218,-0.62931824,0.6460571,9.768141,-0.031160295
0.028048083,0.035400912,20.199585,-0.21602623,0.55836886,-39.718628,0.0861519,0.026748657,-0.6865442,0.019866943,-0.036743164,-4.762268,0.07837772,9.544968,-0.6388855,0.65802,9.766641,0.024883926
0.028459098,0.03641308,20.573425,-0.21578604,0.57612675,-37.815857,0.055155277,0.012084961,-0.69852597,0.011688232,-0.002960205,-3.2806396,-0.049635887,9.832108,-0.7417755,0.57188416,9.764759,-0.014517903
0.029726679,0.03650519,20.779419,-0.21529928,0.5728553,-39.118958,0.006248653,0.014282227,-0.72285444,0.0014190674,-0.022079468,-3.6056519,0.06376648,9.621536,-0.6795654,0.5886383,9.763181,-0.018508852
0.0301124,0.036672503,20.195007,-0.21568242,0.5741272,-38.832092,-0.014700413,0.0020751953,-0.73115516,0.011993408,0.008895874,-2.5024414,-0.01695633,9.544968,-0.7920227,0.73698425,9.762488,-0.047103524
0.045007333,0.021552047,21.0083,-0.22317453,0.2144996,-38.102722,0.5360965,0.051483154,-0.95368737,0.015289307,-0.021896362,-3.3447266,-0.23572636,10.363312,-0.5623169,-0.279953,9.75781,0.10441011
0.008268857,0.02887257,21.652222,-0.22957532,0.5136665,-38.432312,-0.38491637,-0.4431305,-0.28777814,-0.25593567,-0.0074768066,-6.8588257,0.39870453,9.243469,-0.22732544,0.74894714,9.7889595,-0.123559624
0.02007782,0.05038039,21.06018,-0.22008732,0.87573737,-39.686584,-0.10088438,0.13909912,-0.60101634,0.12542725,0.19447327,-4.96521,-0.12812519,9.690933,-0.6891327,0.87338257,9.7489605,0.38728893
0.04119242,0.05802522,19.136047,-0.21226111,0.9376905,-39.32495,-0.077757776,0.28961182,-1.0289804,0.070388794,-0.01687622,-3.1158447,0.15379524,9.774673,-1.696518,1.0001984,9.707334,0.17070746
0.057415597,0.05749226,20.011902,-0.20612277,0.8674714,-39.34021,0.0315333,0.25289917,-1.3305486,0.06843567,0.0052948,-2.0324707,-0.20923328,9.5234375,-1.3710938,0.928421,9.677164,0.15475261
0.06448801,0.05903056,20.892334,-0.20654154,0.86705005,-39.43634,-0.043961763,0.09358215,-1.4717307,0.0093688965,0.015426636,-0.8682251,0.07475662,9.454041,-1.3447723,0.99302673,9.656739,0.02276063
0.053900227,0.06548115,19.883728,-0.2080121,1.0315754,-41.11786,-0.08847284,0.018936157,-1.2972932,0.030685425,0.03466797,0.20141602,-0.05400467,9.738785,-1.208374,0.9882355,9.665572,-0.20534432
0.045166437,0.07350932,18.722534,-0.20021364,1.2297188,-40.56244,-0.20695627,-0.07336426,-1.1532147,0.14649963,0.15013123,-0.730896,0.12454033,9.39183,-1.3447723,1.5170441,9.660657,-0.1339029
0.029434714,0.07620654,19.154358,-0.18843493,1.3540127,-39.675903,-0.016055584,-0.17092896,-0.8466512,0.13948059,-0.05671692,-1.8310547,-0.19413853,10.320251,-0.7920227,1.0432739,9.675754,-0.36683476
0.017940406,0.07339434,17.630005,-0.17753765,1.3499858,-39.837646,-0.105906606,0.04647827,-0.6008251,0.060424805,-0.0027770996,-1.7379761,0.022587776,9.815353,-0.5168457,1.3950195,9.694686,-0.045390785
0.03118476,0.07099902,18.565369,-0.17410575,1.2605091,-40.919495,0.06398845,0.05607605,-0.8428707,-0.011779785,9.1552734e-05,-2.029419,-0.009778023,9.817749,-1.2179413,1.134201,9.688708,0.23950595
0.0352974,0.07167557,18.661499,-0.1701234,1.262965,-41.558838,-0.07152152,0.067611694,-0.9191193,0.08743286,0.0008239746,-0.66223145,0.0021295547,9.753143,-0.9762726,1.2634125,9.681453,-0.102383375
0.045786075,0.07368227,18.624878,-0.1260896,1.314896,-41.36505,-0.036542654,0.06468201,-1.0696548,0.033981323,0.015853882,-0.09765625,0.055675507,9.504288,-1.1006927,1.306488,9.659051,0.08882749
0.045461964,0.07881617,18.208313,-0.12613979,1.41456,-40.55786,-0.1389451,0.0566864,-1.075801,0.043395996,0.09655762,0.29296875,0.050896645,9.418152,-1.2873383,1.524231,9.644276,-0.006785989
0.060993146,0.08872415,16.738892,-0.11344308,1.5830487,-40.715027,-0.014927268,0.076049805,-1.3789656,0.049560547,0.24536133,2.31781,-0.02946949,10.463806,-1.3256226,1.5984039,9.57929,0.10569179
0.061411705,0.1433575,14.060974,-0.12674457,2.6016881,-42.427063,-0.81092334,-0.46328735,-1.5362822,-0.9070587,0.92666626,1.3015747,0.5745535,8.425125,-0.1531372,-0.24406433,9.3296,0.4890561
-0.008934297,0.1698092,7.8445435,-0.17334881,3.2612114,-44.69757,-1.3326013,-0.039276123,-0.4073552,0.7776489,-0.039245605,-3.65448,-0.02022171,6.24527,0.18424988,4.680359,9.2395315,-1.9672139
-0.0068675783,0.18315855,9.248352,-0.15757059,3.5070517,-43.4906,0.5189593,-0.02407837,-0.43534574,-0.24884033,0.0013275146,-2.1347046,-0.24496746,8.542374,0.33021545,2.670395,9.147758,1.2362256
-0.005566276,0.16871125,9.095764,-0.18208438,3.2252426,-43.022156,-0.27751827,-0.7745819,-0.49676007,-0.20791626,0.19404602,-3.263855,-0.48223305,11.803787,2.1894379,2.399994,9.24778,0.37280715
-0.24487135,0.16454315,4.335022,-0.23578545,4.1206474,-35.68268,-1.8920035,-3.644455,3.68612,0.3677063,-0.13130188,-23.609924,0.75278187,4.0055847,3.7471619,2.074585,8.099579,-0.98348975
-0.54421103,-0.10715869,21.229553,-0.16463414,0.043036148,-7.785034,-0.62613076,-2.7774963,9.051833,3.084549,-2.296402,-38.175964,1.1682789,5.132599,11.205582,-5.6063843,3.7726445,-3.8818483
-0.46013537,-0.44993782,39.834595,-0.06764299,-6.1175504,12.025452,-0.19002438,1.800354,7.4774327,2.260971,-1.6099701,-19.371033,5.095373,4.8765717,7.905884,-7.3459625,1.6834371,3.0324502
-0.3137661,-0.53979385,39.785767,-0.119097434,-7.4403825,10.572815,2.186771,0.22088623,6.011801,-0.15527344,-0.35035706,-19.140625,2.346077,1.861618,7.7001038,-6.9224396,2.1608648,4.4561877
-0.32563025,-0.5149214,35.723877,-0.14115553,-6.979155,10.321045,-0.26446295,-0.010391235,6.4092164,-0.55207825,-0.015365601,-22.135925,-0.25053096,3.0580292,9.631119,-3.8931274,2.5266023,-0.009924889
-0.3674545,-0.4873729,35.250854,-0.17314543,-6.140849,8.984375,-0.42843008,-0.28277588,7.2258067,-0.20144653,0.61976624,-25.064087,-0.24581528,8.171494,8.092529,-4.857437,2.499614,0.4166255
-0.48477986,-0.41056436,25.959778,-0.13177806,-4.874683,2.760315,1.4589586,-0.13696289,8.296453,-1.8866577,0.4094391,-37.268066,0.54265773,8.968292,2.8498535,-5.0033875,1.8912201,1.674695
-0.3860279,-0.23655128,24.815369,-0.26801175,-1.9163243,-29.902649,-2.4957829,3.164978,7.6821404,0.594635,1.7036896,-25.346375,2.6957235,9.099899,7.147354,-4.2257233,5.7864323,-1.1446943
-0.1837411,-0.078555256,27.5177,-0.14754091,-0.9607363,-28.092957,-3.73964,0.5365753,3.7181435,-0.1003418,0.101989746,-22.880554,-4.5428915,12.069397,4.084549,-4.405182,9.023458,2.1262472
-0.2007752,-0.23539793,28.892517,-0.19988751,-3.5051804,-26.261902,-0.09911895,-0.0068511963,4.5838566,-0.06271362,-0.96873474,-23.931885,-1.0982261,7.848465,4.893326,-1.2705841,7.9292083,1.7968564
-0.19759002,-0.17006591,24.136353,-0.21837898,-2.29044,-29.963684,-1.6607842,-0.14942932,4.372822,-0.09161377,1.0414429,-23.526001,1.5723753,8.233704,4.4362946,-1.134201,8.473647,0.31273174
-0.200582,-0.1372381,24.784851,-0.21689159,-1.6916137,-30.880737,0.32216597,0.41159058,4.3033075,-0.6346741,-0.20710754,-23.747253,-0.8827963,9.985245,2.663208,-2.2660065,8.648143,0.37279558
-0.264899,-0.17234243,24.949646,-0.23830357,-1.866041,-25.544739,-1.0255314,-0.14251709,5.576761,0.17424011,-0.6878052,-27.285767,2.4220147,7.905884,5.91745,-0.71784973,7.8478036,-0.8039694
-0.27675477,-0.101341255,19.993591,-0.22894078,-0.601325,-26.428223,-0.19375277,-0.8317108,5.4909554,-0.147995,1.0542755,-28.475952,-0.7958307,8.374878,5.058426,-0.124420166,8.102975,0.13405085
-0.2788628,-0.08231681,17.276001,-0.23843648,-0.19190784,-28.320312,0.24315834,0.10096741,5.4529805,-0.15635681,0.41023254,-29.01001,-0.18093395,8.750549,6.9152527,-0.0047912598,8.148532,-0.1059742
-0.26032725,-0.11136956,17.884827,-0.28175318,-0.5638959,-27.009583,0.3011093,-0.013504028,5.2962837,-0.18556213,-0.21839905,-28.49121,-0.009572029,8.989838,5.25943,-1.2442627,8.234184,0.8242383
-0.1954578,-0.08290383,18.458557,-0.2593776,-0.5376096,-29.878235,0.37182933,0.5299225,4.0335526,-0.019165039,-0.06434631,-25.672913,-0.52800274,7.628311,3.9888306,-0.119644165,8.922545,0.10634613
-0.14413805,-0.12020459,21.984863,-0.26011786,-1.4976757,-31.044006,1.1004896,0.32870483,3.2909017,0.05657959,-0.24302673,-22.06726,0.123366356,9.413361,2.9838562,-1.4883423,9.115773,0.2610283
-0.14278607,-0.10535793,21.455383,-0.24576136,-1.280935,-31.376648,0.08876085,0.5492859,3.1765869,0.19958496,-0.24058533,-20.243835,0.24474812,9.61676,3.3140564,-1.076767,9.189063,-0.38939667
-0.1370859,-0.09678604,21.322632,-0.2495733,-1.1393825,-32.284546,0.18072915,-0.08979797,3.0379965,0.042053223,0.120010376,-19.050598,-0.030643463,9.583252,2.3904266,-0.64845276,9.254338,0.22925329
-0.14105219,-0.08093741,20.24231,-0.2571184,-0.8008842,-33.29315,0.045458138,0.16712952,3.043525,-0.09814453,0.048049927,-20.069885,0.22363567,9.504288,2.7014923,-0.42352295,9.287946,-0.3757348
-0.15285693,-0.07766989,18.87207,-0.24965882,-0.7033312,-33.20465,0.14787489,-0.086257935,3.2375424,0.019256592,0.13516235,-19.807434,0.051671028,9.688538,2.8785706,-0.33021545,9.230061,-0.36920404
-0.14076076,-0.065541804,19.100952,-0.24234417,-0.5620355,-33.358765,0.13123244,-0.09059143,2.955491,0.043624878,0.11029053,-18.591309,-0.052885056,9.28894,2.622528,-0.37088013,9.333787,0.107898
-0.13636811,-0.061711013,18.977356,-0.24233495,-0.5120636,-33.547974,0.13003266,0.19522095,2.8571484,0.076187134,0.12025452,-18.278503,-0.050308228,9.717255,2.7493591,-0.42352295,9.367224,0.100100756
-0.11578375,-0.079777524,20.812988,-0.25754523,-0.9109645,-33.935547,0.4250819,0.16920471,2.5739205,-0.076156616,-0.23849487,-18.118286,0.1571455,9.805786,2.2492523,-0.8925171,9.418889,-0.0031673908
-0.113098465,-0.07956426,20.523071,-0.25875592,-0.91786355,-33.31909,0.022059143,-0.017288208,2.5244105,-0.08622742,-0.09048462,-18.04657,0.18961525,9.446869,2.4598236,-0.550354,9.431609,-0.16538334
-0.117568254,-0.073259644,20.487976,-0.25792843,-0.7791451,-33.425903,0.20458329,-0.04637146,2.575469,-0.005783081,0.071746826,-17.485046,-0.02832985,9.671783,2.3401794,-0.7800598,9.430285,-0.07942653
-0.12122555,-0.0659276,19.181824,-0.25831753,-0.6221777,-33.573914,-0.028260827,0.06047058,2.6074023,-0.00065612793,0.051467896,-18.508911,0.12520504,9.341583,2.4741821,-0.42114258,9.433172,-0.16939187
-0.12253295,-0.063130975,19.070435,-0.26107624,-0.5555772,-34.54895,0.11938965,-0.0849762,2.619419,-0.033996582,0.08769226,-19.16809,-0.013085365,9.444473,2.6033936,-0.48095703,9.434001,-0.06079817
-0.11720204,-0.060501136,18.73169,-0.26015633,-0.5370009,-34.40857,0.09027499,0.012634277,2.507469,-0.007797241,-0.008087158,-18.777466,0.09068489,9.332016,2.2947235,-0.25602722,9.465444,0.0069942474
-0.118143104,-0.059475467,18.901062,-0.26193085,-0.50822014,-35.847473,0.14163,0.07287598,2.5207183,-0.0020599365,0.03643799,-19.667053,-0.040571213,9.439682,2.3928223,-0.33021545,9.463513,-0.15583706
-0.115232036,-0.059666663,19.577026,-0.26044568,-0.53099316,-33.28705,0.113737285,-0.0054473877,2.4670727,0.0058288574,-0.0129852295,-18.006897,0.03979683,9.485153,2.4526367,-0.38285828,9.476391,-0.0664835
-0.11651618,-0.054499976,18.922424,-0.25669652,-0.43729603,-34.051514,0.059891313,-6.1035156e-05,2.463432,0.01651001,0.01109314,-19.169617,0.03246212,9.540192,2.313858,-0.3756714,9.482122,-0.037490845
-0.121129766,-0.049885556,18.699646,-0.26136842,-0.31472433,-34.890747,-0.028808951,-0.023345947,2.527682,-0.009262085,0.04560852,-18.22052,0.079530716,9.298508,2.490921,-0.14356995,9.470067,-0.10820651
-0.1233924,-0.043968316,17.237854,-0.2607992,-0.19365197,-34.883118,0.023808002,-0.06451416,2.539675,-0.010116577,0.079696655,-18.284607,-0.047794342,9.643082,2.5914307,-0.1651001,9.470107,-0.011409044
-0.12410486,-0.04287306,18.301392,-0.26095748,-0.16900407,-34.57489,0.030235678,0.010925293,2.5473626,-0.0010223389,0.015792847,-18.71643,0.003818512,9.434906,2.5746765,-0.090927124,9.468514,-0.012165546
-0.12464902,-0.039368164,18.299866,-0.26027572,-0.102346845,-36.154175,0.0237998,-0.010940552,2.539754,1.5258789e-05,0.036743164,-18.89038,0.029929161,9.525833,2.4669952,-0.047851562,9.471513,0.022739649
-0.123247325,-0.03795292,18.231201,-0.26167816,-0.07945095,-34.51538,0.0005395785,0.026260376,2.506926,-0.0031585693,0.011703491,-18.641663,-0.013836861,9.367905,2.5028992,0.007171631,9.480475,-0.026278973
-0.1237542,-0.036101557,17.26532,-0.26160392,-0.042316664,-34.29413,0.032049313,-0.007217407,2.506945,-0.0055999756,0.023925781,-17.796326,0.0019769669,9.439682,2.4885406,0.023925781,9.480708,0.00073742867
-0.122874334,-0.032222286,17.518616,-0.26036695,0.022592975,-35.421753,-0.0152155645,0.012817383,2.471172,-0.00077819824,0.020309448,-18.515015,0.015727043,9.702896,2.4023895,0.0023956299,9.490162,0.012455463
-0.12380119,-0.030065509,17.237854,-0.26181135,0.07158227,-35.53009,-0.02504903,0.02192688,2.4773324,0.00015258789,0.024658203,-17.242432,0.012158394,9.360718,2.4311066,0.13400269,9.488313,-0.03845334
-0.12451278,-0.024930857,16.978455,-0.2618031,0.1715322,-35.85968,-0.030989036,-0.014541626,2.4644547,0.0030822754,0.05116272,-17.900085,0.0364151,9.470795,2.4478607,0.30867004,9.490387,0.009509325
-0.12537302,-0.021068396,17.033386,-0.25946096,0.24241239,-35.534668,0.004926026,0.008972168,2.4613163,0.007598877,0.0630188,-18.13507,-0.0685215,9.559326,2.5651093,0.1986084,9.489655,0.0029301643
-0.12584603,-0.020009903,16.95404,-0.2622175,0.2718087,-35.472107,-0.006663114,0.0041503906,2.4639416,-0.004257202,0.017990112,-18.22052,0.015374184,9.384644,2.548355,0.34934998,9.488177,-0.021905184
-0.12564199,-0.017589556,16.818237,-0.25698605,0.30276144,-35.35614,0.033522815,-0.01802063,2.44954,0.005935669,0.018234253,-18.063354,0.0055389404,9.59761,2.1870422,0.18424988,9.490968,0.07481384
-0.12354162,-0.017244568,16.45813,-0.25922132,0.30418274,-35.0235,-0.03449294,0.057296753,2.408308,0.0049591064,-0.002532959,-16.870117,0.015984535,9.456436,2.4478607,0.3062744,9.50147,-0.10101676
-0.122782,-0.016126579,16.557312,-0.26123428,0.32630473,-36.30066,-0.025862366,-0.017227173,2.3879564,0.0050201416,0.020492554,-16.635132,-0.030420303,9.712463,2.732605,0.45224,9.505871,0.024512291
-0.12562636,-0.012905746,16.246033,-0.255383,0.38661635,-36.227417,0.026602656,-0.02645874,2.4264767,0.009185791,0.019943237,-18.016052,0.028456688,9.5354,1.9740753,0.29193115,9.493846,0.11371732
-0.12538403,-0.008433362,15.632629,-0.25637347,0.47195137,-36.079407,-0.10557419,0.09565735,2.3992333,-0.02722168,0.032470703,-17.318726,0.020736694,9.365509,2.5100708,0.39482117,9.496911,-0.20569444
-0.12795633,-0.0032397886,15.750122,-0.25888658,0.5888783,-35.43701,-0.058941543,-0.07336426,2.4191587,-0.01512146,0.08262634,-17.710876,-0.05609989,9.57608,2.766098,0.69392395,9.485319,-0.076094866
-0.12659983,-0.00030522075,14.793396,-0.25746828,0.6335695,-36.00006,0.015204251,-0.0061187744,2.3801885,0.013458252,0.029663086,-17.91687,-0.032099724,9.671783,2.4023895,0.55992126,9.492295,0.09418702
-0.13004929,0.0010405135,13.6154175,-0.25704336,0.6751822,-36.354065,-0.07528013,0.010375977,2.4373233,-0.006576538,0.0046844482,-17.00592,0.07680607,10.435104,2.0315094,0.6388855,9.474913,-0.07500291
-0.12113191,0.06622517,-1.083374,-0.18959752,1.7131106,-43.16101,-1.0228637,0.012084961,2.063264,0.016021729,0.047317505,-3.1433105,2.8160028,10.916061,0.78723145,7.307678,9.432846,0.043302298
0.02706184,0.30778575,-15.135193,-0.07182252,5.6868076,-41.29486,0.47653484,0.9528961,-0.93693084,0.5958557,2.0142517,10.491943,3.608779,0.8494568,1.1868439,5.893524,7.9342785,1.4814055
0.11610763,0.40951213,-21.669006,-0.032826103,7.1884036,-41.438293,-1.5942154,1.8438416,-2.3229544,0.4934082,1.8291016,-0.091552734,-2.6150112,2.428711,0.12921143,3.3882294,6.2530894,2.691657
-0.10470497,0.29143807,-10.188293,-0.23407146,5.7485046,-42.51709,-0.3486905,-2.268036,0.55460066,-0.22904968,-1.0511475,-5.1483154,1.6803236,5.48674,0.17945862,5.5250244,7.9257483,0.29688007
-0.25368813,0.24500169,-11.7248535,-0.35152248,5.916241,-40.725708,-0.24306726,-0.1874237,2.6257617,-0.2397461,-0.07888794,-15.982056,1.1713681,12.0095825,-2.292328,11.715256,7.3670797,-2.0475144
-0.12690017,0.19006637,-3.8467407,-0.26817393,4.156232,-42.55829,0.7228403,-0.820282,1.3296111,-0.8902588,-0.37930298,-15.007019,-1.0520782,7.3531494,0.5048828,2.354538,8.7822695,0.70291054
-0.08399938,0.21770926,-3.0700684,-0.24011146,4.4191213,-43.23883,-1.2446041,0.50083923,0.5271373,1.0941467,-0.33050537,-11.117554,-0.22923756,8.523239,0.13877869,5.3766785,8.738643,0.024852812
-0.12804723,0.23085189,-3.6361694,-0.2406365,4.833396,-43.499756,0.94912195,0.635849,1.2561947,0.37582397,-0.47821045,-13.07373,-0.73351955,7.6833496,1.3208313,6.1256256,8.439825,-0.29348087
-0.12791055,0.22941145,-3.09906,-0.2540119,4.8256392,-41.923523,1.0238585,0.0053100586,1.192345,-0.017150879,-0.19012451,-15.771484,-0.006670952,8.860626,0.51924133,4.7114716,8.453514,0.16011357
-0.13876975,0.21586247,-0.8010864,-0.25365254,4.6389384,-40.45868,0.27983332,-0.07196045,1.4644731,0.44265747,-0.22146606,-16.140747,0.35504532,11.758331,1.311264,8.662018,8.515042,-1.5767066
-0.20493734,0.22352944,-1.3046265,-0.24026962,5.008477,-36.280823,2.9214058,-0.9832611,2.6530824,-0.10884094,0.2737732,-21.040344,0.56299686,7.281357,3.797409,0.21534729,8.002919,-1.7082536
-0.23636098,0.16712621,1.9287109,-0.27262115,4.2714243,-34.9823,-2.2922802,-0.011428833,3.3599265,0.2616577,-0.45988464,-23.783875,-1.5371189,12.10289,2.4622192,2.9694977,8.163101,0.07890105
-0.18578896,0.15897056,1.7715454,-0.23785618,3.7976518,-40.655518,-0.9216907,1.1618652,2.683746,-0.0074920654,0.13113403,-16.915894,1.1622696,9.2482605,0.6915283,3.596405,8.633986,1.1933146
-0.103239,0.23739089,-5.860901,-0.21381626,4.8186846,-45.95642,-1.0480251,0.5723114,0.9117821,-0.18745422,0.9096222,-8.444214,0.7230606,7.515854,0.5048828,5.1469574,8.49231,0.5008208
-0.091666155,0.33144784,-13.798523,-0.23211154,6.3321795,-45.674133,-0.88954115,-0.07978821,0.1269262,-0.2024231,0.6074219,-5.0094604,0.32591105,8.133209,-0.15074158,6.7381897,7.487174,0.25683102
-0.109861016,0.34297165,-16.247559,-0.22942574,6.577055,-45.996094,0.06263733,0.017959595,0.40511465,0.12670898,0.22575378,-5.682373,0.35569334,7.5350037,-0.24645996,7.171295,7.262825,-0.3646048
-0.08622886,0.34796143,-16.560364,-0.20826402,6.5627255,-47.125244,0.22722101,0.7940674,0.11770053,0.41149902,-0.3736267,-1.763916,-0.42366314,7.142578,-1.249054,6.6472626,7.2860947,-0.09419394
-0.022912465,0.32287538,-14.72168,-0.09851341,6.0034328,-46.18988,0.79864883,0.4751892,-0.20096633,0.92988586,-0.26593018,2.9907227,-0.31393433,8.190628,1.2801666,4.4267273,7.751696,-1.026245
-0.025000013,0.30782002,-13.1362915,-0.05772215,5.7599554,-46.939087,-0.77178955,-0.30366516,0.11701397,-0.08280945,-0.24125671,1.5258789,0.30030727,9.588043,2.548355,3.5581207,7.93597,0.5601901
-0.1114078,0.29086396,-13.371277,-0.14136833,5.6695976,-45.581055,-1.4717064,-0.8007965,1.246796,-1.2691193,0.25605774,-5.1498413,0.6684799,7.4440765,-1.6438751,4.1228333,7.9038944,0.28664052
-0.09221919,0.26543733,-8.992004,-0.18429579,5.2366858,-42.20276,1.8309832,-1.1494141,0.7440754,0.09420776,-0.3388214,-12.332153,-1.0104799,5.6446686,2.1607208,5.7714844,8.257957,-2.2179844
-0.20482594,0.25144842,-8.482361,-0.22427513,5.433138,-40.629578,0.010447025,-0.3590088,2.585757,-0.1403656,-0.059402466,-18.733215,0.1362977,7.9130707,0.81355286,5.749954,7.7437234,-0.19562507
-0.27659598,0.24543168,-7.1777344,-0.25126517,5.668963,-39.112854,-0.0018019676,-0.22029114,3.6430855,-0.11958313,-0.010406494,-19.792175,0.8510051,8.281555,1.7443695,5.6661987,7.124687,-1.1969106
-0.36136636,0.26210728,-9.515381,-0.29799333,6.4495945,-33.665466,-0.6145716,-1.2062225,4.448231,-0.17114258,0.3261261,-27.97699,0.83078,4.8430786,3.883545,5.601593,5.8979964,-0.023262024
-0.48857945,0.31220672,-16.786194,-0.44993708,8.470883,-26.959229,-1.7021656,-1.128891,3.753824,-0.79167175,0.49343872,-32.426453,2.5059452,6.0179443,3.6849518,6.6257324,3.2129939,0.67299914
-0.5901438,0.43260735,-25.738525,-0.51791734,9.754411,-18.096924,-0.4412756,-1.9584503,0.734348,-2.0850677,1.44841,-33.39386,1.2135897,0.46899414,-1.3375854,8.583054,-0.69467986,-0.07391441
-0.6060247,0.45299086,-41.911316,-0.46098936,9.599238,2.0217896,0.2862501,0.07910156,1.415935,-1.1043701,1.0389404,-24.291992,0.47888362,-1.1605225,0.8685913,8.539978,-1.4213097,-0.87030303
-0.56051695,0.36784428,-41.71753,-0.60038316,9.745579,6.5704346,-0.32496452,-1.1944427,0.4610936,0.19696045,-0.3328247,-21.914673,-2.5313022,-0.5001068,-5.819351,12.947571,0.9906941,0.4342982
-0.58898395,0.35493124,-43.377686,-0.61117107,9.788414,3.3538818,0.14027977,-0.6297455,0.27269706,-0.05697632,0.9813385,-19.841003,1.4160991,-2.0721893,-0.2368927,9.004196,0.53194684,-0.08871329
-0.6759987,0.38460228,-43.460083,-0.5313881,9.578175,4.6936035,0.15971947,0.09919739,0.4432412,0.021331787,0.5431671,-19.8349,0.6593118,-1.8855438,0.275177,9.585648,-2.057301,-0.78657055
-0.6708348,0.38785508,-41.374207,-0.53644204,9.601437,16.783142,0.030997276,0.21202087,0.318146,-0.08189392,-0.2462616,-18.843079,-0.38570213,-0.5694885,0.23449707,9.619141,-1.9701725,-0.03639525
-0.6230828,0.4123409,-42.666626,-0.54649365,9.7377405,16.404724,0.013336182,0.3841095,0.20302254,-0.06704712,-0.20021057,-19.706726,-0.56681836,-1.282547,-0.25125122,9.757935,-1.1426158,-0.16380154
-0.6169234,0.41987878,-42.83142,-0.54224813,9.740776,12.42981,0.11868572,0.05168152,0.20626396,0.001663208,0.017562866,-19.340515,0.00915277,-1.3926239,-0.19621277,9.78186,-1.1158527,-0.28558546
-0.61582005,0.42308784,-42.723083,-0.53996783,9.7378435,10.220337,0.10485172,0.039031982,0.20022972,-0.0037078857,-0.09410095,-20.158386,-0.2006197,-1.282547,-0.011962891,9.772293,-1.1422327,-0.18713792
-0.6137161,0.42343363,-42.52777,-0.5411392,9.743283,9.884644,0.12157154,0.0018310547,0.18678133,-0.0012664795,0.02923584,-18.385315,0.08325577,-1.0408783,0.13639832,9.755539,-1.0972376,-0.17775172
-0.6095527,0.42506087,-42.63611,-0.5420009,9.75146,9.25293,0.08798885,0.06022644,0.1730932,-0.01928711,-0.05090332,-20.083618,-0.25846815,-0.99780273,0.24406433,9.796219,-1.0244266,-0.13700303
-0.6020078,0.4357978,-43.081665,-0.5362011,9.751751,8.973694,0.109202385,0.39533997,0.14209108,-0.040420532,0.17242432,-19.1391,0.038154483,-2.0841522,-0.086135864,9.78186,-1.0264255,-0.22764993
-0.5905095,0.4630759,-43.15796,-0.5146004,9.727273,9.335327,0.084386826,0.25056458,0.13013023,-0.042007446,-0.07118225,-19.1391,-0.12074864,-0.37806702,-0.55513,9.800995,-1.2383978,-0.10505277
-0.5780768,0.48530194,-43.91632,-0.49723086,9.710204,7.7713013,0.09489727,0.3001709,0.11833248,-0.039382935,0.11193848,-19.747925,0.1454196,-1.2370911,-0.21057129,9.762711,-1.3668656,-0.057494923
-0.51172256,0.5594463,-43.99109,-0.4331565,9.69518,7.45697,0.10017967,0.06651306,0.13873467,-0.019470215,0.023254395,-19.8349,0.05574608,-1.2275238,0.17945862,9.738785,-1.4678614,-0.12783201
-0.49507052,0.56685215,-44.389343,-0.4284907,9.719324,6.149292,0.061052322,0.16603088,0.09089315,-0.020629883,-0.15463257,-19.381714,-0.32477915,-1.421341,0.090927124,9.757935,-1.3026402,-0.14805084
-0.47913015,0.5624097,-44.714355,-0.43230385,9.764886,5.6533813,0.03532505,0.120391846,0.0893802,-0.014770508,-0.18273926,-19.960022,-0.5396702,-1.9429779,0.06939697,9.767502,-0.89966875,-0.109263085
-0.47409344,0.56322724,-44.758606,-0.43055403,9.771507,-0.08392334,0.070534706,0.008117676,0.098949626,0.0025177002,0.10546875,-20.169067,0.26681435,-1.414154,0.13160706,9.734009,-0.8235522,-0.057315655
-0.47868142,0.57214725,-44.55414,-0.42407256,9.743667,1.574707,0.08942795,0.12889099,0.062118404,-0.027832031,0.043655396,-19.102478,0.17931151,-1.0959167,-0.059814453,9.789032,-1.1079237,-0.09701055
-0.4676792,0.5795407,-46.499634,-0.41644594,9.747894,2.5619507,0.06685066,0.08166504,0.05013066,-0.006088257,-0.015548706,-19.741821,-0.09657717,-1.0552368,0.009567261,9.789032,-1.0707157,-0.062605895
-0.46382317,0.5782655,-44.63501,-0.4164866,9.758218,3.1860352,0.054958344,-0.1927948,0.06435212,0.14485168,-0.12225342,-20.13855,-0.32051462,0.47616577,-1.6151581,10.954346,-0.9713075,-0.094514236
-0.5137323,0.5493886,-43.80188,-0.38432416,9.640477,1.6052246,0.33693123,0.12553406,1.2524598,0.19268799,0.44499207,-19.873047,1.1584816,-3.1752777,1.6678009,9.430115,-1.2895491,-1.6436452
-0.47475663,0.5795994,-42.796326,-0.4201805,9.7325945,4.6585083,-0.37566185,-0.07672119,-0.0092681525,-0.3163452,-0.30245972,-23.020935,-1.1143347,-1.0552368,0.21296692,9.779465,-1.2028705,1.2151986
-0.46772888,0.57712597,-44.657898,-0.42313758,9.75374,3.1051636,0.06006527,0.18508911,-0.030705463,-0.05227661,-0.14694214,-18.287659,0.16164446,-0.899704,0.023925781,9.209976,-1.0168446,0.27390087
-0.44942835,0.5766763,-45.64972,-0.4213798,9.7831545,-0.42114258,0.07329941,0.042816162,-0.036364283,-0.002609253,-0.056045532,-18.28003,-0.21280932,-0.69869995,0.03111267,9.702896,-0.6774714,-0.16025515
-0.4536452,0.57916206,-43.714905,-0.4212428,9.773043,1.1932373,0.07023716,0.08178711,-0.06572756,-0.012130737,-0.030075073,-18.585205,0.29374176,-0.25842285,-0.27757263,9.858429,-0.8085129,0.08986371
-0.44214788,0.58023363,-43.891907,-0.4156695,9.786316,-0.32348633,0.06597996,0.042510986,-0.019928148,0.004714966,-0.018844604,-19.247437,-0.07479781,-0.6149597,-0.04067993,9.800995,-0.630877,-0.104583964
-0.4463032,0.5804963,-44.47174,-0.41536868,9.780967,-1.045227,0.079377174,-0.02204895,-0.004660444,0.01663208,0.052261353,-19.277954,0.19209003,-0.5742798,0.0765686,9.805786,-0.70926553,-0.036997095
-0.44859508,0.5810274,-44.500732,-0.41461375,9.777029,-0.881958,0.0659647,0.0138549805,0.0072094426,-0.0060272217,0.021347046,-19.680786,0.055687428,-0.61735535,0.0047912598,9.810577,-0.76159203,-0.005263989
-0.44490504,0.583009,-44.126892,-0.41334835,9.778512,0.23803711,0.04391384,0.03591919,-0.01685547,-0.0059661865,-0.041259766,-19.41681,-0.017008185,-0.42352295,0.0023956299,9.82254,-0.7421671,-0.023366101
-0.44286397,0.5809329,-46.098328,-0.41543242,9.784434,-1.4816284,0.028097153,0.016494751,-0.025293166,-0.008285522,-0.018844604,-18.55011,0.049074948,-0.68434143,0.04307556,9.800995,-0.6592327,0.007831631
-0.44139567,0.5802998,-44.921875,-0.4161795,9.787017,-0.7232666,0.020291328,0.009887695,-0.032982532,-0.0015106201,-0.016342163,-18.330383,0.010754943,-0.5264282,0.08135986,9.805786,-0.6193486,-0.004294794
-0.44127607,0.57877004,-45.202637,-0.4179292,9.78926,-0.18463135,0.013875008,0.0045166016,-0.03829507,-0.008712769,0.010726929,-18.096924,0.04309982,-0.63409424,-0.04067993,9.820145,-0.5825023,0.002954375
-0.4410008,0.5794675,-45.07904,-0.4179098,9.788537,-0.92926025,0.010255814,0.011169434,-0.05109254,-0.0015716553,-0.0047302246,-19.62738,0.008793473,-0.65802,-0.04307556,9.817749,-0.59358126,0.0031220652
-0.47463393,0.5507308,-45.33539,-0.45120692,9.790454,-0.5493164,0.007543564,0.0072021484,-0.056081235,-0.0019378662,-0.01272583,-19.073486,0.013004363,-0.6460571,-0.059814453,9.812973,-0.56058335,-0.010045923
-0.47336304,0.55136293,-45.542908,-0.4502489,9.791042,-1.725769,0.0016326904,0.013549805,-0.05192664,-0.0063934326,-3.0517578e-05,-19.007874,-0.0007762313,-0.62931824,0.0382843,9.784256,-0.55061716,0.021207597
-0.47216374,0.5513091,-44.918823,-0.45074207,9.79227,-1.1001587,0.006043434,0.024124146,-0.062308654,0.006072998,0.020065308,-18.333435,0.038069427,-0.4139557,-0.023925781,9.812973,-0.5272114,-0.015746199
-0.4791594,0.54873675,-45.222473,-0.45285964,9.788045,0.12207031,0.006849289,-0.05430603,-0.043250456,0.007659912,0.095687866,-18.33496,0.13862234,-1.0624084,-0.093322754,9.812973,-0.6022414,0.013715867
-0.48492798,0.5490228,-44.28253,-0.45291,9.7802725,-0.010681152,-0.000500679,-0.056869507,-0.043267474,0.0074157715,-0.0008239746,-19.584656,-0.062699854,-0.727417,-0.15553284,9.824936,-0.71747774,-0.001578074
-0.48904872,0.5479266,-44.403076,-0.45247662,9.776162,0.66986084,0.00806427,-0.033721924,-0.010673915,0.0050964355,0.015975952,-20.228577,0.080429435,-0.9140625,-0.18185425,9.808182,-0.7726106,-0.056049302
-0.48799604,0.54599804,-41.893005,-0.45398143,9.780837,6.32782,-0.0023565292,0.025283813,-0.0033621772,0.32206726,0.3826294,-22.406006,-0.09519094,-2.428711,1.5003052,11.332413,-0.7110605,0.020127114
-0.5643434,0.56210244,-44.68994,-0.36099523,9.342865,5.192566,0.81959057,0.2379303,1.3885996,0.08035278,0.7224579,-19.64264,1.7093718,-3.3212433,1.7563324,7.503891,-2.6368637,-1.1565173
-0.50666416,0.58521134,-44.589233,-0.41040298,9.611449,0.5371094,-2.356926,-0.16970825,0.079895064,-0.44769287,-0.9965973,-19.754028,-1.6006129,0.72262573,1.0097656,9.729218,-1.9452648,1.9576463
-0.4910325,0.56302446,-44.848633,-0.44101918,9.739869,0.4638672,0.7056618,-0.03213501,-0.07986566,0.008270264,0.0541687,-19.282532,0.8615104,-1.1772614,0.026321411,9.779465,-1.139719,-0.93019503
-0.4783752,0.5545127,-45.783997,-0.4483333,9.7805,-1.4602661,0.02110672,0.053207397,-0.06732666,1.5258789e-05,-0.2342987,-19.340515,-0.65436953,-0.25125122,-0.114852905,9.834503,-0.7124945,0.06066052
-0.47570127,0.5515521,-44.34662,-0.45149463,9.788096,-1.5777588,0.062312126,-0.014175415,-0.07531412,0.005706787,0.041519165,-18.554688,0.3942783,-0.5120697,0.011962891,9.810577,-0.59823453,0.08848951
-0.47533038,0.5491802,-45.29724,-0.45238343,9.791647,-1.4678955,0.055437088,-0.00843811,-0.048134822,0.00289917,-0.019515991,-18.59436,-0.072914064,-0.85902405,0.011962891,9.8033905,-0.54010826,0.046329845
-0.47564444,0.54812455,-44.80896,-0.45405507,9.7925005,-2.6351929,0.051412582,-0.003616333,-0.059464425,-0.0063323975,-0.08230591,-19.065857,-0.09053552,-0.0143585205,0.009567261,9.829712,-0.5232472,0.06268287
-0.47354487,0.5510099,-44.37561,-0.45216715,9.791081,-4.196167,0.05912876,0.026687622,-0.08125955,-0.019836426,-0.012908936,-19.299316,0.25185078,-0.91166687,0.5120697,9.743576,-0.5463601,0.1112408
-0.46813127,0.5365451,-44.255066,-0.46678516,9.805206,-4.1259766,0.04073143,0.0473938,-0.09656897,-0.014404297,0.14016724,-18.569946,0.3998547,-0.624527,0.07896423,9.829712,-0.13783318,0.1026325
-0.46592915,0.5397621,-43.70117,-0.46346033,9.804757,-2.7954102,0.050154686,0.08807373,-0.09879774,-0.0007171631,0.1615448,-18.856812,0.119693905,-1.6725769,-0.46899414,9.78186,-0.16540049,0.056298725
-0.46671772,0.5481445,-44.77997,-0.45342067,9.799876,-3.0212402,0.01865673,-0.012710571,-0.06457714,0.0077209473,-0.093673706,-18.66455,-0.26367474,-0.26560974,0.057434082,9.817749,-0.35868534,0.090099
-0.46713868,0.5536953,-43.80951,-0.45082018,9.793875,-1.7410278,0.059096336,0.04196167,-0.11774575,-0.007736206,0.055267334,-19.255066,0.42672974,0.47138977,-0.33738708,9.860825,-0.48635235,0.071430214
-0.47138035,0.5565975,-44.184875,-0.44217092,9.786546,1.0910034,0.09659481,0.018203735,-0.0009875,0.03831482,0.29074097,-20.214844,0.70655584,-0.77049255,-1.1916199,10.724625,-0.62762886,-0.14928186
-0.42512053,0.58930576,-45.71228,-0.42555514,9.782171,-6.2683105,0.2434349,1.0430603,-0.42158931,-0.45483398,-0.42121887,-12.213135,-0.2614063,1.5744781,-0.047851562,10.736603,-0.54934466,-0.9154438
-0.31119317,0.62415403,-47.662354,-0.40118214,9.718223,-10.507202,0.06391144,0.90463257,-1.2866551,-0.035720825,-0.4029541,-6.941223,-0.51645684,-0.3517456,0.70588684,8.709869,0.26655543,0.98652613
-0.2765746,0.6092053,-44.726562,-0.3594584,9.722549,-18.1427,-0.32184792,0.45942688,-0.7662725,-0.30125427,-1.0694122,-3.1723022,-0.84272516,2.038681,-3.500702,9.104691,1.0272537,0.6186649
-0.1817514,0.55984193,-40.08026,-0.36342773,9.224705,-26.852417,-0.05904007,0.7550354,-1.4163737,0.30386353,-1.4983673,2.1087646,-0.8021016,6.8721924,-0.9834442,9.468399,3.011493,-0.52873445
-0.06378742,0.45059887,-33.09326,-0.33310732,7.714866,-34.928894,0.61753607,0.25894165,-1.9107802,-0.048110962,-1.22995,5.4122925,-0.81615686,6.731003,-1.8233337,7.1928253,5.744575,0.7053282
-0.055365697,0.39438686,-29.977417,-0.32398424,6.9898305,-37.8479,0.4167056,-0.06695557,-1.5742192,0.38841248,-0.5215149,3.6743164,-0.060364723,7.0372925,-1.3878326,6.2237244,6.6958556,-0.033483863
-0.06466687,0.32550532,-26.29242,-0.2927204,6.096394,-41.60614,0.31320667,-0.23316956,-0.7314067,0.3324585,-1.0337372,-0.5371094,-0.72391653,7.417755,-0.28234863,3.3332062,7.646529,-0.5974828
-0.027179522,0.17663558,-14.933777,-0.29333952,3.4099903,-48.825073,1.0403864,0.11752319,-0.5156023,0.08731079,-1.5884552,-3.7963867,-1.3230085,9.269791,-0.41635132,1.0384827,9.180224,0.38469803
0.01461177,0.07769665,-9.396362,-0.27877915,1.3786122,-48.635864,0.7479149,-0.20965576,-0.69911736,-0.08457947,-1.3476562,-10.388184,0.2875471,11.164917,-0.22732544,-0.928421,9.684061,-0.26395833
-0.007572684,-0.0006075095,-8.361816,-0.29979846,0.033160836,-48.103333,0.20980547,-0.12915039,0.14526124,-0.17260742,0.07058716,-14.52179,0.8138056,9.793823,0.5240326,-0.30389404,9.805519,-0.1185361
-0.001810258,-3.040592e-05,-7.9330444,-0.35234836,0.011952062,-47.54486,-0.23564462,0.010314941,0.033438217,-0.6222687,-0.004425049,-11.282349,0.022421837,10.071396,-0.098098755,-0.48095703,9.806586,0.055426378
-0.007594404,-0.0018455525,-7.991028,-0.36824343,0.02119777,-46.740723,-0.3573274,0.015457153,0.15180898,-0.024475098,0.004180908,-10.957336,-0.09153843,9.657425,0.04547119,-0.29431152,9.805452,-0.18004432
-0.00035048887,6.4196836e-05,-8.213806,-0.3675511,0.003697614,-47.276306,-0.26475126,0.019302368,0.0059302812,0.00062561035,0.002166748,-10.005188,0.13923264,9.800995,0.028717041,-0.27278137,9.806648,0.31567836
0.00010806531,-0.00022194012,-9.320068,-0.36835995,-0.0048276363,-50.920105,-0.24977648,0.01159668,-0.00036701688,0.00074768066,0.0031433105,-9.518433,0.019307137,9.714859,0.14117432,-0.24885559,9.806649,0.030273391
0.0015072839,-2.932694e-05,-10.057068,-0.36875585,-0.011436122,-50.31433,-0.2429381,-0.005935669,-0.02726727,0.042419434,0.0011901855,-9.547424,0.018149376,9.789032,-0.105285645,-0.7034912,9.806606,0.035827763
0.0033730962,0.000106568565,-9.408569,-0.3374296,-0.020355951,-49.665833,-0.39436093,0.017288208,-0.062982336,0.3734436,0.005584717,-12.892151,0.011716843,9.805786,-0.04547119,-0.24885559,9.806426,0.021693178